ExperimentName,Subject,Session,Clock.Information,Display.RefreshRate,Group,RandomSeed,Session1Onset.ACC,Session1Onset.CRESP,Session1Onset.DurationError,Session1Onset.OnsetDelay,Session1Onset.OnsetTime,Session1Onset.RESP,Session1Onset.RT,Session1Onset.RTTime,SessionDate,SessionTime,SessionTimeUtc,Block,Procedure[Block],Running[Block],Session2Onset.ACC,Session2Onset.CRESP,Session2Onset.DurationError,Session2Onset.OnsetDelay,Session2Onset.OnsetTime,Session2Onset.RESP,Session2Onset.RT,Session2Onset.RTTime,SessionBreak.OnsetTime,SessionsList,SessionsList.Cycle,SessionsList.Sample,Trial,CuedPrompt1.OnsetTime,CuedPrompt2.OnsetTime,CuedPrompt3.OnsetTime,CuedPrompt4.OnsetTime,MiniBlocks1,MiniBlocks1.Cycle,MiniBlocks1.Sample,MiniBlocks2,MiniBlocks2.Cycle,MiniBlocks2.Sample,Procedure[Trial],Running[Trial],UncuedPrompt1.OnsetTime,UncuedPrompt2.OnsetTime,UncuedPrompt3.OnsetTime,UncuedPrompt4.OnsetTime,SubTrial,Arrow1.ACC,Arrow1.CRESP,Arrow1.DurationError,Arrow1.OnsetDelay,Arrow1.OnsetTime,Arrow1.RESP,Arrow1.RT,Arrow1.RTTime,ArrowColor,Congruence,CorrectResp,Cue,Cue.ACC,Cue.CRESP,Cue.DurationError,Cue.OnsetDelay,Cue.OnsetTime,Cue.RESP,Cue.RT,Cue.RTTime,CuedStim1,CuedStim1.Cycle,CuedStim1.Sample,CuedStim2,CuedStim2.Cycle,CuedStim2.Sample,CuedStim3,CuedStim3.Cycle,CuedStim3.Sample,CuedStim4,CuedStim4.Cycle,CuedStim4.Sample,CueImage,JitterCue,JitterTrial,LeftImage,NonCuedStim1,NonCuedStim1.Cycle,NonCuedStim1.Sample,NonCuedStim2,NonCuedStim2.Cycle,NonCuedStim2.Sample,NonCuedStim3,NonCuedStim3.Cycle,NonCuedStim3.Sample,NonCuedStim4,NonCuedStim4.Cycle,NonCuedStim4.Sample,Procedure[SubTrial],RightImage,Running[SubTrial],Stimulus
POP_2,16058,1,"<?xml version=""1.0""?>\n<Clock xmlns:dt=""urn:schemas-microsoft-com:datatypes""><Description dt:dt=""string"">E-Prime Primary Realtime Clock</Description><StartTime><Timestamp dt:dt=""int"">0</Timestamp><DateUtc dt:dt=""string"">2014-05-15T22:00:43Z</DateUtc></StartTime><FrequencyChanges><FrequencyChange><Frequency dt:dt=""r8"">2793030000</Frequency><Timestamp dt:dt=""r8"">1.9673372755229E+15</Timestamp><Current dt:dt=""r8"">0</Current><DateUtc dt:dt=""string"">2014-05-15T22:00:43Z</DateUtc></FrequencyChange></FrequencyChanges></Clock>\n",60.03,1,-2024692289,0,,-999999,5,142254,t,100172,242426,5/15/2014,15:00:43,,1,Session1,SessionsList,,,,,,,,,,1,1,1,1,,,,,,,,1,1,1,NonCued3,MiniBlocks2,,,242438,,1,1,b,-999999,18,262444,b,441,262885,Green,Congruent,b,White,0,,0,7,252433,,0,0,,,,,,,,,,,,,Pictures\white.bmp,9000,10000,Pictures\black.bmp,,,,,,,1,1,1,,,,StimulusPr,Pictures\GreenRight.bmp,NonCuedStim3,Right
POP_2,16058,1,"<?xml version=""1.0""?>\n<Clock xmlns:dt=""urn:schemas-microsoft-com:datatypes""><Description dt:dt=""string"">E-Prime Primary Realtime Clock</Description><StartTime><Timestamp dt:dt=""int"">0</Timestamp><DateUtc dt:dt=""string"">2014-05-15T22:00:43Z</DateUtc></StartTime><FrequencyChanges><FrequencyChange><Frequency dt:dt=""r8"">2793030000</Frequency><Timestamp dt:dt=""r8"">1.9673372755229E+15</Timestamp><Current dt:dt=""r8"">0</Current><DateUtc dt:dt=""string"">2014-05-15T22:00:43Z</DateUtc></FrequencyChange></FrequencyChanges></Clock>\n",60.03,1,-2024692289,0,,-999999,5,142254,t,100172,242426,5/15/2014,15:00:43,,1,Session1,SessionsList,,,,,,,,,,1,1,1,1,,,,,,,,1,1,1,NonCued3,MiniBlocks2,,,242438,,2,1,r,-999999,7,284433,r,608,285041,Red,Incongruent,r,White,0,,0,12,274438,,0,0,,,,,,,,,,,,,Pictures\white.bmp,9000,10000,Pictures\black.bmp,,,,,,,2,1,2,,,,StimulusPr,Pictures\RedRight.bmp,NonCuedStim3,Right
POP_2,16058,1,"<?xml version=""1.0""?>\n<Clock xmlns:dt=""urn:schemas-microsoft-com:datatypes""><Description dt:dt=""string"">E-Prime Primary Realtime Clock</Description><StartTime><Timestamp dt:dt=""int"">0</Timestamp><DateUtc dt:dt=""string"">2014-05-15T22:00:43Z</DateUtc></StartTime><FrequencyChanges><FrequencyChange><Frequency dt:dt=""r8"">2793030000</Frequency><Timestamp dt:dt=""r8"">1.9673372755229E+15</Timestamp><Current dt:dt=""r8"">0</Current><DateUtc dt:dt=""string"">2014-05-15T22:00:43Z</DateUtc></FrequencyChange></FrequencyChanges></Clock>\n",60.03,1,-2024692289,0,,-999999,5,142254,t,100172,242426,5/15/2014,15:00:43,,1,Session1,SessionsList,,,,,,,,,,1,1,1,1,,,,,,,,1,1,1,NonCued3,MiniBlocks2,,,242438,,3,1,r,-999999,4,301425,r,457,301882,Green,Congruent,r,White,0,,0,1,296427,,0,0,,,,,,,,,,,,,Pictures\white.bmp,4000,4000,Pictures\GreenLeft.bmp,,,,,,,3,1,3,,,,StimulusPr,Pictures\black.bmp,NonCuedStim3,Left
POP_2,16058,1,"<?xml version=""1.0""?>\n<Clock xmlns:dt=""urn:schemas-microsoft-com:datatypes""><Description dt:dt=""string"">E-Prime Primary Realtime Clock</Description><StartTime><Timestamp dt:dt=""int"">0</Timestamp><DateUtc dt:dt=""string"">2014-05-15T22:00:43Z</DateUtc></StartTime><FrequencyChanges><FrequencyChange><Frequency dt:dt=""r8"">2793030000</Frequency><Timestamp dt:dt=""r8"">1.9673372755229E+15</Timestamp><Current dt:dt=""r8"">0</Current><DateUtc dt:dt=""string"">2014-05-15T22:00:43Z</DateUtc></FrequencyChange></FrequencyChanges></Clock>\n",60.03,1,-2024692289,0,,-999999,5,142254,t,100172,242426,5/15/2014,15:00:43,,1,Session1,SessionsList,,,,,,,,,,1,1,1,1,,,,,,,,1,1,1,NonCued3,MiniBlocks2,,,242438,,4,1,b,-999999,9,314435,b,565,315000,Red,Incongruent,b,White,0,,0,14,307439,,0,0,,,,,,,,,,,,,Pictures\white.bmp,6000,4000,Pictures\RedLeft.bmp,,,,,,,4,1,4,,,,StimulusPr,Pictures\black.bmp,NonCuedStim3,Left
POP_2,16058,1,"<?xml version=""1.0""?>\n<Clock xmlns:dt=""urn:schemas-microsoft-com:datatypes""><Description dt:dt=""string"">E-Prime Primary Realtime Clock</Description><StartTime><Timestamp dt:dt=""int"">0</Timestamp><DateUtc dt:dt=""string"">2014-05-15T22:00:43Z</DateUtc></StartTime><FrequencyChanges><FrequencyChange><Frequency dt:dt=""r8"">2793030000</Frequency><Timestamp dt:dt=""r8"">1.9673372755229E+15</Timestamp><Current dt:dt=""r8"">0</Current><DateUtc dt:dt=""string"">2014-05-15T22:00:43Z</DateUtc></FrequencyChange></FrequencyChanges></Clock>\n",60.03,1,-2024692289,0,,-999999,5,142254,t,100172,242426,5/15/2014,15:00:43,,1,Session1,SessionsList,,,,,,,,,,1,1,1,1,,,,,,,,1,1,1,NonCued3,MiniBlocks2,,,242438,,5,1,b,-999999,4,324430,b,548,324978,Green,Congruent,b,White,0,,0,6,320432,,0,0,,,,,,,,,,,,,Pictures\white.bmp,3000,2000,Pictures\black.bmp,,,,,,,5,1,5,,,,StimulusPr,Pictures\GreenRight.bmp,NonCuedStim3,Right
POP_2,16058,1,"<?xml version=""1.0""?>\n<Clock xmlns:dt=""urn:schemas-microsoft-com:datatypes""><Description dt:dt=""string"">E-Prime Primary Realtime Clock</Description><StartTime><Timestamp dt:dt=""int"">0</Timestamp><DateUtc dt:dt=""string"">2014-05-15T22:00:43Z</DateUtc></StartTime><FrequencyChanges><FrequencyChange><Frequency dt:dt=""r8"">2793030000</Frequency><Timestamp dt:dt=""r8"">1.9673372755229E+15</Timestamp><Current dt:dt=""r8"">0</Current><DateUtc dt:dt=""string"">2014-05-15T22:00:43Z</DateUtc></FrequencyChange></FrequencyChanges></Clock>\n",60.03,1,-2024692289,0,,-999999,5,142254,t,100172,242426,5/15/2014,15:00:43,,1,Session1,SessionsList,,,,,,,,,,1,1,1,1,,,,,,,,1,1,1,NonCued3,MiniBlocks2,,,242438,,6,1,r,-999999,17,332443,r,459,332902,Green,Congruent,r,White,0,,0,2,328428,,0,0,,,,,,,,,,,,,Pictures\white.bmp,3000,2000,Pictures\GreenLeft.bmp,,,,,,,6,1,6,,,,StimulusPr,Pictures\black.bmp,NonCuedStim3,Left
POP_2,16058,1,"<?xml version=""1.0""?>\n<Clock xmlns:dt=""urn:schemas-microsoft-com:datatypes""><Description dt:dt=""string"">E-Prime Primary Realtime Clock</Description><StartTime><Timestamp dt:dt=""int"">0</Timestamp><DateUtc dt:dt=""string"">2014-05-15T22:00:43Z</DateUtc></StartTime><FrequencyChanges><FrequencyChange><Frequency dt:dt=""r8"">2793030000</Frequency><Timestamp dt:dt=""r8"">1.9673372755229E+15</Timestamp><Current dt:dt=""r8"">0</Current><DateUtc dt:dt=""string"">2014-05-15T22:00:43Z</DateUtc></FrequencyChange></FrequencyChanges></Clock>\n",60.03,1,-2024692289,0,,-999999,5,142254,t,100172,242426,5/15/2014,15:00:43,,1,Session1,SessionsList,,,,,,,,,,1,1,1,1,,,,,,,,1,1,1,NonCued3,MiniBlocks2,,,242438,,7,1,b,-999999,11,343437,b,399,343836,Green,Congruent,b,White,0,,0,15,336441,,0,0,,,,,,,,,,,,,Pictures\white.bmp,6000,16000,Pictures\black.bmp,,,,,,,7,1,7,,,,StimulusPr,Pictures\GreenRight.bmp,NonCuedStim3,Right
POP_2,16058,1,"<?xml version=""1.0""?>\n<Clock xmlns:dt=""urn:schemas-microsoft-com:datatypes""><Description dt:dt=""string"">E-Prime Primary Realtime Clock</Description><StartTime><Timestamp dt:dt=""int"">0</Timestamp><DateUtc dt:dt=""string"">2014-05-15T22:00:43Z</DateUtc></StartTime><FrequencyChanges><FrequencyChange><Frequency dt:dt=""r8"">2793030000</Frequency><Timestamp dt:dt=""r8"">1.9673372755229E+15</Timestamp><Current dt:dt=""r8"">0</Current><DateUtc dt:dt=""string"">2014-05-15T22:00:43Z</DateUtc></FrequencyChange></FrequencyChanges></Clock>\n",60.03,1,-2024692289,0,,-999999,5,142254,t,100172,242426,5/15/2014,15:00:43,,1,Session1,SessionsList,,,,,,,,,,1,1,1,1,,,,,,,,1,1,1,NonCued3,MiniBlocks2,,,242438,,8,1,r,-999999,17,365443,r,626,366069,Red,Incongruent,r,White,0,,0,3,361428,,0,0,,,,,,,,,,,,,Pictures\white.bmp,3000,2000,Pictures\black.bmp,,,,,,,8,1,8,,,,StimulusPr,Pictures\RedRight.bmp,NonCuedStim3,Right
POP_2,16058,1,"<?xml version=""1.0""?>\n<Clock xmlns:dt=""urn:schemas-microsoft-com:datatypes""><Description dt:dt=""string"">E-Prime Primary Realtime Clock</Description><StartTime><Timestamp dt:dt=""int"">0</Timestamp><DateUtc dt:dt=""string"">2014-05-15T22:00:43Z</DateUtc></StartTime><FrequencyChanges><FrequencyChange><Frequency dt:dt=""r8"">2793030000</Frequency><Timestamp dt:dt=""r8"">1.9673372755229E+15</Timestamp><Current dt:dt=""r8"">0</Current><DateUtc dt:dt=""string"">2014-05-15T22:00:43Z</DateUtc></FrequencyChange></FrequencyChanges></Clock>\n",60.03,1,-2024692289,0,,-999999,5,142254,t,100172,242426,5/15/2014,15:00:43,,1,Session1,SessionsList,,,,,,,,,,1,1,1,1,,,,,,,,1,1,1,NonCued3,MiniBlocks2,,,242438,,9,1,r,-999999,11,379436,r,385,379821,Green,Congruent,r,White,0,,0,16,369441,,0,0,,,,,,,,,,,,,Pictures\white.bmp,9000,10000,Pictures\GreenLeft.bmp,,,,,,,9,1,9,,,,StimulusPr,Pictures\black.bmp,NonCuedStim3,Left
POP_2,16058,1,"<?xml version=""1.0""?>\n<Clock xmlns:dt=""urn:schemas-microsoft-com:datatypes""><Description dt:dt=""string"">E-Prime Primary Realtime Clock</Description><StartTime><Timestamp dt:dt=""int"">0</Timestamp><DateUtc dt:dt=""string"">2014-05-15T22:00:43Z</DateUtc></StartTime><FrequencyChanges><FrequencyChange><Frequency dt:dt=""r8"">2793030000</Frequency><Timestamp dt:dt=""r8"">1.9673372755229E+15</Timestamp><Current dt:dt=""r8"">0</Current><DateUtc dt:dt=""string"">2014-05-15T22:00:43Z</DateUtc></FrequencyChange></FrequencyChanges></Clock>\n",60.03,1,-2024692289,0,,-999999,5,142254,t,100172,242426,5/15/2014,15:00:43,,1,Session1,SessionsList,,,,,,,,,,1,1,1,1,,,,,,,,1,1,1,NonCued3,MiniBlocks2,,,242438,,10,1,r,-999999,17,398443,r,375,398818,Green,Congruent,r,White,0,,0,4,391430,,0,0,,,,,,,,,,,,,Pictures\white.bmp,6000,4000,Pictures\GreenLeft.bmp,,,,,,,10,1,10,,,,StimulusPr,Pictures\black.bmp,NonCuedStim3,Left
POP_2,16058,1,"<?xml version=""1.0""?>\n<Clock xmlns:dt=""urn:schemas-microsoft-com:datatypes""><Description dt:dt=""string"">E-Prime Primary Realtime Clock</Description><StartTime><Timestamp dt:dt=""int"">0</Timestamp><DateUtc dt:dt=""string"">2014-05-15T22:00:43Z</DateUtc></StartTime><FrequencyChanges><FrequencyChange><Frequency dt:dt=""r8"">2793030000</Frequency><Timestamp dt:dt=""r8"">1.9673372755229E+15</Timestamp><Current dt:dt=""r8"">0</Current><DateUtc dt:dt=""string"">2014-05-15T22:00:43Z</DateUtc></FrequencyChange></FrequencyChanges></Clock>\n",60.03,1,-2024692289,0,,-999999,5,142254,t,100172,242426,5/15/2014,15:00:43,,1,Session1,SessionsList,,,,,,,,,,1,1,1,2,,,402841,,,,,2,1,2,Cued3,MiniBlocks2,,,,,1,1,b,-999999,8,416434,b,281,416715,White,Congruent,b,Green,0,,0,10,412436,,0,0,,,,,,,1,1,1,,,,Pictures\green.bmp,3000,2000,Pictures\black.bmp,,,,,,,,,,,,,StimulusPr,Pictures\right.bmp,CuedStim3,Right
POP_2,16058,1,"<?xml version=""1.0""?>\n<Clock xmlns:dt=""urn:schemas-microsoft-com:datatypes""><Description dt:dt=""string"">E-Prime Primary Realtime Clock</Description><StartTime><Timestamp dt:dt=""int"">0</Timestamp><DateUtc dt:dt=""string"">2014-05-15T22:00:43Z</DateUtc></StartTime><FrequencyChanges><FrequencyChange><Frequency dt:dt=""r8"">2793030000</Frequency><Timestamp dt:dt=""r8"">1.9673372755229E+15</Timestamp><Current dt:dt=""r8"">0</Current><DateUtc dt:dt=""string"">2014-05-15T22:00:43Z</DateUtc></FrequencyChange></FrequencyChanges></Clock>\n",60.03,1,-2024692289,0,,-999999,5,142254,t,100172,242426,5/15/2014,15:00:43,,1,Session1,SessionsList,,,,,,,,,,1,1,1,2,,,402841,,,,,2,1,2,Cued3,MiniBlocks2,,,,,2,1,b,-999999,5,424430,b,304,424734,White,Congruent,b,Green,0,,0,7,420432,,0,0,,,,,,,2,1,2,,,,Pictures\green.bmp,3000,10000,Pictures\black.bmp,,,,,,,,,,,,,StimulusPr,Pictures\right.bmp,CuedStim3,Right
POP_2,16058,1,"<?xml version=""1.0""?>\n<Clock xmlns:dt=""urn:schemas-microsoft-com:datatypes""><Description dt:dt=""string"">E-Prime Primary Realtime Clock</Description><StartTime><Timestamp dt:dt=""int"">0</Timestamp><DateUtc dt:dt=""string"">2014-05-15T22:00:43Z</DateUtc></StartTime><FrequencyChanges><FrequencyChange><Frequency dt:dt=""r8"">2793030000</Frequency><Timestamp dt:dt=""r8"">1.9673372755229E+15</Timestamp><Current dt:dt=""r8"">0</Current><DateUtc dt:dt=""string"">2014-05-15T22:00:43Z</DateUtc></FrequencyChange></FrequencyChanges></Clock>\n",60.03,1,-2024692289,0,,-999999,5,142254,t,100172,242426,5/15/2014,15:00:43,,1,Session1,SessionsList,,,,,,,,,,1,1,1,2,,,402841,,,,,2,1,2,Cued3,MiniBlocks2,,,,,3,1,r,-999999,10,446436,r,352,446788,White,Congruent,r,Green,0,,0,16,436441,,0,0,,,,,,,3,1,3,,,,Pictures\green.bmp,9000,2000,Pictures\left.bmp,,,,,,,,,,,,,StimulusPr,Pictures\black.bmp,CuedStim3,Left
POP_2,16058,1,"<?xml version=""1.0""?>\n<Clock xmlns:dt=""urn:schemas-microsoft-com:datatypes""><Description dt:dt=""string"">E-Prime Primary Realtime Clock</Description><StartTime><Timestamp dt:dt=""int"">0</Timestamp><DateUtc dt:dt=""string"">2014-05-15T22:00:43Z</DateUtc></StartTime><FrequencyChanges><FrequencyChange><Frequency dt:dt=""r8"">2793030000</Frequency><Timestamp dt:dt=""r8"">1.9673372755229E+15</Timestamp><Current dt:dt=""r8"">0</Current><DateUtc dt:dt=""string"">2014-05-15T22:00:43Z</DateUtc></FrequencyChange></FrequencyChanges></Clock>\n",60.03,1,-2024692289,0,,-999999,5,142254,t,100172,242426,5/15/2014,15:00:43,,1,Session1,SessionsList,,,,,,,,,,1,1,1,2,,,402841,,,,,2,1,2,Cued3,MiniBlocks2,,,,,4,1,r,-999999,6,455431,r,388,455819,White,Congruent,r,Green,0,,0,9,450434,,0,0,,,,,,,4,1,4,,,,Pictures\green.bmp,4000,16000,Pictures\left.bmp,,,,,,,,,,,,,StimulusPr,Pictures\black.bmp,CuedStim3,Left
POP_2,16058,1,"<?xml version=""1.0""?>\n<Clock xmlns:dt=""urn:schemas-microsoft-com:datatypes""><Description dt:dt=""string"">E-Prime Primary Realtime Clock</Description><StartTime><Timestamp dt:dt=""int"">0</Timestamp><DateUtc dt:dt=""string"">2014-05-15T22:00:43Z</DateUtc></StartTime><FrequencyChanges><FrequencyChange><Frequency dt:dt=""r8"">2793030000</Frequency><Timestamp dt:dt=""r8"">1.9673372755229E+15</Timestamp><Current dt:dt=""r8"">0</Current><DateUtc dt:dt=""string"">2014-05-15T22:00:43Z</DateUtc></FrequencyChange></FrequencyChanges></Clock>\n",60.03,1,-2024692289,0,,-999999,5,142254,t,100172,242426,5/15/2014,15:00:43,,1,Session1,SessionsList,,,,,,,,,,1,1,1,2,,,402841,,,,,2,1,2,Cued3,MiniBlocks2,,,,,5,1,r,-999999,12,477437,r,343,477780,White,Incongruent,r,Red,0,,0,14,473439,,0,0,,,,,,,5,1,5,,,,Pictures\red.bmp,3000,4000,Pictures\black.bmp,,,,,,,,,,,,,StimulusPr,Pictures\right.bmp,CuedStim3,Right
POP_2,16058,1,"<?xml version=""1.0""?>\n<Clock xmlns:dt=""urn:schemas-microsoft-com:datatypes""><Description dt:dt=""string"">E-Prime Primary Realtime Clock</Description><StartTime><Timestamp dt:dt=""int"">0</Timestamp><DateUtc dt:dt=""string"">2014-05-15T22:00:43Z</DateUtc></StartTime><FrequencyChanges><FrequencyChange><Frequency dt:dt=""r8"">2793030000</Frequency><Timestamp dt:dt=""r8"">1.9673372755229E+15</Timestamp><Current dt:dt=""r8"">0</Current><DateUtc dt:dt=""string"">2014-05-15T22:00:43Z</DateUtc></FrequencyChange></FrequencyChanges></Clock>\n",60.03,1,-2024692289,0,,-999999,5,142254,t,100172,242426,5/15/2014,15:00:43,,1,Session1,SessionsList,,,,,,,,,,1,1,1,2,,,402841,,,,,2,1,2,Cued3,MiniBlocks2,,,,,6,1,b,-999999,6,490431,b,453,490884,White,Congruent,b,Green,0,,0,10,483434,,0,0,,,,,,,6,1,6,,,,Pictures\green.bmp,6000,4000,Pictures\black.bmp,,,,,,,,,,,,,StimulusPr,Pictures\right.bmp,CuedStim3,Right
POP_2,16058,1,"<?xml version=""1.0""?>\n<Clock xmlns:dt=""urn:schemas-microsoft-com:datatypes""><Description dt:dt=""string"">E-Prime Primary Realtime Clock</Description><StartTime><Timestamp dt:dt=""int"">0</Timestamp><DateUtc dt:dt=""string"">2014-05-15T22:00:43Z</DateUtc></StartTime><FrequencyChanges><FrequencyChange><Frequency dt:dt=""r8"">2793030000</Frequency><Timestamp dt:dt=""r8"">1.9673372755229E+15</Timestamp><Current dt:dt=""r8"">0</Current><DateUtc dt:dt=""string"">2014-05-15T22:00:43Z</DateUtc></FrequencyChange></FrequencyChanges></Clock>\n",60.03,1,-2024692289,0,,-999999,5,142254,t,100172,242426,5/15/2014,15:00:43,,1,Session1,SessionsList,,,,,,,,,,1,1,1,2,,,402841,,,,,2,1,2,Cued3,MiniBlocks2,,,,,7,1,r,-999999,17,501442,r,307,501749,White,Congruent,r,Green,0,,0,8,496428,,0,0,,,,,,,7,1,7,,,,Pictures\green.bmp,4000,16000,Pictures\left.bmp,,,,,,,,,,,,,StimulusPr,Pictures\black.bmp,CuedStim3,Left
POP_2,16058,1,"<?xml version=""1.0""?>\n<Clock xmlns:dt=""urn:schemas-microsoft-com:datatypes""><Description dt:dt=""string"">E-Prime Primary Realtime Clock</Description><StartTime><Timestamp dt:dt=""int"">0</Timestamp><DateUtc dt:dt=""string"">2014-05-15T22:00:43Z</DateUtc></StartTime><FrequencyChanges><FrequencyChange><Frequency dt:dt=""r8"">2793030000</Frequency><Timestamp dt:dt=""r8"">1.9673372755229E+15</Timestamp><Current dt:dt=""r8"">0</Current><DateUtc dt:dt=""string"">2014-05-15T22:00:43Z</DateUtc></FrequencyChange></FrequencyChanges></Clock>\n",60.03,1,-2024692289,0,,-999999,5,142254,t,100172,242426,5/15/2014,15:00:43,,1,Session1,SessionsList,,,,,,,,,,1,1,1,2,,,402841,,,,,2,1,2,Cued3,MiniBlocks2,,,,,8,1,b,-999999,6,523431,b,654,524085,White,Incongruent,b,Red,0,,0,8,519433,,0,0,,,,,,,8,1,8,,,,Pictures\red.bmp,3000,2000,Pictures\left.bmp,,,,,,,,,,,,,StimulusPr,Pictures\black.bmp,CuedStim3,Left
POP_2,16058,1,"<?xml version=""1.0""?>\n<Clock xmlns:dt=""urn:schemas-microsoft-com:datatypes""><Description dt:dt=""string"">E-Prime Primary Realtime Clock</Description><StartTime><Timestamp dt:dt=""int"">0</Timestamp><DateUtc dt:dt=""string"">2014-05-15T22:00:43Z</DateUtc></StartTime><FrequencyChanges><FrequencyChange><Frequency dt:dt=""r8"">2793030000</Frequency><Timestamp dt:dt=""r8"">1.9673372755229E+15</Timestamp><Current dt:dt=""r8"">0</Current><DateUtc dt:dt=""string"">2014-05-15T22:00:43Z</DateUtc></FrequencyChange></FrequencyChanges></Clock>\n",60.03,1,-2024692289,0,,-999999,5,142254,t,100172,242426,5/15/2014,15:00:43,,1,Session1,SessionsList,,,,,,,,,,1,1,1,2,,,402841,,,,,2,1,2,Cued3,MiniBlocks2,,,,,9,1,r,-999999,19,531444,r,341,531785,White,Congruent,r,Green,0,,0,4,527429,,0,0,,,,,,,9,1,9,,,,Pictures\green.bmp,3000,2000,Pictures\left.bmp,,,,,,,,,,,,,StimulusPr,Pictures\black.bmp,CuedStim3,Left
POP_2,16058,1,"<?xml version=""1.0""?>\n<Clock xmlns:dt=""urn:schemas-microsoft-com:datatypes""><Description dt:dt=""string"">E-Prime Primary Realtime Clock</Description><StartTime><Timestamp dt:dt=""int"">0</Timestamp><DateUtc dt:dt=""string"">2014-05-15T22:00:43Z</DateUtc></StartTime><FrequencyChanges><FrequencyChange><Frequency dt:dt=""r8"">2793030000</Frequency><Timestamp dt:dt=""r8"">1.9673372755229E+15</Timestamp><Current dt:dt=""r8"">0</Current><DateUtc dt:dt=""string"">2014-05-15T22:00:43Z</DateUtc></FrequencyChange></FrequencyChanges></Clock>\n",60.03,1,-2024692289,0,,-999999,5,142254,t,100172,242426,5/15/2014,15:00:43,,1,Session1,SessionsList,,,,,,,,,,1,1,1,2,,,402841,,,,,2,1,2,Cued3,MiniBlocks2,,,,,10,1,b,-999999,12,545437,b,358,545795,White,Congruent,b,Green,0,,0,17,535442,,0,0,,,,,,,10,1,10,,,,Pictures\green.bmp,9000,10000,Pictures\black.bmp,,,,,,,,,,,,,StimulusPr,Pictures\right.bmp,CuedStim3,Right
POP_2,16058,1,"<?xml version=""1.0""?>\n<Clock xmlns:dt=""urn:schemas-microsoft-com:datatypes""><Description dt:dt=""string"">E-Prime Primary Realtime Clock</Description><StartTime><Timestamp dt:dt=""int"">0</Timestamp><DateUtc dt:dt=""string"">2014-05-15T22:00:43Z</DateUtc></StartTime><FrequencyChanges><FrequencyChange><Frequency dt:dt=""r8"">2793030000</Frequency><Timestamp dt:dt=""r8"">1.9673372755229E+15</Timestamp><Current dt:dt=""r8"">0</Current><DateUtc dt:dt=""string"">2014-05-15T22:00:43Z</DateUtc></FrequencyChange></FrequencyChanges></Clock>\n",60.03,1,-2024692289,0,,-999999,5,142254,t,100172,242426,5/15/2014,15:00:43,,1,Session1,SessionsList,,,,,,,,,,1,1,1,3,,,,555815,,,,3,1,3,Cued4,MiniBlocks2,,,,,1,1,b,-999999,15,572440,b,562,573002,White,Congruent,b,Green,0,,0,2,565427,,0,0,,,,,,,,,,1,1,1,Pictures\green.bmp,6000,2000,Pictures\black.bmp,,,,,,,,,,,,,StimulusPr,Pictures\right.bmp,CuedStim4,Right
POP_2,16058,1,"<?xml version=""1.0""?>\n<Clock xmlns:dt=""urn:schemas-microsoft-com:datatypes""><Description dt:dt=""string"">E-Prime Primary Realtime Clock</Description><StartTime><Timestamp dt:dt=""int"">0</Timestamp><DateUtc dt:dt=""string"">2014-05-15T22:00:43Z</DateUtc></StartTime><FrequencyChanges><FrequencyChange><Frequency dt:dt=""r8"">2793030000</Frequency><Timestamp dt:dt=""r8"">1.9673372755229E+15</Timestamp><Current dt:dt=""r8"">0</Current><DateUtc dt:dt=""string"">2014-05-15T22:00:43Z</DateUtc></FrequencyChange></FrequencyChanges></Clock>\n",60.03,1,-2024692289,0,,-999999,5,142254,t,100172,242426,5/15/2014,15:00:43,,1,Session1,SessionsList,,,,,,,,,,1,1,1,3,,,,555815,,,,3,1,3,Cued4,MiniBlocks2,,,,,2,1,r,-999999,8,586433,r,333,586766,White,Incongruent,r,Red,0,,0,13,576438,,0,0,,,,,,,,,,2,1,2,Pictures\red.bmp,9000,2000,Pictures\black.bmp,,,,,,,,,,,,,StimulusPr,Pictures\right.bmp,CuedStim4,Right
POP_2,16058,1,"<?xml version=""1.0""?>\n<Clock xmlns:dt=""urn:schemas-microsoft-com:datatypes""><Description dt:dt=""string"">E-Prime Primary Realtime Clock</Description><StartTime><Timestamp dt:dt=""int"">0</Timestamp><DateUtc dt:dt=""string"">2014-05-15T22:00:43Z</DateUtc></StartTime><FrequencyChanges><FrequencyChange><Frequency dt:dt=""r8"">2793030000</Frequency><Timestamp dt:dt=""r8"">1.9673372755229E+15</Timestamp><Current dt:dt=""r8"">0</Current><DateUtc dt:dt=""string"">2014-05-15T22:00:43Z</DateUtc></FrequencyChange></FrequencyChanges></Clock>\n",60.03,1,-2024692289,0,,-999999,5,142254,t,100172,242426,5/15/2014,15:00:43,,1,Session1,SessionsList,,,,,,,,,,1,1,1,3,,,,555815,,,,3,1,3,Cued4,MiniBlocks2,,,,,3,1,b,-999999,4,594429,b,284,594713,White,Congruent,b,Green,0,,0,6,590431,,0,0,,,,,,,,,,3,1,3,Pictures\green.bmp,3000,4000,Pictures\black.bmp,,,,,,,,,,,,,StimulusPr,Pictures\right.bmp,CuedStim4,Right
POP_2,16058,1,"<?xml version=""1.0""?>\n<Clock xmlns:dt=""urn:schemas-microsoft-com:datatypes""><Description dt:dt=""string"">E-Prime Primary Realtime Clock</Description><StartTime><Timestamp dt:dt=""int"">0</Timestamp><DateUtc dt:dt=""string"">2014-05-15T22:00:43Z</DateUtc></StartTime><FrequencyChanges><FrequencyChange><Frequency dt:dt=""r8"">2793030000</Frequency><Timestamp dt:dt=""r8"">1.9673372755229E+15</Timestamp><Current dt:dt=""r8"">0</Current><DateUtc dt:dt=""string"">2014-05-15T22:00:43Z</DateUtc></FrequencyChange></FrequencyChanges></Clock>\n",60.03,1,-2024692289,0,,-999999,5,142254,t,100172,242426,5/15/2014,15:00:43,,1,Session1,SessionsList,,,,,,,,,,1,1,1,3,,,,555815,,,,3,1,3,Cued4,MiniBlocks2,,,,,4,1,r,-999999,15,604440,r,253,604693,White,Congruent,r,Green,0,,0,17,600442,,0,0,,,,,,,,,,4,1,4,Pictures\green.bmp,3000,4000,Pictures\left.bmp,,,,,,,,,,,,,StimulusPr,Pictures\black.bmp,CuedStim4,Left
POP_2,16058,1,"<?xml version=""1.0""?>\n<Clock xmlns:dt=""urn:schemas-microsoft-com:datatypes""><Description dt:dt=""string"">E-Prime Primary Realtime Clock</Description><StartTime><Timestamp dt:dt=""int"">0</Timestamp><DateUtc dt:dt=""string"">2014-05-15T22:00:43Z</DateUtc></StartTime><FrequencyChanges><FrequencyChange><Frequency dt:dt=""r8"">2793030000</Frequency><Timestamp dt:dt=""r8"">1.9673372755229E+15</Timestamp><Current dt:dt=""r8"">0</Current><DateUtc dt:dt=""string"">2014-05-15T22:00:43Z</DateUtc></FrequencyChange></FrequencyChanges></Clock>\n",60.03,1,-2024692289,0,,-999999,5,142254,t,100172,242426,5/15/2014,15:00:43,,1,Session1,SessionsList,,,,,,,,,,1,1,1,3,,,,555815,,,,3,1,3,Cued4,MiniBlocks2,,,,,5,1,b,-999999,17,615435,b,357,615792,White,Incongruent,b,Red,0,,0,12,610437,,0,0,,,,,,,,,,5,1,5,Pictures\red.bmp,4000,16000,Pictures\left.bmp,,,,,,,,,,,,,StimulusPr,Pictures\black.bmp,CuedStim4,Left
POP_2,16058,1,"<?xml version=""1.0""?>\n<Clock xmlns:dt=""urn:schemas-microsoft-com:datatypes""><Description dt:dt=""string"">E-Prime Primary Realtime Clock</Description><StartTime><Timestamp dt:dt=""int"">0</Timestamp><DateUtc dt:dt=""string"">2014-05-15T22:00:43Z</DateUtc></StartTime><FrequencyChanges><FrequencyChange><Frequency dt:dt=""r8"">2793030000</Frequency><Timestamp dt:dt=""r8"">1.9673372755229E+15</Timestamp><Current dt:dt=""r8"">0</Current><DateUtc dt:dt=""string"">2014-05-15T22:00:43Z</DateUtc></FrequencyChange></FrequencyChanges></Clock>\n",60.03,1,-2024692289,0,,-999999,5,142254,t,100172,242426,5/15/2014,15:00:43,,1,Session1,SessionsList,,,,,,,,,,1,1,1,3,,,,555815,,,,3,1,3,Cued4,MiniBlocks2,,,,,6,1,b,-999999,16,637441,b,400,637841,White,Congruent,b,Green,0,,0,3,633426,,0,0,,,,,,,,,,6,1,6,Pictures\green.bmp,3000,2000,Pictures\black.bmp,,,,,,,,,,,,,StimulusPr,Pictures\right.bmp,CuedStim4,Right
POP_2,16058,1,"<?xml version=""1.0""?>\n<Clock xmlns:dt=""urn:schemas-microsoft-com:datatypes""><Description dt:dt=""string"">E-Prime Primary Realtime Clock</Description><StartTime><Timestamp dt:dt=""int"">0</Timestamp><DateUtc dt:dt=""string"">2014-05-15T22:00:43Z</DateUtc></StartTime><FrequencyChanges><FrequencyChange><Frequency dt:dt=""r8"">2793030000</Frequency><Timestamp dt:dt=""r8"">1.9673372755229E+15</Timestamp><Current dt:dt=""r8"">0</Current><DateUtc dt:dt=""string"">2014-05-15T22:00:43Z</DateUtc></FrequencyChange></FrequencyChanges></Clock>\n",60.03,1,-2024692289,0,,-999999,5,142254,t,100172,242426,5/15/2014,15:00:43,,1,Session1,SessionsList,,,,,,,,,,1,1,1,3,,,,555815,,,,3,1,3,Cued4,MiniBlocks2,,,,,7,1,b,-999999,9,651434,b,327,651761,White,Congruent,b,Green,0,,0,14,641439,,0,0,,,,,,,,,,7,1,7,Pictures\green.bmp,9000,10000,Pictures\black.bmp,,,,,,,,,,,,,StimulusPr,Pictures\right.bmp,CuedStim4,Right
POP_2,16058,1,"<?xml version=""1.0""?>\n<Clock xmlns:dt=""urn:schemas-microsoft-com:datatypes""><Description dt:dt=""string"">E-Prime Primary Realtime Clock</Description><StartTime><Timestamp dt:dt=""int"">0</Timestamp><DateUtc dt:dt=""string"">2014-05-15T22:00:43Z</DateUtc></StartTime><FrequencyChanges><FrequencyChange><Frequency dt:dt=""r8"">2793030000</Frequency><Timestamp dt:dt=""r8"">1.9673372755229E+15</Timestamp><Current dt:dt=""r8"">0</Current><DateUtc dt:dt=""string"">2014-05-15T22:00:43Z</DateUtc></FrequencyChange></FrequencyChanges></Clock>\n",60.03,1,-2024692289,0,,-999999,5,142254,t,100172,242426,5/15/2014,15:00:43,,1,Session1,SessionsList,,,,,,,,,,1,1,1,3,,,,555815,,,,3,1,3,Cued4,MiniBlocks2,,,,,8,1,b,-999999,16,670441,b,493,670934,White,Incongruent,b,Red,0,,0,3,663428,,0,0,,,,,,,,,,8,1,8,Pictures\red.bmp,6000,10000,Pictures\left.bmp,,,,,,,,,,,,,StimulusPr,Pictures\black.bmp,CuedStim4,Left
POP_2,16058,1,"<?xml version=""1.0""?>\n<Clock xmlns:dt=""urn:schemas-microsoft-com:datatypes""><Description dt:dt=""string"">E-Prime Primary Realtime Clock</Description><StartTime><Timestamp dt:dt=""int"">0</Timestamp><DateUtc dt:dt=""string"">2014-05-15T22:00:43Z</DateUtc></StartTime><FrequencyChanges><FrequencyChange><Frequency dt:dt=""r8"">2793030000</Frequency><Timestamp dt:dt=""r8"">1.9673372755229E+15</Timestamp><Current dt:dt=""r8"">0</Current><DateUtc dt:dt=""string"">2014-05-15T22:00:43Z</DateUtc></FrequencyChange></FrequencyChanges></Clock>\n",60.03,1,-2024692289,0,,-999999,5,142254,t,100172,242426,5/15/2014,15:00:43,,1,Session1,SessionsList,,,,,,,,,,1,1,1,3,,,,555815,,,,3,1,3,Cued4,MiniBlocks2,,,,,9,1,r,-999999,15,689431,r,552,689983,White,Congruent,r,Green,0,,0,10,682435,,0,0,,,,,,,,,,9,1,9,Pictures\green.bmp,6000,16000,Pictures\left.bmp,,,,,,,,,,,,,StimulusPr,Pictures\black.bmp,CuedStim4,Left
POP_2,16058,1,"<?xml version=""1.0""?>\n<Clock xmlns:dt=""urn:schemas-microsoft-com:datatypes""><Description dt:dt=""string"">E-Prime Primary Realtime Clock</Description><StartTime><Timestamp dt:dt=""int"">0</Timestamp><DateUtc dt:dt=""string"">2014-05-15T22:00:43Z</DateUtc></StartTime><FrequencyChanges><FrequencyChange><Frequency dt:dt=""r8"">2793030000</Frequency><Timestamp dt:dt=""r8"">1.9673372755229E+15</Timestamp><Current dt:dt=""r8"">0</Current><DateUtc dt:dt=""string"">2014-05-15T22:00:43Z</DateUtc></FrequencyChange></FrequencyChanges></Clock>\n",60.03,1,-2024692289,0,,-999999,5,142254,t,100172,242426,5/15/2014,15:00:43,,1,Session1,SessionsList,,,,,,,,,,1,1,1,3,,,,555815,,,,3,1,3,Cued4,MiniBlocks2,,,,,10,1,r,-999999,17,712436,r,315,712751,White,Congruent,r,Green,0,,0,14,707439,,0,0,,,,,,,,,,10,1,10,Pictures\green.bmp,4000,2000,Pictures\left.bmp,,,,,,,,,,,,,StimulusPr,Pictures\black.bmp,CuedStim4,Left
POP_2,16058,1,"<?xml version=""1.0""?>\n<Clock xmlns:dt=""urn:schemas-microsoft-com:datatypes""><Description dt:dt=""string"">E-Prime Primary Realtime Clock</Description><StartTime><Timestamp dt:dt=""int"">0</Timestamp><DateUtc dt:dt=""string"">2014-05-15T22:00:43Z</DateUtc></StartTime><FrequencyChanges><FrequencyChange><Frequency dt:dt=""r8"">2793030000</Frequency><Timestamp dt:dt=""r8"">1.9673372755229E+15</Timestamp><Current dt:dt=""r8"">0</Current><DateUtc dt:dt=""string"">2014-05-15T22:00:43Z</DateUtc></FrequencyChange></FrequencyChanges></Clock>\n",60.03,1,-2024692289,0,,-999999,5,142254,t,100172,242426,5/15/2014,15:00:43,,1,Session1,SessionsList,,,,,,,,,,1,1,1,4,,,,,,,,4,1,4,NonCued4,MiniBlocks2,,,,714769,1,1,r,-999999,4,728429,r,475,728904,Green,Congruent,r,White,0,,0,7,724431,,0,0,,,,,,,,,,,,,Pictures\white.bmp,3000,2000,Pictures\GreenLeft.bmp,,,,,,,,,,1,1,1,StimulusPr,Pictures\black.bmp,NonCuedStim4,Left
POP_2,16058,1,"<?xml version=""1.0""?>\n<Clock xmlns:dt=""urn:schemas-microsoft-com:datatypes""><Description dt:dt=""string"">E-Prime Primary Realtime Clock</Description><StartTime><Timestamp dt:dt=""int"">0</Timestamp><DateUtc dt:dt=""string"">2014-05-15T22:00:43Z</DateUtc></StartTime><FrequencyChanges><FrequencyChange><Frequency dt:dt=""r8"">2793030000</Frequency><Timestamp dt:dt=""r8"">1.9673372755229E+15</Timestamp><Current dt:dt=""r8"">0</Current><DateUtc dt:dt=""string"">2014-05-15T22:00:43Z</DateUtc></FrequencyChange></FrequencyChanges></Clock>\n",60.03,1,-2024692289,0,,-999999,5,142254,t,100172,242426,5/15/2014,15:00:43,,1,Session1,SessionsList,,,,,,,,,,1,1,1,4,,,,,,,,4,1,4,NonCued4,MiniBlocks2,,,,714769,2,1,r,-999999,16,737441,r,478,737919,Green,Congruent,r,White,0,,0,2,732427,,0,0,,,,,,,,,,,,,Pictures\white.bmp,4000,2000,Pictures\GreenLeft.bmp,,,,,,,,,,2,1,2,StimulusPr,Pictures\black.bmp,NonCuedStim4,Left
POP_2,16058,1,"<?xml version=""1.0""?>\n<Clock xmlns:dt=""urn:schemas-microsoft-com:datatypes""><Description dt:dt=""string"">E-Prime Primary Realtime Clock</Description><StartTime><Timestamp dt:dt=""int"">0</Timestamp><DateUtc dt:dt=""string"">2014-05-15T22:00:43Z</DateUtc></StartTime><FrequencyChanges><FrequencyChange><Frequency dt:dt=""r8"">2793030000</Frequency><Timestamp dt:dt=""r8"">1.9673372755229E+15</Timestamp><Current dt:dt=""r8"">0</Current><DateUtc dt:dt=""string"">2014-05-15T22:00:43Z</DateUtc></FrequencyChange></FrequencyChanges></Clock>\n",60.03,1,-2024692289,0,,-999999,5,142254,t,100172,242426,5/15/2014,15:00:43,,1,Session1,SessionsList,,,,,,,,,,1,1,1,4,,,,,,,,4,1,4,NonCued4,MiniBlocks2,,,,714769,3,1,r,-999999,11,746436,r,467,746903,Red,Incongruent,r,White,0,,0,14,741439,,0,0,,,,,,,,,,,,,Pictures\white.bmp,4000,2000,Pictures\black.bmp,,,,,,,,,,3,1,3,StimulusPr,Pictures\RedRight.bmp,NonCuedStim4,Right
POP_2,16058,1,"<?xml version=""1.0""?>\n<Clock xmlns:dt=""urn:schemas-microsoft-com:datatypes""><Description dt:dt=""string"">E-Prime Primary Realtime Clock</Description><StartTime><Timestamp dt:dt=""int"">0</Timestamp><DateUtc dt:dt=""string"">2014-05-15T22:00:43Z</DateUtc></StartTime><FrequencyChanges><FrequencyChange><Frequency dt:dt=""r8"">2793030000</Frequency><Timestamp dt:dt=""r8"">1.9673372755229E+15</Timestamp><Current dt:dt=""r8"">0</Current><DateUtc dt:dt=""string"">2014-05-15T22:00:43Z</DateUtc></FrequencyChange></FrequencyChanges></Clock>\n",60.03,1,-2024692289,0,,-999999,5,142254,t,100172,242426,5/15/2014,15:00:43,,1,Session1,SessionsList,,,,,,,,,,1,1,1,4,,,,,,,,4,1,4,NonCued4,MiniBlocks2,,,,714769,4,1,b,-999999,7,754432,b,326,754758,Green,Congruent,b,White,0,,0,9,750434,,0,0,,,,,,,,,,,,,Pictures\white.bmp,3000,16000,Pictures\black.bmp,,,,,,,,,,4,1,4,StimulusPr,Pictures\GreenRight.bmp,NonCuedStim4,Right
POP_2,16058,1,"<?xml version=""1.0""?>\n<Clock xmlns:dt=""urn:schemas-microsoft-com:datatypes""><Description dt:dt=""string"">E-Prime Primary Realtime Clock</Description><StartTime><Timestamp dt:dt=""int"">0</Timestamp><DateUtc dt:dt=""string"">2014-05-15T22:00:43Z</DateUtc></StartTime><FrequencyChanges><FrequencyChange><Frequency dt:dt=""r8"">2793030000</Frequency><Timestamp dt:dt=""r8"">1.9673372755229E+15</Timestamp><Current dt:dt=""r8"">0</Current><DateUtc dt:dt=""string"">2014-05-15T22:00:43Z</DateUtc></FrequencyChange></FrequencyChanges></Clock>\n",60.03,1,-2024692289,0,,-999999,5,142254,t,100172,242426,5/15/2014,15:00:43,,1,Session1,SessionsList,,,,,,,,,,1,1,1,4,,,,,,,,4,1,4,NonCued4,MiniBlocks2,,,,714769,5,1,r,-999999,10,782435,r,513,782948,Green,Congruent,r,White,0,,0,15,772440,,0,0,,,,,,,,,,,,,Pictures\white.bmp,9000,10000,Pictures\GreenLeft.bmp,,,,,,,,,,5,1,5,StimulusPr,Pictures\black.bmp,NonCuedStim4,Left
POP_2,16058,1,"<?xml version=""1.0""?>\n<Clock xmlns:dt=""urn:schemas-microsoft-com:datatypes""><Description dt:dt=""string"">E-Prime Primary Realtime Clock</Description><StartTime><Timestamp dt:dt=""int"">0</Timestamp><DateUtc dt:dt=""string"">2014-05-15T22:00:43Z</DateUtc></StartTime><FrequencyChanges><FrequencyChange><Frequency dt:dt=""r8"">2793030000</Frequency><Timestamp dt:dt=""r8"">1.9673372755229E+15</Timestamp><Current dt:dt=""r8"">0</Current><DateUtc dt:dt=""string"">2014-05-15T22:00:43Z</DateUtc></FrequencyChange></FrequencyChanges></Clock>\n",60.03,1,-2024692289,0,,-999999,5,142254,t,100172,242426,5/15/2014,15:00:43,,1,Session1,SessionsList,,,,,,,,,,1,1,1,4,,,,,,,,4,1,4,NonCued4,MiniBlocks2,,,,714769,6,1,b,-999999,19,798444,b,451,798895,Green,Congruent,b,White,0,,0,4,794429,,0,0,,,,,,,,,,,,,Pictures\white.bmp,3000,16000,Pictures\black.bmp,,,,,,,,,,6,1,6,StimulusPr,Pictures\GreenRight.bmp,NonCuedStim4,Right
POP_2,16058,1,"<?xml version=""1.0""?>\n<Clock xmlns:dt=""urn:schemas-microsoft-com:datatypes""><Description dt:dt=""string"">E-Prime Primary Realtime Clock</Description><StartTime><Timestamp dt:dt=""int"">0</Timestamp><DateUtc dt:dt=""string"">2014-05-15T22:00:43Z</DateUtc></StartTime><FrequencyChanges><FrequencyChange><Frequency dt:dt=""r8"">2793030000</Frequency><Timestamp dt:dt=""r8"">1.9673372755229E+15</Timestamp><Current dt:dt=""r8"">0</Current><DateUtc dt:dt=""string"">2014-05-15T22:00:43Z</DateUtc></FrequencyChange></FrequencyChanges></Clock>\n",60.03,1,-2024692289,0,,-999999,5,142254,t,100172,242426,5/15/2014,15:00:43,,1,Session1,SessionsList,,,,,,,,,,1,1,1,4,,,,,,,,4,1,4,NonCued4,MiniBlocks2,,,,714769,7,1,b,-999999,8,820433,b,429,820862,Red,Incongruent,b,White,0,,0,10,816435,,0,0,,,,,,,,,,,,,Pictures\white.bmp,3000,16000,Pictures\RedLeft.bmp,,,,,,,,,,7,1,7,StimulusPr,Pictures\black.bmp,NonCuedStim4,Left
POP_2,16058,1,"<?xml version=""1.0""?>\n<Clock xmlns:dt=""urn:schemas-microsoft-com:datatypes""><Description dt:dt=""string"">E-Prime Primary Realtime Clock</Description><StartTime><Timestamp dt:dt=""int"">0</Timestamp><DateUtc dt:dt=""string"">2014-05-15T22:00:43Z</DateUtc></StartTime><FrequencyChanges><FrequencyChange><Frequency dt:dt=""r8"">2793030000</Frequency><Timestamp dt:dt=""r8"">1.9673372755229E+15</Timestamp><Current dt:dt=""r8"">0</Current><DateUtc dt:dt=""string"">2014-05-15T22:00:43Z</DateUtc></FrequencyChange></FrequencyChanges></Clock>\n",60.03,1,-2024692289,0,,-999999,5,142254,t,100172,242426,5/15/2014,15:00:43,,1,Session1,SessionsList,,,,,,,,,,1,1,1,4,,,,,,,,4,1,4,NonCued4,MiniBlocks2,,,,714769,8,1,r,-999999,13,842438,r,450,842888,Green,Congruent,r,White,0,,0,15,838440,,0,0,,,,,,,,,,,,,Pictures\white.bmp,3000,2000,Pictures\GreenLeft.bmp,,,,,,,,,,8,1,8,StimulusPr,Pictures\black.bmp,NonCuedStim4,Left
POP_2,16058,1,"<?xml version=""1.0""?>\n<Clock xmlns:dt=""urn:schemas-microsoft-com:datatypes""><Description dt:dt=""string"">E-Prime Primary Realtime Clock</Description><StartTime><Timestamp dt:dt=""int"">0</Timestamp><DateUtc dt:dt=""string"">2014-05-15T22:00:43Z</DateUtc></StartTime><FrequencyChanges><FrequencyChange><Frequency dt:dt=""r8"">2793030000</Frequency><Timestamp dt:dt=""r8"">1.9673372755229E+15</Timestamp><Current dt:dt=""r8"">0</Current><DateUtc dt:dt=""string"">2014-05-15T22:00:43Z</DateUtc></FrequencyChange></FrequencyChanges></Clock>\n",60.03,1,-2024692289,0,,-999999,5,142254,t,100172,242426,5/15/2014,15:00:43,,1,Session1,SessionsList,,,,,,,,,,1,1,1,4,,,,,,,,4,1,4,NonCued4,MiniBlocks2,,,,714769,9,1,b,-999999,8,853433,b,530,853963,Green,Congruent,b,White,0,,0,11,846436,,0,0,,,,,,,,,,,,,Pictures\white.bmp,6000,2000,Pictures\black.bmp,,,,,,,,,,9,1,9,StimulusPr,Pictures\GreenRight.bmp,NonCuedStim4,Right
POP_2,16058,1,"<?xml version=""1.0""?>\n<Clock xmlns:dt=""urn:schemas-microsoft-com:datatypes""><Description dt:dt=""string"">E-Prime Primary Realtime Clock</Description><StartTime><Timestamp dt:dt=""int"">0</Timestamp><DateUtc dt:dt=""string"">2014-05-15T22:00:43Z</DateUtc></StartTime><FrequencyChanges><FrequencyChange><Frequency dt:dt=""r8"">2793030000</Frequency><Timestamp dt:dt=""r8"">1.9673372755229E+15</Timestamp><Current dt:dt=""r8"">0</Current><DateUtc dt:dt=""string"">2014-05-15T22:00:43Z</DateUtc></FrequencyChange></FrequencyChanges></Clock>\n",60.03,1,-2024692289,0,,-999999,5,142254,t,100172,242426,5/15/2014,15:00:43,,1,Session1,SessionsList,,,,,,,,,,1,1,1,4,,,,,,,,4,1,4,NonCued4,MiniBlocks2,,,,714769,10,1,b,-999999,3,862428,b,415,862843,Green,Congruent,b,White,0,,0,6,857431,,0,0,,,,,,,,,,,,,Pictures\white.bmp,4000,4000,Pictures\black.bmp,,,,,,,,,,10,1,10,StimulusPr,Pictures\GreenRight.bmp,NonCuedStim4,Right
POP_2,16058,1,"<?xml version=""1.0""?>\n<Clock xmlns:dt=""urn:schemas-microsoft-com:datatypes""><Description dt:dt=""string"">E-Prime Primary Realtime Clock</Description><StartTime><Timestamp dt:dt=""int"">0</Timestamp><DateUtc dt:dt=""string"">2014-05-15T22:00:43Z</DateUtc></StartTime><FrequencyChanges><FrequencyChange><Frequency dt:dt=""r8"">2793030000</Frequency><Timestamp dt:dt=""r8"">1.9673372755229E+15</Timestamp><Current dt:dt=""r8"">0</Current><DateUtc dt:dt=""string"">2014-05-15T22:00:43Z</DateUtc></FrequencyChange></FrequencyChanges></Clock>\n",60.03,1,-2024692289,0,,-999999,5,142254,t,100172,242426,5/15/2014,15:00:43,,2,Session2,SessionsList,0,,-999999,18,881036,t,33570,914606,866859,2,1,2,1,914619,,,,1,1,1,,,,Cued1,MiniBlocks1,,,,,1,1,r,-999999,16,928612,r,297,928909,White,Congruent,r,Green,0,,0,8,923614,,0,0,1,1,1,,,,,,,,,,Pictures\green.bmp,4000,4000,Pictures\left.bmp,,,,,,,,,,,,,StimulusPr,Pictures\black.bmp,CuedStim1,Left
POP_2,16058,1,"<?xml version=""1.0""?>\n<Clock xmlns:dt=""urn:schemas-microsoft-com:datatypes""><Description dt:dt=""string"">E-Prime Primary Realtime Clock</Description><StartTime><Timestamp dt:dt=""int"">0</Timestamp><DateUtc dt:dt=""string"">2014-05-15T22:00:43Z</DateUtc></StartTime><FrequencyChanges><FrequencyChange><Frequency dt:dt=""r8"">2793030000</Frequency><Timestamp dt:dt=""r8"">1.9673372755229E+15</Timestamp><Current dt:dt=""r8"">0</Current><DateUtc dt:dt=""string"">2014-05-15T22:00:43Z</DateUtc></FrequencyChange></FrequencyChanges></Clock>\n",60.03,1,-2024692289,0,,-999999,5,142254,t,100172,242426,5/15/2014,15:00:43,,2,Session2,SessionsList,0,,-999999,18,881036,t,33570,914606,866859,2,1,2,1,914619,,,,1,1,1,,,,Cued1,MiniBlocks1,,,,,2,1,b,-999999,14,941605,b,258,941863,White,Congruent,b,Green,0,,0,3,934609,,0,0,2,1,2,,,,,,,,,,Pictures\green.bmp,6000,2000,Pictures\black.bmp,,,,,,,,,,,,,StimulusPr,Pictures\right.bmp,CuedStim1,Right
POP_2,16058,1,"<?xml version=""1.0""?>\n<Clock xmlns:dt=""urn:schemas-microsoft-com:datatypes""><Description dt:dt=""string"">E-Prime Primary Realtime Clock</Description><StartTime><Timestamp dt:dt=""int"">0</Timestamp><DateUtc dt:dt=""string"">2014-05-15T22:00:43Z</DateUtc></StartTime><FrequencyChanges><FrequencyChange><Frequency dt:dt=""r8"">2793030000</Frequency><Timestamp dt:dt=""r8"">1.9673372755229E+15</Timestamp><Current dt:dt=""r8"">0</Current><DateUtc dt:dt=""string"">2014-05-15T22:00:43Z</DateUtc></FrequencyChange></FrequencyChanges></Clock>\n",60.03,1,-2024692289,0,,-999999,5,142254,t,100172,242426,5/15/2014,15:00:43,,2,Session2,SessionsList,0,,-999999,18,881036,t,33570,914606,866859,2,1,2,1,914619,,,,1,1,1,,,,Cued1,MiniBlocks1,,,,,3,1,b,-999999,11,949601,b,288,949889,White,Congruent,b,Green,0,,0,16,945603,,0,0,3,1,3,,,,,,,,,,Pictures\green.bmp,3000,2000,Pictures\black.bmp,,,,,,,,,,,,,StimulusPr,Pictures\right.bmp,CuedStim1,Right
POP_2,16058,1,"<?xml version=""1.0""?>\n<Clock xmlns:dt=""urn:schemas-microsoft-com:datatypes""><Description dt:dt=""string"">E-Prime Primary Realtime Clock</Description><StartTime><Timestamp dt:dt=""int"">0</Timestamp><DateUtc dt:dt=""string"">2014-05-15T22:00:43Z</DateUtc></StartTime><FrequencyChanges><FrequencyChange><Frequency dt:dt=""r8"">2793030000</Frequency><Timestamp dt:dt=""r8"">1.9673372755229E+15</Timestamp><Current dt:dt=""r8"">0</Current><DateUtc dt:dt=""string"">2014-05-15T22:00:43Z</DateUtc></FrequencyChange></FrequencyChanges></Clock>\n",60.03,1,-2024692289,0,,-999999,5,142254,t,100172,242426,5/15/2014,15:00:43,,2,Session2,SessionsList,0,,-999999,18,881036,t,33570,914606,866859,2,1,2,1,914619,,,,1,1,1,,,,Cued1,MiniBlocks1,,,,,4,1,b,-999999,8,957614,b,381,957995,White,Incongruent,b,Red,0,,0,10,953616,,0,0,4,1,4,,,,,,,,,,Pictures\red.bmp,3000,16000,Pictures\left.bmp,,,,,,,,,,,,,StimulusPr,Pictures\black.bmp,CuedStim1,Left
POP_2,16058,1,"<?xml version=""1.0""?>\n<Clock xmlns:dt=""urn:schemas-microsoft-com:datatypes""><Description dt:dt=""string"">E-Prime Primary Realtime Clock</Description><StartTime><Timestamp dt:dt=""int"">0</Timestamp><DateUtc dt:dt=""string"">2014-05-15T22:00:43Z</DateUtc></StartTime><FrequencyChanges><FrequencyChange><Frequency dt:dt=""r8"">2793030000</Frequency><Timestamp dt:dt=""r8"">1.9673372755229E+15</Timestamp><Current dt:dt=""r8"">0</Current><DateUtc dt:dt=""string"">2014-05-15T22:00:43Z</DateUtc></FrequencyChange></FrequencyChanges></Clock>\n",60.03,1,-2024692289,0,,-999999,5,142254,t,100172,242426,5/15/2014,15:00:43,,2,Session2,SessionsList,0,,-999999,18,881036,t,33570,914606,866859,2,1,2,1,914619,,,,1,1,1,,,,Cued1,MiniBlocks1,,,,,5,1,r,-999999,14,979620,r,429,980049,White,Congruent,r,Green,0,,0,16,975622,,0,0,5,1,5,,,,,,,,,,Pictures\green.bmp,3000,16000,Pictures\left.bmp,,,,,,,,,,,,,StimulusPr,Pictures\black.bmp,CuedStim1,Left
POP_2,16058,1,"<?xml version=""1.0""?>\n<Clock xmlns:dt=""urn:schemas-microsoft-com:datatypes""><Description dt:dt=""string"">E-Prime Primary Realtime Clock</Description><StartTime><Timestamp dt:dt=""int"">0</Timestamp><DateUtc dt:dt=""string"">2014-05-15T22:00:43Z</DateUtc></StartTime><FrequencyChanges><FrequencyChange><Frequency dt:dt=""r8"">2793030000</Frequency><Timestamp dt:dt=""r8"">1.9673372755229E+15</Timestamp><Current dt:dt=""r8"">0</Current><DateUtc dt:dt=""string"">2014-05-15T22:00:43Z</DateUtc></FrequencyChange></FrequencyChanges></Clock>\n",60.03,1,-2024692289,0,,-999999,5,142254,t,100172,242426,5/15/2014,15:00:43,,2,Session2,SessionsList,0,,-999999,18,881036,t,33570,914606,866859,2,1,2,1,914619,,,,1,1,1,,,,Cued1,MiniBlocks1,,,,,6,1,r,-999999,18,1007623,r,298,1007921,White,Congruent,r,Green,0,,0,5,997611,,0,0,6,1,6,,,,,,,,,,Pictures\green.bmp,9000,10000,Pictures\left.bmp,,,,,,,,,,,,,StimulusPr,Pictures\black.bmp,CuedStim1,Left
POP_2,16058,1,"<?xml version=""1.0""?>\n<Clock xmlns:dt=""urn:schemas-microsoft-com:datatypes""><Description dt:dt=""string"">E-Prime Primary Realtime Clock</Description><StartTime><Timestamp dt:dt=""int"">0</Timestamp><DateUtc dt:dt=""string"">2014-05-15T22:00:43Z</DateUtc></StartTime><FrequencyChanges><FrequencyChange><Frequency dt:dt=""r8"">2793030000</Frequency><Timestamp dt:dt=""r8"">1.9673372755229E+15</Timestamp><Current dt:dt=""r8"">0</Current><DateUtc dt:dt=""string"">2014-05-15T22:00:43Z</DateUtc></FrequencyChange></FrequencyChanges></Clock>\n",60.03,1,-2024692289,0,,-999999,5,142254,t,100172,242426,5/15/2014,15:00:43,,2,Session2,SessionsList,0,,-999999,18,881036,t,33570,914606,866859,2,1,2,1,914619,,,,1,1,1,,,,Cued1,MiniBlocks1,,,,,7,1,b,-999999,10,1023615,b,355,1023970,White,Congruent,b,Green,0,,0,13,1019600,,0,0,7,1,7,,,,,,,,,,Pictures\green.bmp,3000,16000,Pictures\black.bmp,,,,,,,,,,,,,StimulusPr,Pictures\right.bmp,CuedStim1,Right
POP_2,16058,1,"<?xml version=""1.0""?>\n<Clock xmlns:dt=""urn:schemas-microsoft-com:datatypes""><Description dt:dt=""string"">E-Prime Primary Realtime Clock</Description><StartTime><Timestamp dt:dt=""int"">0</Timestamp><DateUtc dt:dt=""string"">2014-05-15T22:00:43Z</DateUtc></StartTime><FrequencyChanges><FrequencyChange><Frequency dt:dt=""r8"">2793030000</Frequency><Timestamp dt:dt=""r8"">1.9673372755229E+15</Timestamp><Current dt:dt=""r8"">0</Current><DateUtc dt:dt=""string"">2014-05-15T22:00:43Z</DateUtc></FrequencyChange></FrequencyChanges></Clock>\n",60.03,1,-2024692289,0,,-999999,5,142254,t,100172,242426,5/15/2014,15:00:43,,2,Session2,SessionsList,0,,-999999,18,881036,t,33570,914606,866859,2,1,2,1,914619,,,,1,1,1,,,,Cued1,MiniBlocks1,,,,,8,1,r,-999999,12,1046603,r,331,1046934,White,Incongruent,r,Red,0,,0,7,1041606,,0,0,8,1,8,,,,,,,,,,Pictures\red.bmp,4000,2000,Pictures\black.bmp,,,,,,,,,,,,,StimulusPr,Pictures\right.bmp,CuedStim1,Right
POP_2,16058,1,"<?xml version=""1.0""?>\n<Clock xmlns:dt=""urn:schemas-microsoft-com:datatypes""><Description dt:dt=""string"">E-Prime Primary Realtime Clock</Description><StartTime><Timestamp dt:dt=""int"">0</Timestamp><DateUtc dt:dt=""string"">2014-05-15T22:00:43Z</DateUtc></StartTime><FrequencyChanges><FrequencyChange><Frequency dt:dt=""r8"">2793030000</Frequency><Timestamp dt:dt=""r8"">1.9673372755229E+15</Timestamp><Current dt:dt=""r8"">0</Current><DateUtc dt:dt=""string"">2014-05-15T22:00:43Z</DateUtc></FrequencyChange></FrequencyChanges></Clock>\n",60.03,1,-2024692289,0,,-999999,5,142254,t,100172,242426,5/15/2014,15:00:43,,2,Session2,SessionsList,0,,-999999,18,881036,t,33570,914606,866859,2,1,2,1,914619,,,,1,1,1,,,,Cued1,MiniBlocks1,,,,,9,1,b,-999999,9,1055615,b,407,1056022,White,Congruent,b,Green,0,,0,12,1050618,,0,0,9,1,9,,,,,,,,,,Pictures\green.bmp,4000,2000,Pictures\black.bmp,,,,,,,,,,,,,StimulusPr,Pictures\right.bmp,CuedStim1,Right
POP_2,16058,1,"<?xml version=""1.0""?>\n<Clock xmlns:dt=""urn:schemas-microsoft-com:datatypes""><Description dt:dt=""string"">E-Prime Primary Realtime Clock</Description><StartTime><Timestamp dt:dt=""int"">0</Timestamp><DateUtc dt:dt=""string"">2014-05-15T22:00:43Z</DateUtc></StartTime><FrequencyChanges><FrequencyChange><Frequency dt:dt=""r8"">2793030000</Frequency><Timestamp dt:dt=""r8"">1.9673372755229E+15</Timestamp><Current dt:dt=""r8"">0</Current><DateUtc dt:dt=""string"">2014-05-15T22:00:43Z</DateUtc></FrequencyChange></FrequencyChanges></Clock>\n",60.03,1,-2024692289,0,,-999999,5,142254,t,100172,242426,5/15/2014,15:00:43,,2,Session2,SessionsList,0,,-999999,18,881036,t,33570,914606,866859,2,1,2,1,914619,,,,1,1,1,,,,Cued1,MiniBlocks1,,,,,10,1,r,-999999,5,1063611,r,333,1063944,White,Congruent,r,Green,0,,0,12,1059613,,0,0,10,1,10,,,,,,,,,,Pictures\green.bmp,3000,2000,Pictures\left.bmp,,,,,,,,,,,,,StimulusPr,Pictures\black.bmp,CuedStim1,Left
POP_2,16058,1,"<?xml version=""1.0""?>\n<Clock xmlns:dt=""urn:schemas-microsoft-com:datatypes""><Description dt:dt=""string"">E-Prime Primary Realtime Clock</Description><StartTime><Timestamp dt:dt=""int"">0</Timestamp><DateUtc dt:dt=""string"">2014-05-15T22:00:43Z</DateUtc></StartTime><FrequencyChanges><FrequencyChange><Frequency dt:dt=""r8"">2793030000</Frequency><Timestamp dt:dt=""r8"">1.9673372755229E+15</Timestamp><Current dt:dt=""r8"">0</Current><DateUtc dt:dt=""string"">2014-05-15T22:00:43Z</DateUtc></FrequencyChange></FrequencyChanges></Clock>\n",60.03,1,-2024692289,0,,-999999,5,142254,t,100172,242426,5/15/2014,15:00:43,,2,Session2,SessionsList,0,,-999999,18,881036,t,33570,914606,866859,2,1,2,2,,,,,2,1,2,,,,NonCued1,MiniBlocks1,1065977,,,,1,1,r,-999999,13,1080619,r,506,1081125,Green,Congruent,r,White,0,,0,16,1075622,,0,0,,,,,,,,,,,,,Pictures\white.bmp,4000,2000,Pictures\GreenLeft.bmp,1,1,1,,,,,,,,,,StimulusPr,Pictures\black.bmp,NonCuedStim1,Left
POP_2,16058,1,"<?xml version=""1.0""?>\n<Clock xmlns:dt=""urn:schemas-microsoft-com:datatypes""><Description dt:dt=""string"">E-Prime Primary Realtime Clock</Description><StartTime><Timestamp dt:dt=""int"">0</Timestamp><DateUtc dt:dt=""string"">2014-05-15T22:00:43Z</DateUtc></StartTime><FrequencyChanges><FrequencyChange><Frequency dt:dt=""r8"">2793030000</Frequency><Timestamp dt:dt=""r8"">1.9673372755229E+15</Timestamp><Current dt:dt=""r8"">0</Current><DateUtc dt:dt=""string"">2014-05-15T22:00:43Z</DateUtc></FrequencyChange></FrequencyChanges></Clock>\n",60.03,1,-2024692289,0,,-999999,5,142254,t,100172,242426,5/15/2014,15:00:43,,2,Session2,SessionsList,0,,-999999,18,881036,t,33570,914606,866859,2,1,2,2,,,,,2,1,2,,,,NonCued1,MiniBlocks1,1065977,,,,2,1,b,-999999,18,1091614,b,497,1092111,Green,Congruent,b,White,0,,0,11,1084617,,0,0,,,,,,,,,,,,,Pictures\white.bmp,6000,16000,Pictures\black.bmp,2,1,2,,,,,,,,,,StimulusPr,Pictures\GreenRight.bmp,NonCuedStim1,Right
POP_2,16058,1,"<?xml version=""1.0""?>\n<Clock xmlns:dt=""urn:schemas-microsoft-com:datatypes""><Description dt:dt=""string"">E-Prime Primary Realtime Clock</Description><StartTime><Timestamp dt:dt=""int"">0</Timestamp><DateUtc dt:dt=""string"">2014-05-15T22:00:43Z</DateUtc></StartTime><FrequencyChanges><FrequencyChange><Frequency dt:dt=""r8"">2793030000</Frequency><Timestamp dt:dt=""r8"">1.9673372755229E+15</Timestamp><Current dt:dt=""r8"">0</Current><DateUtc dt:dt=""string"">2014-05-15T22:00:43Z</DateUtc></FrequencyChange></FrequencyChanges></Clock>\n",60.03,1,-2024692289,0,,-999999,5,142254,t,100172,242426,5/15/2014,15:00:43,,2,Session2,SessionsList,0,,-999999,18,881036,t,33570,914606,866859,2,1,2,2,,,,,2,1,2,,,,NonCued1,MiniBlocks1,1065977,,,,3,1,r,-999999,12,1116618,r,334,1116952,Red,Incongruent,r,White,0,,0,17,1109622,,0,0,,,,,,,,,,,,,Pictures\white.bmp,6000,10000,Pictures\black.bmp,3,1,3,,,,,,,,,,StimulusPr,Pictures\RedRight.bmp,NonCuedStim1,Right
POP_2,16058,1,"<?xml version=""1.0""?>\n<Clock xmlns:dt=""urn:schemas-microsoft-com:datatypes""><Description dt:dt=""string"">E-Prime Primary Realtime Clock</Description><StartTime><Timestamp dt:dt=""int"">0</Timestamp><DateUtc dt:dt=""string"">2014-05-15T22:00:43Z</DateUtc></StartTime><FrequencyChanges><FrequencyChange><Frequency dt:dt=""r8"">2793030000</Frequency><Timestamp dt:dt=""r8"">1.9673372755229E+15</Timestamp><Current dt:dt=""r8"">0</Current><DateUtc dt:dt=""string"">2014-05-15T22:00:43Z</DateUtc></FrequencyChange></FrequencyChanges></Clock>\n",60.03,1,-2024692289,0,,-999999,5,142254,t,100172,242426,5/15/2014,15:00:43,,2,Session2,SessionsList,0,,-999999,18,881036,t,33570,914606,866859,2,1,2,2,,,,,2,1,2,,,,NonCued1,MiniBlocks1,1065977,,,,4,1,r,-999999,18,1138624,r,508,1139132,Green,Congruent,r,White,0,,0,9,1128612,,0,0,,,,,,,,,,,,,Pictures\white.bmp,9000,10000,Pictures\GreenLeft.bmp,4,1,4,,,,,,,,,,StimulusPr,Pictures\black.bmp,NonCuedStim1,Left
POP_2,16058,1,"<?xml version=""1.0""?>\n<Clock xmlns:dt=""urn:schemas-microsoft-com:datatypes""><Description dt:dt=""string"">E-Prime Primary Realtime Clock</Description><StartTime><Timestamp dt:dt=""int"">0</Timestamp><DateUtc dt:dt=""string"">2014-05-15T22:00:43Z</DateUtc></StartTime><FrequencyChanges><FrequencyChange><Frequency dt:dt=""r8"">2793030000</Frequency><Timestamp dt:dt=""r8"">1.9673372755229E+15</Timestamp><Current dt:dt=""r8"">0</Current><DateUtc dt:dt=""string"">2014-05-15T22:00:43Z</DateUtc></FrequencyChange></FrequencyChanges></Clock>\n",60.03,1,-2024692289,0,,-999999,5,142254,t,100172,242426,5/15/2014,15:00:43,,2,Session2,SessionsList,0,,-999999,18,881036,t,33570,914606,866859,2,1,2,2,,,,,2,1,2,,,,NonCued1,MiniBlocks1,1065977,,,,5,1,b,-999999,7,1154599,b,448,1155047,Green,Congruent,b,White,0,,0,12,1150618,,0,0,,,,,,,,,,,,,Pictures\white.bmp,3000,2000,Pictures\black.bmp,5,1,5,,,,,,,,,,StimulusPr,Pictures\GreenRight.bmp,NonCuedStim1,Right
POP_2,16058,1,"<?xml version=""1.0""?>\n<Clock xmlns:dt=""urn:schemas-microsoft-com:datatypes""><Description dt:dt=""string"">E-Prime Primary Realtime Clock</Description><StartTime><Timestamp dt:dt=""int"">0</Timestamp><DateUtc dt:dt=""string"">2014-05-15T22:00:43Z</DateUtc></StartTime><FrequencyChanges><FrequencyChange><Frequency dt:dt=""r8"">2793030000</Frequency><Timestamp dt:dt=""r8"">1.9673372755229E+15</Timestamp><Current dt:dt=""r8"">0</Current><DateUtc dt:dt=""string"">2014-05-15T22:00:43Z</DateUtc></FrequencyChange></FrequencyChanges></Clock>\n",60.03,1,-2024692289,0,,-999999,5,142254,t,100172,242426,5/15/2014,15:00:43,,2,Session2,SessionsList,0,,-999999,18,881036,t,33570,914606,866859,2,1,2,2,,,,,2,1,2,,,,NonCued1,MiniBlocks1,1065977,,,,6,1,b,-999999,5,1163611,b,350,1163961,Red,Incongruent,b,White,0,,0,2,1158597,,0,0,,,,,,,,,,,,,Pictures\white.bmp,4000,16000,Pictures\RedLeft.bmp,6,1,6,,,,,,,,,,StimulusPr,Pictures\black.bmp,NonCuedStim1,Left
POP_2,16058,1,"<?xml version=""1.0""?>\n<Clock xmlns:dt=""urn:schemas-microsoft-com:datatypes""><Description dt:dt=""string"">E-Prime Primary Realtime Clock</Description><StartTime><Timestamp dt:dt=""int"">0</Timestamp><DateUtc dt:dt=""string"">2014-05-15T22:00:43Z</DateUtc></StartTime><FrequencyChanges><FrequencyChange><Frequency dt:dt=""r8"">2793030000</Frequency><Timestamp dt:dt=""r8"">1.9673372755229E+15</Timestamp><Current dt:dt=""r8"">0</Current><DateUtc dt:dt=""string"">2014-05-15T22:00:43Z</DateUtc></FrequencyChange></FrequencyChanges></Clock>\n",60.03,1,-2024692289,0,,-999999,5,142254,t,100172,242426,5/15/2014,15:00:43,,2,Session2,SessionsList,0,,-999999,18,881036,t,33570,914606,866859,2,1,2,2,,,,,2,1,2,,,,NonCued1,MiniBlocks1,1065977,,,,7,1,b,-999999,11,1185617,b,489,1186106,Green,Congruent,b,White,0,,0,13,1181619,,0,0,,,,,,,,,,,,,Pictures\white.bmp,3000,4000,Pictures\black.bmp,7,1,7,,,,,,,,,,StimulusPr,Pictures\GreenRight.bmp,NonCuedStim1,Right
POP_2,16058,1,"<?xml version=""1.0""?>\n<Clock xmlns:dt=""urn:schemas-microsoft-com:datatypes""><Description dt:dt=""string"">E-Prime Primary Realtime Clock</Description><StartTime><Timestamp dt:dt=""int"">0</Timestamp><DateUtc dt:dt=""string"">2014-05-15T22:00:43Z</DateUtc></StartTime><FrequencyChanges><FrequencyChange><Frequency dt:dt=""r8"">2793030000</Frequency><Timestamp dt:dt=""r8"">1.9673372755229E+15</Timestamp><Current dt:dt=""r8"">0</Current><DateUtc dt:dt=""string"">2014-05-15T22:00:43Z</DateUtc></FrequencyChange></FrequencyChanges></Clock>\n",60.03,1,-2024692289,0,,-999999,5,142254,t,100172,242426,5/15/2014,15:00:43,,2,Session2,SessionsList,0,,-999999,18,881036,t,33570,914606,866859,2,1,2,2,,,,,2,1,2,,,,NonCued1,MiniBlocks1,1065977,,,,8,1,b,-999999,7,1195612,b,499,1196111,Green,Congruent,b,White,0,,0,10,1191614,,0,0,,,,,,,,,,,,,Pictures\white.bmp,3000,4000,Pictures\black.bmp,8,1,8,,,,,,,,,,StimulusPr,Pictures\GreenRight.bmp,NonCuedStim1,Right
POP_2,16058,1,"<?xml version=""1.0""?>\n<Clock xmlns:dt=""urn:schemas-microsoft-com:datatypes""><Description dt:dt=""string"">E-Prime Primary Realtime Clock</Description><StartTime><Timestamp dt:dt=""int"">0</Timestamp><DateUtc dt:dt=""string"">2014-05-15T22:00:43Z</DateUtc></StartTime><FrequencyChanges><FrequencyChange><Frequency dt:dt=""r8"">2793030000</Frequency><Timestamp dt:dt=""r8"">1.9673372755229E+15</Timestamp><Current dt:dt=""r8"">0</Current><DateUtc dt:dt=""string"">2014-05-15T22:00:43Z</DateUtc></FrequencyChange></FrequencyChanges></Clock>\n",60.03,1,-2024692289,0,,-999999,5,142254,t,100172,242426,5/15/2014,15:00:43,,2,Session2,SessionsList,0,,-999999,18,881036,t,33570,914606,866859,2,1,2,2,,,,,2,1,2,,,,NonCued1,MiniBlocks1,1065977,,,,9,1,b,-999999,15,1211621,b,322,1211943,Red,Incongruent,b,White,0,,0,6,1201609,,0,0,,,,,,,,,,,,,Pictures\white.bmp,9000,2000,Pictures\RedLeft.bmp,9,1,9,,,,,,,,,,StimulusPr,Pictures\black.bmp,NonCuedStim1,Left
POP_2,16058,1,"<?xml version=""1.0""?>\n<Clock xmlns:dt=""urn:schemas-microsoft-com:datatypes""><Description dt:dt=""string"">E-Prime Primary Realtime Clock</Description><StartTime><Timestamp dt:dt=""int"">0</Timestamp><DateUtc dt:dt=""string"">2014-05-15T22:00:43Z</DateUtc></StartTime><FrequencyChanges><FrequencyChange><Frequency dt:dt=""r8"">2793030000</Frequency><Timestamp dt:dt=""r8"">1.9673372755229E+15</Timestamp><Current dt:dt=""r8"">0</Current><DateUtc dt:dt=""string"">2014-05-15T22:00:43Z</DateUtc></FrequencyChange></FrequencyChanges></Clock>\n",60.03,1,-2024692289,0,,-999999,5,142254,t,100172,242426,5/15/2014,15:00:43,,2,Session2,SessionsList,0,,-999999,18,881036,t,33570,914606,866859,2,1,2,2,,,,,2,1,2,,,,NonCued1,MiniBlocks1,1065977,,,,10,1,r,-999999,9,1222615,r,509,1223124,Green,Congruent,r,White,0,,0,13,1215619,,0,0,,,,,,,,,,,,,Pictures\white.bmp,6000,2000,Pictures\GreenLeft.bmp,10,1,10,,,,,,,,,,StimulusPr,Pictures\black.bmp,NonCuedStim1,Left
POP_2,16058,1,"<?xml version=""1.0""?>\n<Clock xmlns:dt=""urn:schemas-microsoft-com:datatypes""><Description dt:dt=""string"">E-Prime Primary Realtime Clock</Description><StartTime><Timestamp dt:dt=""int"">0</Timestamp><DateUtc dt:dt=""string"">2014-05-15T22:00:43Z</DateUtc></StartTime><FrequencyChanges><FrequencyChange><Frequency dt:dt=""r8"">2793030000</Frequency><Timestamp dt:dt=""r8"">1.9673372755229E+15</Timestamp><Current dt:dt=""r8"">0</Current><DateUtc dt:dt=""string"">2014-05-15T22:00:43Z</DateUtc></FrequencyChange></FrequencyChanges></Clock>\n",60.03,1,-2024692289,0,,-999999,5,142254,t,100172,242426,5/15/2014,15:00:43,,2,Session2,SessionsList,0,,-999999,18,881036,t,33570,914606,866859,2,1,2,3,,,,,3,1,3,,,,NonCued2,MiniBlocks1,,1225147,,,1,1,b,-999999,5,1245604,b,513,1246117,Green,Congruent,b,White,0,,0,3,1235609,,0,0,,,,,,,,,,,,,Pictures\white.bmp,9000,10000,Pictures\black.bmp,,,,1,1,1,,,,,,,StimulusPr,Pictures\GreenRight.bmp,NonCuedStim2,Right
POP_2,16058,1,"<?xml version=""1.0""?>\n<Clock xmlns:dt=""urn:schemas-microsoft-com:datatypes""><Description dt:dt=""string"">E-Prime Primary Realtime Clock</Description><StartTime><Timestamp dt:dt=""int"">0</Timestamp><DateUtc dt:dt=""string"">2014-05-15T22:00:43Z</DateUtc></StartTime><FrequencyChanges><FrequencyChange><Frequency dt:dt=""r8"">2793030000</Frequency><Timestamp dt:dt=""r8"">1.9673372755229E+15</Timestamp><Current dt:dt=""r8"">0</Current><DateUtc dt:dt=""string"">2014-05-15T22:00:43Z</DateUtc></FrequencyChange></FrequencyChanges></Clock>\n",60.03,1,-2024692289,0,,-999999,5,142254,t,100172,242426,5/15/2014,15:00:43,,2,Session2,SessionsList,0,,-999999,18,881036,t,33570,914606,866859,2,1,2,3,,,,,3,1,3,,,,NonCued2,MiniBlocks1,,1225147,,,2,1,r,-999999,6,1261612,r,482,1262094,Green,Congruent,r,White,0,,0,8,1257614,,0,0,,,,,,,,,,,,,Pictures\white.bmp,3000,2000,Pictures\GreenLeft.bmp,,,,2,1,2,,,,,,,StimulusPr,Pictures\black.bmp,NonCuedStim2,Left
POP_2,16058,1,"<?xml version=""1.0""?>\n<Clock xmlns:dt=""urn:schemas-microsoft-com:datatypes""><Description dt:dt=""string"">E-Prime Primary Realtime Clock</Description><StartTime><Timestamp dt:dt=""int"">0</Timestamp><DateUtc dt:dt=""string"">2014-05-15T22:00:43Z</DateUtc></StartTime><FrequencyChanges><FrequencyChange><Frequency dt:dt=""r8"">2793030000</Frequency><Timestamp dt:dt=""r8"">1.9673372755229E+15</Timestamp><Current dt:dt=""r8"">0</Current><DateUtc dt:dt=""string"">2014-05-15T22:00:43Z</DateUtc></FrequencyChange></FrequencyChanges></Clock>\n",60.03,1,-2024692289,0,,-999999,5,142254,t,100172,242426,5/15/2014,15:00:43,,2,Session2,SessionsList,0,,-999999,18,881036,t,33570,914606,866859,2,1,2,3,,,,,3,1,3,,,,NonCued2,MiniBlocks1,,1225147,,,3,1,r,-999999,12,1269608,r,356,1269964,Red,Incongruent,r,White,0,,0,4,1265610,,0,0,,,,,,,,,,,,,Pictures\white.bmp,3000,2000,Pictures\black.bmp,,,,3,1,3,,,,,,,StimulusPr,Pictures\RedRight.bmp,NonCuedStim2,Right
POP_2,16058,1,"<?xml version=""1.0""?>\n<Clock xmlns:dt=""urn:schemas-microsoft-com:datatypes""><Description dt:dt=""string"">E-Prime Primary Realtime Clock</Description><StartTime><Timestamp dt:dt=""int"">0</Timestamp><DateUtc dt:dt=""string"">2014-05-15T22:00:43Z</DateUtc></StartTime><FrequencyChanges><FrequencyChange><Frequency dt:dt=""r8"">2793030000</Frequency><Timestamp dt:dt=""r8"">1.9673372755229E+15</Timestamp><Current dt:dt=""r8"">0</Current><DateUtc dt:dt=""string"">2014-05-15T22:00:43Z</DateUtc></FrequencyChange></FrequencyChanges></Clock>\n",60.03,1,-2024692289,0,,-999999,5,142254,t,100172,242426,5/15/2014,15:00:43,,2,Session2,SessionsList,0,,-999999,18,881036,t,33570,914606,866859,2,1,2,3,,,,,3,1,3,,,,NonCued2,MiniBlocks1,,1225147,,,4,1,r,-999999,15,1278621,r,501,1279122,Green,Congruent,r,White,0,,0,17,1273623,,0,0,,,,,,,,,,,,,Pictures\white.bmp,4000,16000,Pictures\GreenLeft.bmp,,,,4,1,4,,,,,,,StimulusPr,Pictures\black.bmp,NonCuedStim2,Left
POP_2,16058,1,"<?xml version=""1.0""?>\n<Clock xmlns:dt=""urn:schemas-microsoft-com:datatypes""><Description dt:dt=""string"">E-Prime Primary Realtime Clock</Description><StartTime><Timestamp dt:dt=""int"">0</Timestamp><DateUtc dt:dt=""string"">2014-05-15T22:00:43Z</DateUtc></StartTime><FrequencyChanges><FrequencyChange><Frequency dt:dt=""r8"">2793030000</Frequency><Timestamp dt:dt=""r8"">1.9673372755229E+15</Timestamp><Current dt:dt=""r8"">0</Current><DateUtc dt:dt=""string"">2014-05-15T22:00:43Z</DateUtc></FrequencyChange></FrequencyChanges></Clock>\n",60.03,1,-2024692289,0,,-999999,5,142254,t,100172,242426,5/15/2014,15:00:43,,2,Session2,SessionsList,0,,-999999,18,881036,t,33570,914606,866859,2,1,2,3,,,,,3,1,3,,,,NonCued2,MiniBlocks1,,1225147,,,5,1,r,-999999,19,1303625,r,437,1304062,Green,Congruent,r,White,0,,0,6,1296612,,0,0,,,,,,,,,,,,,Pictures\white.bmp,6000,4000,Pictures\GreenLeft.bmp,,,,5,1,5,,,,,,,StimulusPr,Pictures\black.bmp,NonCuedStim2,Left
POP_2,16058,1,"<?xml version=""1.0""?>\n<Clock xmlns:dt=""urn:schemas-microsoft-com:datatypes""><Description dt:dt=""string"">E-Prime Primary Realtime Clock</Description><StartTime><Timestamp dt:dt=""int"">0</Timestamp><DateUtc dt:dt=""string"">2014-05-15T22:00:43Z</DateUtc></StartTime><FrequencyChanges><FrequencyChange><Frequency dt:dt=""r8"">2793030000</Frequency><Timestamp dt:dt=""r8"">1.9673372755229E+15</Timestamp><Current dt:dt=""r8"">0</Current><DateUtc dt:dt=""string"">2014-05-15T22:00:43Z</DateUtc></FrequencyChange></FrequencyChanges></Clock>\n",60.03,1,-2024692289,0,,-999999,5,142254,t,100172,242426,5/15/2014,15:00:43,,2,Session2,SessionsList,0,,-999999,18,881036,t,33570,914606,866859,2,1,2,3,,,,,3,1,3,,,,NonCued2,MiniBlocks1,,1225147,,,6,1,b,-999999,14,1313620,b,565,1314185,Red,Incongruent,b,White,0,,0,16,1309622,,0,0,,,,,,,,,,,,,Pictures\white.bmp,3000,4000,Pictures\RedLeft.bmp,,,,6,1,6,,,,,,,StimulusPr,Pictures\black.bmp,NonCuedStim2,Left
POP_2,16058,1,"<?xml version=""1.0""?>\n<Clock xmlns:dt=""urn:schemas-microsoft-com:datatypes""><Description dt:dt=""string"">E-Prime Primary Realtime Clock</Description><StartTime><Timestamp dt:dt=""int"">0</Timestamp><DateUtc dt:dt=""string"">2014-05-15T22:00:43Z</DateUtc></StartTime><FrequencyChanges><FrequencyChange><Frequency dt:dt=""r8"">2793030000</Frequency><Timestamp dt:dt=""r8"">1.9673372755229E+15</Timestamp><Current dt:dt=""r8"">0</Current><DateUtc dt:dt=""string"">2014-05-15T22:00:43Z</DateUtc></FrequencyChange></FrequencyChanges></Clock>\n",60.03,1,-2024692289,0,,-999999,5,142254,t,100172,242426,5/15/2014,15:00:43,,2,Session2,SessionsList,0,,-999999,18,881036,t,33570,914606,866859,2,1,2,3,,,,,3,1,3,,,,NonCued2,MiniBlocks1,,1225147,,,7,1,b,-999999,8,1324614,b,480,1325094,Green,Congruent,b,White,0,,0,11,1319617,,0,0,,,,,,,,,,,,,Pictures\white.bmp,4000,16000,Pictures\black.bmp,,,,7,1,7,,,,,,,StimulusPr,Pictures\GreenRight.bmp,NonCuedStim2,Right
POP_2,16058,1,"<?xml version=""1.0""?>\n<Clock xmlns:dt=""urn:schemas-microsoft-com:datatypes""><Description dt:dt=""string"">E-Prime Primary Realtime Clock</Description><StartTime><Timestamp dt:dt=""int"">0</Timestamp><DateUtc dt:dt=""string"">2014-05-15T22:00:43Z</DateUtc></StartTime><FrequencyChanges><FrequencyChange><Frequency dt:dt=""r8"">2793030000</Frequency><Timestamp dt:dt=""r8"">1.9673372755229E+15</Timestamp><Current dt:dt=""r8"">0</Current><DateUtc dt:dt=""string"">2014-05-15T22:00:43Z</DateUtc></FrequencyChange></FrequencyChanges></Clock>\n",60.03,1,-2024692289,0,,-999999,5,142254,t,100172,242426,5/15/2014,15:00:43,,2,Session2,SessionsList,0,,-999999,18,881036,t,33570,914606,866859,2,1,2,3,,,,,3,1,3,,,,NonCued2,MiniBlocks1,,1225147,,,8,1,r,-999999,11,1352617,r,463,1353080,Green,Congruent,r,White,0,,0,16,1342622,,0,0,,,,,,,,,,,,,Pictures\white.bmp,9000,2000,Pictures\GreenLeft.bmp,,,,8,1,8,,,,,,,StimulusPr,Pictures\black.bmp,NonCuedStim2,Left
POP_2,16058,1,"<?xml version=""1.0""?>\n<Clock xmlns:dt=""urn:schemas-microsoft-com:datatypes""><Description dt:dt=""string"">E-Prime Primary Realtime Clock</Description><StartTime><Timestamp dt:dt=""int"">0</Timestamp><DateUtc dt:dt=""string"">2014-05-15T22:00:43Z</DateUtc></StartTime><FrequencyChanges><FrequencyChange><Frequency dt:dt=""r8"">2793030000</Frequency><Timestamp dt:dt=""r8"">1.9673372755229E+15</Timestamp><Current dt:dt=""r8"">0</Current><DateUtc dt:dt=""string"">2014-05-15T22:00:43Z</DateUtc></FrequencyChange></FrequencyChanges></Clock>\n",60.03,1,-2024692289,0,,-999999,5,142254,t,100172,242426,5/15/2014,15:00:43,,2,Session2,SessionsList,0,,-999999,18,881036,t,33570,914606,866859,2,1,2,3,,,,,3,1,3,,,,NonCued2,MiniBlocks1,,1225147,,,9,1,b,-999999,7,1360613,b,318,1360931,Green,Congruent,b,White,0,,0,9,1356615,,0,0,,,,,,,,,,,,,Pictures\white.bmp,3000,10000,Pictures\black.bmp,,,,9,1,9,,,,,,,StimulusPr,Pictures\GreenRight.bmp,NonCuedStim2,Right
POP_2,16058,1,"<?xml version=""1.0""?>\n<Clock xmlns:dt=""urn:schemas-microsoft-com:datatypes""><Description dt:dt=""string"">E-Prime Primary Realtime Clock</Description><StartTime><Timestamp dt:dt=""int"">0</Timestamp><DateUtc dt:dt=""string"">2014-05-15T22:00:43Z</DateUtc></StartTime><FrequencyChanges><FrequencyChange><Frequency dt:dt=""r8"">2793030000</Frequency><Timestamp dt:dt=""r8"">1.9673372755229E+15</Timestamp><Current dt:dt=""r8"">0</Current><DateUtc dt:dt=""string"">2014-05-15T22:00:43Z</DateUtc></FrequencyChange></FrequencyChanges></Clock>\n",60.03,1,-2024692289,0,,-999999,5,142254,t,100172,242426,5/15/2014,15:00:43,,2,Session2,SessionsList,0,,-999999,18,881036,t,33570,914606,866859,2,1,2,3,,,,,3,1,3,,,,NonCued2,MiniBlocks1,,1225147,,,10,1,b,-999999,15,1376622,b,522,1377144,Green,Congruent,b,White,0,,0,15,1372607,,0,0,,,,,,,,,,,,,Pictures\white.bmp,3000,2000,Pictures\black.bmp,,,,10,1,10,,,,,,,StimulusPr,Pictures\GreenRight.bmp,NonCuedStim2,Right
POP_2,16058,1,"<?xml version=""1.0""?>\n<Clock xmlns:dt=""urn:schemas-microsoft-com:datatypes""><Description dt:dt=""string"">E-Prime Primary Realtime Clock</Description><StartTime><Timestamp dt:dt=""int"">0</Timestamp><DateUtc dt:dt=""string"">2014-05-15T22:00:43Z</DateUtc></StartTime><FrequencyChanges><FrequencyChange><Frequency dt:dt=""r8"">2793030000</Frequency><Timestamp dt:dt=""r8"">1.9673372755229E+15</Timestamp><Current dt:dt=""r8"">0</Current><DateUtc dt:dt=""string"">2014-05-15T22:00:43Z</DateUtc></FrequencyChange></FrequencyChanges></Clock>\n",60.03,1,-2024692289,0,,-999999,5,142254,t,100172,242426,5/15/2014,15:00:43,,2,Session2,SessionsList,0,,-999999,18,881036,t,33570,914606,866859,2,1,2,4,,1379170,,,4,1,4,,,,Cued2,MiniBlocks1,,,,,1,1,b,-999999,6,1396612,b,285,1396897,White,Congruent,b,Green,0,,0,3,1389599,,0,0,,,,1,1,1,,,,,,,Pictures\green.bmp,6000,4000,Pictures\black.bmp,,,,,,,,,,,,,StimulusPr,Pictures\right.bmp,CuedStim2,Right
POP_2,16058,1,"<?xml version=""1.0""?>\n<Clock xmlns:dt=""urn:schemas-microsoft-com:datatypes""><Description dt:dt=""string"">E-Prime Primary Realtime Clock</Description><StartTime><Timestamp dt:dt=""int"">0</Timestamp><DateUtc dt:dt=""string"">2014-05-15T22:00:43Z</DateUtc></StartTime><FrequencyChanges><FrequencyChange><Frequency dt:dt=""r8"">2793030000</Frequency><Timestamp dt:dt=""r8"">1.9673372755229E+15</Timestamp><Current dt:dt=""r8"">0</Current><DateUtc dt:dt=""string"">2014-05-15T22:00:43Z</DateUtc></FrequencyChange></FrequencyChanges></Clock>\n",60.03,1,-2024692289,0,,-999999,5,142254,t,100172,242426,5/15/2014,15:00:43,,2,Session2,SessionsList,0,,-999999,18,881036,t,33570,914606,866859,2,1,2,4,,1379170,,,4,1,4,,,,Cued2,MiniBlocks1,,,,,2,1,b,-999999,9,1412604,b,314,1412918,White,Congruent,b,Green,0,,0,3,1402609,,0,0,,,,2,1,2,,,,,,,Pictures\green.bmp,9000,10000,Pictures\black.bmp,,,,,,,,,,,,,StimulusPr,Pictures\right.bmp,CuedStim2,Right
POP_2,16058,1,"<?xml version=""1.0""?>\n<Clock xmlns:dt=""urn:schemas-microsoft-com:datatypes""><Description dt:dt=""string"">E-Prime Primary Realtime Clock</Description><StartTime><Timestamp dt:dt=""int"">0</Timestamp><DateUtc dt:dt=""string"">2014-05-15T22:00:43Z</DateUtc></StartTime><FrequencyChanges><FrequencyChange><Frequency dt:dt=""r8"">2793030000</Frequency><Timestamp dt:dt=""r8"">1.9673372755229E+15</Timestamp><Current dt:dt=""r8"">0</Current><DateUtc dt:dt=""string"">2014-05-15T22:00:43Z</DateUtc></FrequencyChange></FrequencyChanges></Clock>\n",60.03,1,-2024692289,0,,-999999,5,142254,t,100172,242426,5/15/2014,15:00:43,,2,Session2,SessionsList,0,,-999999,18,881036,t,33570,914606,866859,2,1,2,4,,1379170,,,4,1,4,,,,Cued2,MiniBlocks1,,,,,3,1,r,-999999,3,1428596,r,404,1429000,White,Incongruent,r,Red,0,,0,8,1424614,,0,0,,,,3,1,3,,,,,,,Pictures\red.bmp,3000,2000,Pictures\black.bmp,,,,,,,,,,,,,StimulusPr,Pictures\right.bmp,CuedStim2,Right
POP_2,16058,1,"<?xml version=""1.0""?>\n<Clock xmlns:dt=""urn:schemas-microsoft-com:datatypes""><Description dt:dt=""string"">E-Prime Primary Realtime Clock</Description><StartTime><Timestamp dt:dt=""int"">0</Timestamp><DateUtc dt:dt=""string"">2014-05-15T22:00:43Z</DateUtc></StartTime><FrequencyChanges><FrequencyChange><Frequency dt:dt=""r8"">2793030000</Frequency><Timestamp dt:dt=""r8"">1.9673372755229E+15</Timestamp><Current dt:dt=""r8"">0</Current><DateUtc dt:dt=""string"">2014-05-15T22:00:43Z</DateUtc></FrequencyChange></FrequencyChanges></Clock>\n",60.03,1,-2024692289,0,,-999999,5,142254,t,100172,242426,5/15/2014,15:00:43,,2,Session2,SessionsList,0,,-999999,18,881036,t,33570,914606,866859,2,1,2,4,,1379170,,,4,1,4,,,,Cued2,MiniBlocks1,,,,,4,1,r,-999999,18,1439624,r,364,1439988,White,Congruent,r,Green,0,,0,3,1432610,,0,0,,,,4,1,4,,,,,,,Pictures\green.bmp,6000,16000,Pictures\left.bmp,,,,,,,,,,,,,StimulusPr,Pictures\black.bmp,CuedStim2,Left
POP_2,16058,1,"<?xml version=""1.0""?>\n<Clock xmlns:dt=""urn:schemas-microsoft-com:datatypes""><Description dt:dt=""string"">E-Prime Primary Realtime Clock</Description><StartTime><Timestamp dt:dt=""int"">0</Timestamp><DateUtc dt:dt=""string"">2014-05-15T22:00:43Z</DateUtc></StartTime><FrequencyChanges><FrequencyChange><Frequency dt:dt=""r8"">2793030000</Frequency><Timestamp dt:dt=""r8"">1.9673372755229E+15</Timestamp><Current dt:dt=""r8"">0</Current><DateUtc dt:dt=""string"">2014-05-15T22:00:43Z</DateUtc></FrequencyChange></FrequencyChanges></Clock>\n",60.03,1,-2024692289,0,,-999999,5,142254,t,100172,242426,5/15/2014,15:00:43,,2,Session2,SessionsList,0,,-999999,18,881036,t,33570,914606,866859,2,1,2,4,,1379170,,,4,1,4,,,,Cued2,MiniBlocks1,,,,,5,1,b,-999999,7,1461613,b,345,1461958,White,Congruent,b,Green,0,,0,15,1457615,,0,0,,,,5,1,5,,,,,,,Pictures\green.bmp,3000,2000,Pictures\black.bmp,,,,,,,,,,,,,StimulusPr,Pictures\right.bmp,CuedStim2,Right
POP_2,16058,1,"<?xml version=""1.0""?>\n<Clock xmlns:dt=""urn:schemas-microsoft-com:datatypes""><Description dt:dt=""string"">E-Prime Primary Realtime Clock</Description><StartTime><Timestamp dt:dt=""int"">0</Timestamp><DateUtc dt:dt=""string"">2014-05-15T22:00:43Z</DateUtc></StartTime><FrequencyChanges><FrequencyChange><Frequency dt:dt=""r8"">2793030000</Frequency><Timestamp dt:dt=""r8"">1.9673372755229E+15</Timestamp><Current dt:dt=""r8"">0</Current><DateUtc dt:dt=""string"">2014-05-15T22:00:43Z</DateUtc></FrequencyChange></FrequencyChanges></Clock>\n",60.03,1,-2024692289,0,,-999999,5,142254,t,100172,242426,5/15/2014,15:00:43,,2,Session2,SessionsList,0,,-999999,18,881036,t,33570,914606,866859,2,1,2,4,,1379170,,,4,1,4,,,,Cued2,MiniBlocks1,,,,,6,1,r,-999999,3,1469609,r,337,1469946,White,Congruent,r,Green,0,,0,5,1465611,,0,0,,,,6,1,6,,,,,,,Pictures\green.bmp,3000,2000,Pictures\left.bmp,,,,,,,,,,,,,StimulusPr,Pictures\black.bmp,CuedStim2,Left
POP_2,16058,1,"<?xml version=""1.0""?>\n<Clock xmlns:dt=""urn:schemas-microsoft-com:datatypes""><Description dt:dt=""string"">E-Prime Primary Realtime Clock</Description><StartTime><Timestamp dt:dt=""int"">0</Timestamp><DateUtc dt:dt=""string"">2014-05-15T22:00:43Z</DateUtc></StartTime><FrequencyChanges><FrequencyChange><Frequency dt:dt=""r8"">2793030000</Frequency><Timestamp dt:dt=""r8"">1.9673372755229E+15</Timestamp><Current dt:dt=""r8"">0</Current><DateUtc dt:dt=""string"">2014-05-15T22:00:43Z</DateUtc></FrequencyChange></FrequencyChanges></Clock>\n",60.03,1,-2024692289,0,,-999999,5,142254,t,100172,242426,5/15/2014,15:00:43,,2,Session2,SessionsList,0,,-999999,18,881036,t,33570,914606,866859,2,1,2,4,,1379170,,,4,1,4,,,,Cued2,MiniBlocks1,,,,,7,0,b,-999999,13,1480620,r,556,1481176,White,Incongruent,b,Red,0,,0,16,1473623,,0,0,,,,7,1,7,,,,,,,Pictures\red.bmp,6000,4000,Pictures\left.bmp,,,,,,,,,,,,,StimulusPr,Pictures\black.bmp,CuedStim2,Left
POP_2,16058,1,"<?xml version=""1.0""?>\n<Clock xmlns:dt=""urn:schemas-microsoft-com:datatypes""><Description dt:dt=""string"">E-Prime Primary Realtime Clock</Description><StartTime><Timestamp dt:dt=""int"">0</Timestamp><DateUtc dt:dt=""string"">2014-05-15T22:00:43Z</DateUtc></StartTime><FrequencyChanges><FrequencyChange><Frequency dt:dt=""r8"">2793030000</Frequency><Timestamp dt:dt=""r8"">1.9673372755229E+15</Timestamp><Current dt:dt=""r8"">0</Current><DateUtc dt:dt=""string"">2014-05-15T22:00:43Z</DateUtc></FrequencyChange></FrequencyChanges></Clock>\n",60.03,1,-2024692289,0,,-999999,5,142254,t,100172,242426,5/15/2014,15:00:43,,2,Session2,SessionsList,0,,-999999,18,881036,t,33570,914606,866859,2,1,2,4,,1379170,,,4,1,4,,,,Cued2,MiniBlocks1,,,,,8,1,b,-999999,8,1491614,b,503,1492117,White,Congruent,b,Green,0,,0,11,1486617,,0,0,,,,8,1,8,,,,,,,Pictures\green.bmp,4000,4000,Pictures\black.bmp,,,,,,,,,,,,,StimulusPr,Pictures\right.bmp,CuedStim2,Right
POP_2,16058,1,"<?xml version=""1.0""?>\n<Clock xmlns:dt=""urn:schemas-microsoft-com:datatypes""><Description dt:dt=""string"">E-Prime Primary Realtime Clock</Description><StartTime><Timestamp dt:dt=""int"">0</Timestamp><DateUtc dt:dt=""string"">2014-05-15T22:00:43Z</DateUtc></StartTime><FrequencyChanges><FrequencyChange><Frequency dt:dt=""r8"">2793030000</Frequency><Timestamp dt:dt=""r8"">1.9673372755229E+15</Timestamp><Current dt:dt=""r8"">0</Current><DateUtc dt:dt=""string"">2014-05-15T22:00:43Z</DateUtc></FrequencyChange></FrequencyChanges></Clock>\n",60.03,1,-2024692289,0,,-999999,5,142254,t,100172,242426,5/15/2014,15:00:43,,2,Session2,SessionsList,0,,-999999,18,881036,t,33570,914606,866859,2,1,2,4,,1379170,,,4,1,4,,,,Cued2,MiniBlocks1,,,,,9,1,b,-999999,4,1507607,b,390,1507997,White,Incongruent,b,Red,0,,0,5,1497611,,0,0,,,,9,1,9,,,,,,,Pictures\red.bmp,9000,10000,Pictures\left.bmp,,,,,,,,,,,,,StimulusPr,Pictures\black.bmp,CuedStim2,Left
POP_2,16058,1,"<?xml version=""1.0""?>\n<Clock xmlns:dt=""urn:schemas-microsoft-com:datatypes""><Description dt:dt=""string"">E-Prime Primary Realtime Clock</Description><StartTime><Timestamp dt:dt=""int"">0</Timestamp><DateUtc dt:dt=""string"">2014-05-15T22:00:43Z</DateUtc></StartTime><FrequencyChanges><FrequencyChange><Frequency dt:dt=""r8"">2793030000</Frequency><Timestamp dt:dt=""r8"">1.9673372755229E+15</Timestamp><Current dt:dt=""r8"">0</Current><DateUtc dt:dt=""string"">2014-05-15T22:00:43Z</DateUtc></FrequencyChange></FrequencyChanges></Clock>\n",60.03,1,-2024692289,0,,-999999,5,142254,t,100172,242426,5/15/2014,15:00:43,,2,Session2,SessionsList,0,,-999999,18,881036,t,33570,914606,866859,2,1,2,4,,1379170,,,4,1,4,,,,Cued2,MiniBlocks1,,,,,10,1,r,-999999,12,1529612,r,608,1530220,White,Congruent,r,Green,0,,0,15,1519617,,0,0,,,,10,1,10,,,,,,,Pictures\green.bmp,9000,10000,Pictures\left.bmp,,,,,,,,,,,,,StimulusPr,Pictures\black.bmp,CuedStim2,Left
