ExperimentName,Subject,Session,Clock.Information,Display.RefreshRate,Group,RandomSeed,Session1Onset.ACC,Session1Onset.CRESP,Session1Onset.DurationError,Session1Onset.OnsetDelay,Session1Onset.OnsetTime,Session1Onset.RESP,Session1Onset.RT,Session1Onset.RTTime,SessionDate,SessionTime,SessionTimeUtc,Block,Procedure[Block],Running[Block],Session2Onset.ACC,Session2Onset.CRESP,Session2Onset.DurationError,Session2Onset.OnsetDelay,Session2Onset.OnsetTime,Session2Onset.RESP,Session2Onset.RT,Session2Onset.RTTime,SessionBreak.OnsetTime,SessionsList,SessionsList.Cycle,SessionsList.Sample,Trial,CuedPrompt1.OnsetTime,CuedPrompt2.OnsetTime,CuedPrompt3.OnsetTime,CuedPrompt4.OnsetTime,MiniBlocks1,MiniBlocks1.Cycle,MiniBlocks1.Sample,MiniBlocks2,MiniBlocks2.Cycle,MiniBlocks2.Sample,Procedure[Trial],Running[Trial],UncuedPrompt1.OnsetTime,UncuedPrompt2.OnsetTime,UncuedPrompt3.OnsetTime,UncuedPrompt4.OnsetTime,SubTrial,Arrow1.ACC,Arrow1.CRESP,Arrow1.DurationError,Arrow1.OnsetDelay,Arrow1.OnsetTime,Arrow1.RESP,Arrow1.RT,Arrow1.RTTime,ArrowColor,Congruence,CorrectResp,Cue,Cue.ACC,Cue.CRESP,Cue.DurationError,Cue.OnsetDelay,Cue.OnsetTime,Cue.RESP,Cue.RT,Cue.RTTime,CuedStim1,CuedStim1.Cycle,CuedStim1.Sample,CuedStim2,CuedStim2.Cycle,CuedStim2.Sample,CuedStim3,CuedStim3.Cycle,CuedStim3.Sample,CuedStim4,CuedStim4.Cycle,CuedStim4.Sample,CueImage,JitterCue,JitterTrial,LeftImage,NonCuedStim1,NonCuedStim1.Cycle,NonCuedStim1.Sample,NonCuedStim2,NonCuedStim2.Cycle,NonCuedStim2.Sample,NonCuedStim3,NonCuedStim3.Cycle,NonCuedStim3.Sample,NonCuedStim4,NonCuedStim4.Cycle,NonCuedStim4.Sample,Procedure[SubTrial],RightImage,Running[SubTrial],Stimulus
POP_2,27013,1,"<?xml version=""1.0""?>\n<Clock xmlns:dt=""urn:schemas-microsoft-com:datatypes""><Description dt:dt=""string"">E-Prime Primary Realtime Clock</Description><StartTime><Timestamp dt:dt=""int"">0</Timestamp><DateUtc dt:dt=""string"">2014-05-02T20:59:56Z</DateUtc></StartTime><FrequencyChanges><FrequencyChange><Frequency dt:dt=""r8"">2793020000</Frequency><Timestamp dt:dt=""r8"">107740718431634</Timestamp><Current dt:dt=""r8"">0</Current><DateUtc dt:dt=""string"">2014-05-02T20:59:56Z</DateUtc></FrequencyChange></FrequencyChanges></Clock>\n",60.034,1,2006766429,0,,-999999,5,14339,t,107709,122048,5/2/2014,13:59:56,8:59:56 PM,1,Session1,SessionsList,,,,,,,,,,1,1,1,1,122085,,,,1,1,1,,,,Cued1,MiniBlocks1,,,,,1,1,r,-999999,173,136212,r,405,136617,White,Congruent,r,Green,0,,0,102,131131,,0,0,1,1,1,,,,,,,,,,Pictures\green.bmp,4000,4000,Pictures\left.bmp,,,,,,,,,,,,,StimulusPr,Pictures\black.bmp,CuedStim1,Left
POP_2,27013,1,"<?xml version=""1.0""?>\n<Clock xmlns:dt=""urn:schemas-microsoft-com:datatypes""><Description dt:dt=""string"">E-Prime Primary Realtime Clock</Description><StartTime><Timestamp dt:dt=""int"">0</Timestamp><DateUtc dt:dt=""string"">2014-05-02T20:59:56Z</DateUtc></StartTime><FrequencyChanges><FrequencyChange><Frequency dt:dt=""r8"">2793020000</Frequency><Timestamp dt:dt=""r8"">107740718431634</Timestamp><Current dt:dt=""r8"">0</Current><DateUtc dt:dt=""string"">2014-05-02T20:59:56Z</DateUtc></FrequencyChange></FrequencyChanges></Clock>\n",60.034,1,2006766429,0,,-999999,5,14339,t,107709,122048,5/2/2014,13:59:56,8:59:56 PM,1,Session1,SessionsList,,,,,,,,,,1,1,1,1,122085,,,,1,1,1,,,,Cued1,MiniBlocks1,,,,,2,1,b,-999999,56,149105,b,346,149451,White,Congruent,b,Green,0,,0,11,142042,,0,0,2,1,2,,,,,,,,,,Pictures\green.bmp,6000,2000,Pictures\black.bmp,,,,,,,,,,,,,StimulusPr,Pictures\right.bmp,CuedStim1,Right
POP_2,27013,1,"<?xml version=""1.0""?>\n<Clock xmlns:dt=""urn:schemas-microsoft-com:datatypes""><Description dt:dt=""string"">E-Prime Primary Realtime Clock</Description><StartTime><Timestamp dt:dt=""int"">0</Timestamp><DateUtc dt:dt=""string"">2014-05-02T20:59:56Z</DateUtc></StartTime><FrequencyChanges><FrequencyChange><Frequency dt:dt=""r8"">2793020000</Frequency><Timestamp dt:dt=""r8"">107740718431634</Timestamp><Current dt:dt=""r8"">0</Current><DateUtc dt:dt=""string"">2014-05-02T20:59:56Z</DateUtc></FrequencyChange></FrequencyChanges></Clock>\n",60.034,1,2006766429,0,,-999999,5,14339,t,107709,122048,5/2/2014,13:59:56,8:59:56 PM,1,Session1,SessionsList,,,,,,,,,,1,1,1,1,122085,,,,1,1,1,,,,Cued1,MiniBlocks1,,,,,3,1,b,-999999,19,157068,b,330,157398,White,Congruent,b,Green,0,,0,4,153053,,0,0,3,1,3,,,,,,,,,,Pictures\green.bmp,3000,2000,Pictures\black.bmp,,,,,,,,,,,,,StimulusPr,Pictures\right.bmp,CuedStim1,Right
POP_2,27013,1,"<?xml version=""1.0""?>\n<Clock xmlns:dt=""urn:schemas-microsoft-com:datatypes""><Description dt:dt=""string"">E-Prime Primary Realtime Clock</Description><StartTime><Timestamp dt:dt=""int"">0</Timestamp><DateUtc dt:dt=""string"">2014-05-02T20:59:56Z</DateUtc></StartTime><FrequencyChanges><FrequencyChange><Frequency dt:dt=""r8"">2793020000</Frequency><Timestamp dt:dt=""r8"">107740718431634</Timestamp><Current dt:dt=""r8"">0</Current><DateUtc dt:dt=""string"">2014-05-02T20:59:56Z</DateUtc></FrequencyChange></FrequencyChanges></Clock>\n",60.034,1,2006766429,0,,-999999,5,14339,t,107709,122048,5/2/2014,13:59:56,8:59:56 PM,1,Session1,SessionsList,,,,,,,,,,1,1,1,1,122085,,,,1,1,1,,,,Cued1,MiniBlocks1,,,,,4,1,b,-999999,15,165064,b,381,165445,White,Incongruent,b,Red,0,,0,78,161116,,0,0,4,1,4,,,,,,,,,,Pictures\red.bmp,3000,16000,Pictures\left.bmp,,,,,,,,,,,,,StimulusPr,Pictures\black.bmp,CuedStim1,Left
POP_2,27013,1,"<?xml version=""1.0""?>\n<Clock xmlns:dt=""urn:schemas-microsoft-com:datatypes""><Description dt:dt=""string"">E-Prime Primary Realtime Clock</Description><StartTime><Timestamp dt:dt=""int"">0</Timestamp><DateUtc dt:dt=""string"">2014-05-02T20:59:56Z</DateUtc></StartTime><FrequencyChanges><FrequencyChange><Frequency dt:dt=""r8"">2793020000</Frequency><Timestamp dt:dt=""r8"">107740718431634</Timestamp><Current dt:dt=""r8"">0</Current><DateUtc dt:dt=""string"">2014-05-02T20:59:56Z</DateUtc></FrequencyChange></FrequencyChanges></Clock>\n",60.034,1,2006766429,0,,-999999,5,14339,t,107709,122048,5/2/2014,13:59:56,8:59:56 PM,1,Session1,SessionsList,,,,,,,,,,1,1,1,1,122085,,,,1,1,1,,,,Cued1,MiniBlocks1,,,,,5,1,r,-999999,3,187037,r,345,187382,White,Congruent,r,Green,0,,0,17,183055,,0,0,5,1,5,,,,,,,,,,Pictures\green.bmp,3000,16000,Pictures\left.bmp,,,,,,,,,,,,,StimulusPr,Pictures\black.bmp,CuedStim1,Left
POP_2,27013,1,"<?xml version=""1.0""?>\n<Clock xmlns:dt=""urn:schemas-microsoft-com:datatypes""><Description dt:dt=""string"">E-Prime Primary Realtime Clock</Description><StartTime><Timestamp dt:dt=""int"">0</Timestamp><DateUtc dt:dt=""string"">2014-05-02T20:59:56Z</DateUtc></StartTime><FrequencyChanges><FrequencyChange><Frequency dt:dt=""r8"">2793020000</Frequency><Timestamp dt:dt=""r8"">107740718431634</Timestamp><Current dt:dt=""r8"">0</Current><DateUtc dt:dt=""string"">2014-05-02T20:59:56Z</DateUtc></FrequencyChange></FrequencyChanges></Clock>\n",60.034,1,2006766429,0,,-999999,5,14339,t,107709,122048,5/2/2014,13:59:56,8:59:56 PM,1,Session1,SessionsList,,,,,,,,,,1,1,1,1,122085,,,,1,1,1,,,,Cued1,MiniBlocks1,,,,,6,1,r,-999999,7,215056,r,389,215445,White,Congruent,r,Green,0,,0,12,205061,,0,0,6,1,6,,,,,,,,,,Pictures\green.bmp,9000,10000,Pictures\left.bmp,,,,,,,,,,,,,StimulusPr,Pictures\black.bmp,CuedStim1,Left
POP_2,27013,1,"<?xml version=""1.0""?>\n<Clock xmlns:dt=""urn:schemas-microsoft-com:datatypes""><Description dt:dt=""string"">E-Prime Primary Realtime Clock</Description><StartTime><Timestamp dt:dt=""int"">0</Timestamp><DateUtc dt:dt=""string"">2014-05-02T20:59:56Z</DateUtc></StartTime><FrequencyChanges><FrequencyChange><Frequency dt:dt=""r8"">2793020000</Frequency><Timestamp dt:dt=""r8"">107740718431634</Timestamp><Current dt:dt=""r8"">0</Current><DateUtc dt:dt=""string"">2014-05-02T20:59:56Z</DateUtc></FrequencyChange></FrequencyChanges></Clock>\n",60.034,1,2006766429,0,,-999999,5,14339,t,107709,122048,5/2/2014,13:59:56,8:59:56 PM,1,Session1,SessionsList,,,,,,,,,,1,1,1,1,122085,,,,1,1,1,,,,Cued1,MiniBlocks1,,,,,7,1,b,-999999,16,231065,b,346,231411,White,Congruent,b,Green,0,,0,11,227050,,0,0,7,1,7,,,,,,,,,,Pictures\green.bmp,3000,16000,Pictures\black.bmp,,,,,,,,,,,,,StimulusPr,Pictures\right.bmp,CuedStim1,Right
POP_2,27013,1,"<?xml version=""1.0""?>\n<Clock xmlns:dt=""urn:schemas-microsoft-com:datatypes""><Description dt:dt=""string"">E-Prime Primary Realtime Clock</Description><StartTime><Timestamp dt:dt=""int"">0</Timestamp><DateUtc dt:dt=""string"">2014-05-02T20:59:56Z</DateUtc></StartTime><FrequencyChanges><FrequencyChange><Frequency dt:dt=""r8"">2793020000</Frequency><Timestamp dt:dt=""r8"">107740718431634</Timestamp><Current dt:dt=""r8"">0</Current><DateUtc dt:dt=""string"">2014-05-02T20:59:56Z</DateUtc></FrequencyChange></FrequencyChanges></Clock>\n",60.034,1,2006766429,0,,-999999,5,14339,t,107709,122048,5/2/2014,13:59:56,8:59:56 PM,1,Session1,SessionsList,,,,,,,,,,1,1,1,1,122085,,,,1,1,1,,,,Cued1,MiniBlocks1,,,,,8,1,r,-999999,3,254053,r,376,254429,White,Incongruent,r,Red,0,,0,6,249056,,0,0,8,1,8,,,,,,,,,,Pictures\red.bmp,4000,2000,Pictures\black.bmp,,,,,,,,,,,,,StimulusPr,Pictures\right.bmp,CuedStim1,Right
POP_2,27013,1,"<?xml version=""1.0""?>\n<Clock xmlns:dt=""urn:schemas-microsoft-com:datatypes""><Description dt:dt=""string"">E-Prime Primary Realtime Clock</Description><StartTime><Timestamp dt:dt=""int"">0</Timestamp><DateUtc dt:dt=""string"">2014-05-02T20:59:56Z</DateUtc></StartTime><FrequencyChanges><FrequencyChange><Frequency dt:dt=""r8"">2793020000</Frequency><Timestamp dt:dt=""r8"">107740718431634</Timestamp><Current dt:dt=""r8"">0</Current><DateUtc dt:dt=""string"">2014-05-02T20:59:56Z</DateUtc></FrequencyChange></FrequencyChanges></Clock>\n",60.034,1,2006766429,0,,-999999,5,14339,t,107709,122048,5/2/2014,13:59:56,8:59:56 PM,1,Session1,SessionsList,,,,,,,,,,1,1,1,1,122085,,,,1,1,1,,,,Cued1,MiniBlocks1,,,,,9,1,b,-999999,16,263065,b,458,263523,White,Congruent,b,Green,0,,0,18,258068,,0,0,9,1,9,,,,,,,,,,Pictures\green.bmp,4000,2000,Pictures\black.bmp,,,,,,,,,,,,,StimulusPr,Pictures\right.bmp,CuedStim1,Right
POP_2,27013,1,"<?xml version=""1.0""?>\n<Clock xmlns:dt=""urn:schemas-microsoft-com:datatypes""><Description dt:dt=""string"">E-Prime Primary Realtime Clock</Description><StartTime><Timestamp dt:dt=""int"">0</Timestamp><DateUtc dt:dt=""string"">2014-05-02T20:59:56Z</DateUtc></StartTime><FrequencyChanges><FrequencyChange><Frequency dt:dt=""r8"">2793020000</Frequency><Timestamp dt:dt=""r8"">107740718431634</Timestamp><Current dt:dt=""r8"">0</Current><DateUtc dt:dt=""string"">2014-05-02T20:59:56Z</DateUtc></FrequencyChange></FrequencyChanges></Clock>\n",60.034,1,2006766429,0,,-999999,5,14339,t,107709,122048,5/2/2014,13:59:56,8:59:56 PM,1,Session1,SessionsList,,,,,,,,,,1,1,1,1,122085,,,,1,1,1,,,,Cued1,MiniBlocks1,,,,,10,1,r,-999999,6,271045,r,337,271382,White,Congruent,r,Green,0,,0,14,267063,,0,0,10,1,10,,,,,,,,,,Pictures\green.bmp,3000,2000,Pictures\left.bmp,,,,,,,,,,,,,StimulusPr,Pictures\black.bmp,CuedStim1,Left
POP_2,27013,1,"<?xml version=""1.0""?>\n<Clock xmlns:dt=""urn:schemas-microsoft-com:datatypes""><Description dt:dt=""string"">E-Prime Primary Realtime Clock</Description><StartTime><Timestamp dt:dt=""int"">0</Timestamp><DateUtc dt:dt=""string"">2014-05-02T20:59:56Z</DateUtc></StartTime><FrequencyChanges><FrequencyChange><Frequency dt:dt=""r8"">2793020000</Frequency><Timestamp dt:dt=""r8"">107740718431634</Timestamp><Current dt:dt=""r8"">0</Current><DateUtc dt:dt=""string"">2014-05-02T20:59:56Z</DateUtc></FrequencyChange></FrequencyChanges></Clock>\n",60.034,1,2006766429,0,,-999999,5,14339,t,107709,122048,5/2/2014,13:59:56,8:59:56 PM,1,Session1,SessionsList,,,,,,,,,,1,1,1,2,,,,,2,1,2,,,,NonCued1,MiniBlocks1,273410,,,,1,1,r,-999999,71,288120,r,340,288460,Green,Congruent,r,White,0,,0,73,283122,,0,0,,,,,,,,,,,,,Pictures\white.bmp,4000,2000,Pictures\GreenLeft.bmp,1,1,1,,,,,,,,,,StimulusPr,Pictures\black.bmp,NonCuedStim1,Left
POP_2,27013,1,"<?xml version=""1.0""?>\n<Clock xmlns:dt=""urn:schemas-microsoft-com:datatypes""><Description dt:dt=""string"">E-Prime Primary Realtime Clock</Description><StartTime><Timestamp dt:dt=""int"">0</Timestamp><DateUtc dt:dt=""string"">2014-05-02T20:59:56Z</DateUtc></StartTime><FrequencyChanges><FrequencyChange><Frequency dt:dt=""r8"">2793020000</Frequency><Timestamp dt:dt=""r8"">107740718431634</Timestamp><Current dt:dt=""r8"">0</Current><DateUtc dt:dt=""string"">2014-05-02T20:59:56Z</DateUtc></FrequencyChange></FrequencyChanges></Clock>\n",60.034,1,2006766429,0,,-999999,5,14339,t,107709,122048,5/2/2014,13:59:56,8:59:56 PM,1,Session1,SessionsList,,,,,,,,,,1,1,1,2,,,,,2,1,2,,,,NonCued1,MiniBlocks1,273410,,,,2,1,b,-999999,49,299098,b,347,299445,Green,Congruent,b,White,0,,0,12,292051,,0,0,,,,,,,,,,,,,Pictures\white.bmp,6000,16000,Pictures\black.bmp,2,1,2,,,,,,,,,,StimulusPr,Pictures\GreenRight.bmp,NonCuedStim1,Right
POP_2,27013,1,"<?xml version=""1.0""?>\n<Clock xmlns:dt=""urn:schemas-microsoft-com:datatypes""><Description dt:dt=""string"">E-Prime Primary Realtime Clock</Description><StartTime><Timestamp dt:dt=""int"">0</Timestamp><DateUtc dt:dt=""string"">2014-05-02T20:59:56Z</DateUtc></StartTime><FrequencyChanges><FrequencyChange><Frequency dt:dt=""r8"">2793020000</Frequency><Timestamp dt:dt=""r8"">107740718431634</Timestamp><Current dt:dt=""r8"">0</Current><DateUtc dt:dt=""string"">2014-05-02T20:59:56Z</DateUtc></FrequencyChange></FrequencyChanges></Clock>\n",60.034,1,2006766429,0,,-999999,5,14339,t,107709,122048,5/2/2014,13:59:56,8:59:56 PM,1,Session1,SessionsList,,,,,,,,,,1,1,1,2,,,,,2,1,2,,,,NonCued1,MiniBlocks1,273410,,,,3,1,r,-999999,36,324085,r,704,324789,Red,Incongruent,r,White,0,,0,9,317039,,0,0,,,,,,,,,,,,,Pictures\white.bmp,6000,10000,Pictures\black.bmp,3,1,3,,,,,,,,,,StimulusPr,Pictures\RedRight.bmp,NonCuedStim1,Right
POP_2,27013,1,"<?xml version=""1.0""?>\n<Clock xmlns:dt=""urn:schemas-microsoft-com:datatypes""><Description dt:dt=""string"">E-Prime Primary Realtime Clock</Description><StartTime><Timestamp dt:dt=""int"">0</Timestamp><DateUtc dt:dt=""string"">2014-05-02T20:59:56Z</DateUtc></StartTime><FrequencyChanges><FrequencyChange><Frequency dt:dt=""r8"">2793020000</Frequency><Timestamp dt:dt=""r8"">107740718431634</Timestamp><Current dt:dt=""r8"">0</Current><DateUtc dt:dt=""string"">2014-05-02T20:59:56Z</DateUtc></FrequencyChange></FrequencyChanges></Clock>\n",60.034,1,2006766429,0,,-999999,5,14339,t,107709,122048,5/2/2014,13:59:56,8:59:56 PM,1,Session1,SessionsList,,,,,,,,,,1,1,1,2,,,,,2,1,2,,,,NonCued1,MiniBlocks1,273410,,,,4,1,r,-999999,8,346058,r,668,346726,Green,Congruent,r,White,0,,0,3,336046,,0,0,,,,,,,,,,,,,Pictures\white.bmp,9000,10000,Pictures\GreenLeft.bmp,4,1,4,,,,,,,,,,StimulusPr,Pictures\black.bmp,NonCuedStim1,Left
POP_2,27013,1,"<?xml version=""1.0""?>\n<Clock xmlns:dt=""urn:schemas-microsoft-com:datatypes""><Description dt:dt=""string"">E-Prime Primary Realtime Clock</Description><StartTime><Timestamp dt:dt=""int"">0</Timestamp><DateUtc dt:dt=""string"">2014-05-02T20:59:56Z</DateUtc></StartTime><FrequencyChanges><FrequencyChange><Frequency dt:dt=""r8"">2793020000</Frequency><Timestamp dt:dt=""r8"">107740718431634</Timestamp><Current dt:dt=""r8"">0</Current><DateUtc dt:dt=""string"">2014-05-02T20:59:56Z</DateUtc></FrequencyChange></FrequencyChanges></Clock>\n",60.034,1,2006766429,0,,-999999,5,14339,t,107709,122048,5/2/2014,13:59:56,8:59:56 PM,1,Session1,SessionsList,,,,,,,,,,1,1,1,2,,,,,2,1,2,,,,NonCued1,MiniBlocks1,273410,,,,5,1,b,-999999,16,362066,b,317,362383,Green,Congruent,b,White,0,,0,2,358052,,0,0,,,,,,,,,,,,,Pictures\white.bmp,3000,2000,Pictures\black.bmp,5,1,5,,,,,,,,,,StimulusPr,Pictures\GreenRight.bmp,NonCuedStim1,Right
POP_2,27013,1,"<?xml version=""1.0""?>\n<Clock xmlns:dt=""urn:schemas-microsoft-com:datatypes""><Description dt:dt=""string"">E-Prime Primary Realtime Clock</Description><StartTime><Timestamp dt:dt=""int"">0</Timestamp><DateUtc dt:dt=""string"">2014-05-02T20:59:56Z</DateUtc></StartTime><FrequencyChanges><FrequencyChange><Frequency dt:dt=""r8"">2793020000</Frequency><Timestamp dt:dt=""r8"">107740718431634</Timestamp><Current dt:dt=""r8"">0</Current><DateUtc dt:dt=""string"">2014-05-02T20:59:56Z</DateUtc></FrequencyChange></FrequencyChanges></Clock>\n",60.034,1,2006766429,0,,-999999,5,14339,t,107709,122048,5/2/2014,13:59:56,8:59:56 PM,1,Session1,SessionsList,,,,,,,,,,1,1,1,2,,,,,2,1,2,,,,NonCued1,MiniBlocks1,273410,,,,6,1,b,-999999,73,371112,b,459,371571,Red,Incongruent,b,White,0,,0,14,366064,,0,0,,,,,,,,,,,,,Pictures\white.bmp,4000,16000,Pictures\RedLeft.bmp,6,1,6,,,,,,,,,,StimulusPr,Pictures\black.bmp,NonCuedStim1,Left
POP_2,27013,1,"<?xml version=""1.0""?>\n<Clock xmlns:dt=""urn:schemas-microsoft-com:datatypes""><Description dt:dt=""string"">E-Prime Primary Realtime Clock</Description><StartTime><Timestamp dt:dt=""int"">0</Timestamp><DateUtc dt:dt=""string"">2014-05-02T20:59:56Z</DateUtc></StartTime><FrequencyChanges><FrequencyChange><Frequency dt:dt=""r8"">2793020000</Frequency><Timestamp dt:dt=""r8"">107740718431634</Timestamp><Current dt:dt=""r8"">0</Current><DateUtc dt:dt=""string"">2014-05-02T20:59:56Z</DateUtc></FrequencyChange></FrequencyChanges></Clock>\n",60.034,1,2006766429,0,,-999999,5,14339,t,107709,122048,5/2/2014,13:59:56,8:59:56 PM,1,Session1,SessionsList,,,,,,,,,,1,1,1,2,,,,,2,1,2,,,,NonCued1,MiniBlocks1,273410,,,,7,1,b,-999999,19,393068,b,357,393425,Green,Congruent,b,White,0,,0,2,389037,,0,0,,,,,,,,,,,,,Pictures\white.bmp,3000,4000,Pictures\black.bmp,7,1,7,,,,,,,,,,StimulusPr,Pictures\GreenRight.bmp,NonCuedStim1,Right
POP_2,27013,1,"<?xml version=""1.0""?>\n<Clock xmlns:dt=""urn:schemas-microsoft-com:datatypes""><Description dt:dt=""string"">E-Prime Primary Realtime Clock</Description><StartTime><Timestamp dt:dt=""int"">0</Timestamp><DateUtc dt:dt=""string"">2014-05-02T20:59:56Z</DateUtc></StartTime><FrequencyChanges><FrequencyChange><Frequency dt:dt=""r8"">2793020000</Frequency><Timestamp dt:dt=""r8"">107740718431634</Timestamp><Current dt:dt=""r8"">0</Current><DateUtc dt:dt=""string"">2014-05-02T20:59:56Z</DateUtc></FrequencyChange></FrequencyChanges></Clock>\n",60.034,1,2006766429,0,,-999999,5,14339,t,107709,122048,5/2/2014,13:59:56,8:59:56 PM,1,Session1,SessionsList,,,,,,,,,,1,1,1,2,,,,,2,1,2,,,,NonCued1,MiniBlocks1,273410,,,,8,1,b,-999999,14,403063,b,335,403398,Green,Congruent,b,White,0,,0,15,399065,,0,0,,,,,,,,,,,,,Pictures\white.bmp,3000,4000,Pictures\black.bmp,8,1,8,,,,,,,,,,StimulusPr,Pictures\GreenRight.bmp,NonCuedStim1,Right
POP_2,27013,1,"<?xml version=""1.0""?>\n<Clock xmlns:dt=""urn:schemas-microsoft-com:datatypes""><Description dt:dt=""string"">E-Prime Primary Realtime Clock</Description><StartTime><Timestamp dt:dt=""int"">0</Timestamp><DateUtc dt:dt=""string"">2014-05-02T20:59:56Z</DateUtc></StartTime><FrequencyChanges><FrequencyChange><Frequency dt:dt=""r8"">2793020000</Frequency><Timestamp dt:dt=""r8"">107740718431634</Timestamp><Current dt:dt=""r8"">0</Current><DateUtc dt:dt=""string"">2014-05-02T20:59:56Z</DateUtc></FrequencyChange></FrequencyChanges></Clock>\n",60.034,1,2006766429,0,,-999999,5,14339,t,107709,122048,5/2/2014,13:59:56,8:59:56 PM,1,Session1,SessionsList,,,,,,,,,,1,1,1,2,,,,,2,1,2,,,,NonCued1,MiniBlocks1,273410,,,,9,1,b,-999999,10,419055,b,578,419633,Red,Incongruent,b,White,0,,0,13,409060,,0,0,,,,,,,,,,,,,Pictures\white.bmp,9000,2000,Pictures\RedLeft.bmp,9,1,9,,,,,,,,,,StimulusPr,Pictures\black.bmp,NonCuedStim1,Left
POP_2,27013,1,"<?xml version=""1.0""?>\n<Clock xmlns:dt=""urn:schemas-microsoft-com:datatypes""><Description dt:dt=""string"">E-Prime Primary Realtime Clock</Description><StartTime><Timestamp dt:dt=""int"">0</Timestamp><DateUtc dt:dt=""string"">2014-05-02T20:59:56Z</DateUtc></StartTime><FrequencyChanges><FrequencyChange><Frequency dt:dt=""r8"">2793020000</Frequency><Timestamp dt:dt=""r8"">107740718431634</Timestamp><Current dt:dt=""r8"">0</Current><DateUtc dt:dt=""string"">2014-05-02T20:59:56Z</DateUtc></FrequencyChange></FrequencyChanges></Clock>\n",60.034,1,2006766429,0,,-999999,5,14339,t,107709,122048,5/2/2014,13:59:56,8:59:56 PM,1,Session1,SessionsList,,,,,,,,,,1,1,1,2,,,,,2,1,2,,,,NonCued1,MiniBlocks1,273410,,,,10,1,r,-999999,3,430049,r,365,430414,Green,Congruent,r,White,0,,0,6,423053,,0,0,,,,,,,,,,,,,Pictures\white.bmp,6000,2000,Pictures\GreenLeft.bmp,10,1,10,,,,,,,,,,StimulusPr,Pictures\black.bmp,NonCuedStim1,Left
POP_2,27013,1,"<?xml version=""1.0""?>\n<Clock xmlns:dt=""urn:schemas-microsoft-com:datatypes""><Description dt:dt=""string"">E-Prime Primary Realtime Clock</Description><StartTime><Timestamp dt:dt=""int"">0</Timestamp><DateUtc dt:dt=""string"">2014-05-02T20:59:56Z</DateUtc></StartTime><FrequencyChanges><FrequencyChange><Frequency dt:dt=""r8"">2793020000</Frequency><Timestamp dt:dt=""r8"">107740718431634</Timestamp><Current dt:dt=""r8"">0</Current><DateUtc dt:dt=""string"">2014-05-02T20:59:56Z</DateUtc></FrequencyChange></FrequencyChanges></Clock>\n",60.034,1,2006766429,0,,-999999,5,14339,t,107709,122048,5/2/2014,13:59:56,8:59:56 PM,1,Session1,SessionsList,,,,,,,,,,1,1,1,3,,,,,3,1,3,,,,NonCued2,MiniBlocks1,,432431,,,1,1,b,-999999,5,452055,b,343,452398,Green,Congruent,b,White,0,,0,18,442060,,0,0,,,,,,,,,,,,,Pictures\white.bmp,9000,10000,Pictures\black.bmp,,,,1,1,1,,,,,,,StimulusPr,Pictures\GreenRight.bmp,NonCuedStim2,Right
POP_2,27013,1,"<?xml version=""1.0""?>\n<Clock xmlns:dt=""urn:schemas-microsoft-com:datatypes""><Description dt:dt=""string"">E-Prime Primary Realtime Clock</Description><StartTime><Timestamp dt:dt=""int"">0</Timestamp><DateUtc dt:dt=""string"">2014-05-02T20:59:56Z</DateUtc></StartTime><FrequencyChanges><FrequencyChange><Frequency dt:dt=""r8"">2793020000</Frequency><Timestamp dt:dt=""r8"">107740718431634</Timestamp><Current dt:dt=""r8"">0</Current><DateUtc dt:dt=""string"">2014-05-02T20:59:56Z</DateUtc></FrequencyChange></FrequencyChanges></Clock>\n",60.034,1,2006766429,0,,-999999,5,14339,t,107709,122048,5/2/2014,13:59:56,8:59:56 PM,1,Session1,SessionsList,,,,,,,,,,1,1,1,3,,,,,3,1,3,,,,NonCued2,MiniBlocks1,,432431,,,2,1,r,-999999,4,468047,r,368,468415,Green,Congruent,r,White,0,,0,16,464066,,0,0,,,,,,,,,,,,,Pictures\white.bmp,3000,2000,Pictures\GreenLeft.bmp,,,,2,1,2,,,,,,,StimulusPr,Pictures\black.bmp,NonCuedStim2,Left
POP_2,27013,1,"<?xml version=""1.0""?>\n<Clock xmlns:dt=""urn:schemas-microsoft-com:datatypes""><Description dt:dt=""string"">E-Prime Primary Realtime Clock</Description><StartTime><Timestamp dt:dt=""int"">0</Timestamp><DateUtc dt:dt=""string"">2014-05-02T20:59:56Z</DateUtc></StartTime><FrequencyChanges><FrequencyChange><Frequency dt:dt=""r8"">2793020000</Frequency><Timestamp dt:dt=""r8"">107740718431634</Timestamp><Current dt:dt=""r8"">0</Current><DateUtc dt:dt=""string"">2014-05-02T20:59:56Z</DateUtc></FrequencyChange></FrequencyChanges></Clock>\n",60.034,1,2006766429,0,,-999999,5,14339,t,107709,122048,5/2/2014,13:59:56,8:59:56 PM,1,Session1,SessionsList,,,,,,,,,,1,1,1,3,,,,,3,1,3,,,,NonCued2,MiniBlocks1,,432431,,,3,1,r,-999999,3,476044,r,651,476695,Red,Incongruent,r,White,0,,0,8,472045,,0,0,,,,,,,,,,,,,Pictures\white.bmp,3000,2000,Pictures\black.bmp,,,,3,1,3,,,,,,,StimulusPr,Pictures\RedRight.bmp,NonCuedStim2,Right
POP_2,27013,1,"<?xml version=""1.0""?>\n<Clock xmlns:dt=""urn:schemas-microsoft-com:datatypes""><Description dt:dt=""string"">E-Prime Primary Realtime Clock</Description><StartTime><Timestamp dt:dt=""int"">0</Timestamp><DateUtc dt:dt=""string"">2014-05-02T20:59:56Z</DateUtc></StartTime><FrequencyChanges><FrequencyChange><Frequency dt:dt=""r8"">2793020000</Frequency><Timestamp dt:dt=""r8"">107740718431634</Timestamp><Current dt:dt=""r8"">0</Current><DateUtc dt:dt=""string"">2014-05-02T20:59:56Z</DateUtc></FrequencyChange></FrequencyChanges></Clock>\n",60.034,1,2006766429,0,,-999999,5,14339,t,107709,122048,5/2/2014,13:59:56,8:59:56 PM,1,Session1,SessionsList,,,,,,,,,,1,1,1,3,,,,,3,1,3,,,,NonCued2,MiniBlocks1,,432431,,,4,1,r,-999999,16,485055,r,437,485492,Green,Congruent,r,White,0,,0,2,480041,,0,0,,,,,,,,,,,,,Pictures\white.bmp,4000,16000,Pictures\GreenLeft.bmp,,,,4,1,4,,,,,,,StimulusPr,Pictures\black.bmp,NonCuedStim2,Left
POP_2,27013,1,"<?xml version=""1.0""?>\n<Clock xmlns:dt=""urn:schemas-microsoft-com:datatypes""><Description dt:dt=""string"">E-Prime Primary Realtime Clock</Description><StartTime><Timestamp dt:dt=""int"">0</Timestamp><DateUtc dt:dt=""string"">2014-05-02T20:59:56Z</DateUtc></StartTime><FrequencyChanges><FrequencyChange><Frequency dt:dt=""r8"">2793020000</Frequency><Timestamp dt:dt=""r8"">107740718431634</Timestamp><Current dt:dt=""r8"">0</Current><DateUtc dt:dt=""string"">2014-05-02T20:59:56Z</DateUtc></FrequencyChange></FrequencyChanges></Clock>\n",60.034,1,2006766429,0,,-999999,5,14339,t,107709,122048,5/2/2014,13:59:56,8:59:56 PM,1,Session1,SessionsList,,,,,,,,,,1,1,1,3,,,,,3,1,3,,,,NonCued2,MiniBlocks1,,432431,,,5,1,r,-999999,4,510043,r,465,510508,Green,Congruent,r,White,0,,0,8,503046,,0,0,,,,,,,,,,,,,Pictures\white.bmp,6000,4000,Pictures\GreenLeft.bmp,,,,5,1,5,,,,,,,StimulusPr,Pictures\black.bmp,NonCuedStim2,Left
POP_2,27013,1,"<?xml version=""1.0""?>\n<Clock xmlns:dt=""urn:schemas-microsoft-com:datatypes""><Description dt:dt=""string"">E-Prime Primary Realtime Clock</Description><StartTime><Timestamp dt:dt=""int"">0</Timestamp><DateUtc dt:dt=""string"">2014-05-02T20:59:56Z</DateUtc></StartTime><FrequencyChanges><FrequencyChange><Frequency dt:dt=""r8"">2793020000</Frequency><Timestamp dt:dt=""r8"">107740718431634</Timestamp><Current dt:dt=""r8"">0</Current><DateUtc dt:dt=""string"">2014-05-02T20:59:56Z</DateUtc></FrequencyChange></FrequencyChanges></Clock>\n",60.034,1,2006766429,0,,-999999,5,14339,t,107709,122048,5/2/2014,13:59:56,8:59:56 PM,1,Session1,SessionsList,,,,,,,,,,1,1,1,3,,,,,3,1,3,,,,NonCued2,MiniBlocks1,,432431,,,6,1,b,-999999,3,520038,b,533,520571,Red,Incongruent,b,White,0,,0,18,516057,,0,0,,,,,,,,,,,,,Pictures\white.bmp,3000,4000,Pictures\RedLeft.bmp,,,,6,1,6,,,,,,,StimulusPr,Pictures\black.bmp,NonCuedStim2,Left
POP_2,27013,1,"<?xml version=""1.0""?>\n<Clock xmlns:dt=""urn:schemas-microsoft-com:datatypes""><Description dt:dt=""string"">E-Prime Primary Realtime Clock</Description><StartTime><Timestamp dt:dt=""int"">0</Timestamp><DateUtc dt:dt=""string"">2014-05-02T20:59:56Z</DateUtc></StartTime><FrequencyChanges><FrequencyChange><Frequency dt:dt=""r8"">2793020000</Frequency><Timestamp dt:dt=""r8"">107740718431634</Timestamp><Current dt:dt=""r8"">0</Current><DateUtc dt:dt=""string"">2014-05-02T20:59:56Z</DateUtc></FrequencyChange></FrequencyChanges></Clock>\n",60.034,1,2006766429,0,,-999999,5,14339,t,107709,122048,5/2/2014,13:59:56,8:59:56 PM,1,Session1,SessionsList,,,,,,,,,,1,1,1,3,,,,,3,1,3,,,,NonCued2,MiniBlocks1,,432431,,,7,1,b,-999999,15,531066,b,267,531333,Green,Congruent,b,White,0,,0,17,526068,,0,0,,,,,,,,,,,,,Pictures\white.bmp,4000,16000,Pictures\black.bmp,,,,7,1,7,,,,,,,StimulusPr,Pictures\GreenRight.bmp,NonCuedStim2,Right
POP_2,27013,1,"<?xml version=""1.0""?>\n<Clock xmlns:dt=""urn:schemas-microsoft-com:datatypes""><Description dt:dt=""string"">E-Prime Primary Realtime Clock</Description><StartTime><Timestamp dt:dt=""int"">0</Timestamp><DateUtc dt:dt=""string"">2014-05-02T20:59:56Z</DateUtc></StartTime><FrequencyChanges><FrequencyChange><Frequency dt:dt=""r8"">2793020000</Frequency><Timestamp dt:dt=""r8"">107740718431634</Timestamp><Current dt:dt=""r8"">0</Current><DateUtc dt:dt=""string"">2014-05-02T20:59:56Z</DateUtc></FrequencyChange></FrequencyChanges></Clock>\n",60.034,1,2006766429,0,,-999999,5,14339,t,107709,122048,5/2/2014,13:59:56,8:59:56 PM,1,Session1,SessionsList,,,,,,,,,,1,1,1,3,,,,,3,1,3,,,,NonCued2,MiniBlocks1,,432431,,,8,1,r,-999999,19,559069,r,361,559430,Green,Congruent,r,White,0,,0,7,549057,,0,0,,,,,,,,,,,,,Pictures\white.bmp,9000,2000,Pictures\GreenLeft.bmp,,,,8,1,8,,,,,,,StimulusPr,Pictures\black.bmp,NonCuedStim2,Left
POP_2,27013,1,"<?xml version=""1.0""?>\n<Clock xmlns:dt=""urn:schemas-microsoft-com:datatypes""><Description dt:dt=""string"">E-Prime Primary Realtime Clock</Description><StartTime><Timestamp dt:dt=""int"">0</Timestamp><DateUtc dt:dt=""string"">2014-05-02T20:59:56Z</DateUtc></StartTime><FrequencyChanges><FrequencyChange><Frequency dt:dt=""r8"">2793020000</Frequency><Timestamp dt:dt=""r8"">107740718431634</Timestamp><Current dt:dt=""r8"">0</Current><DateUtc dt:dt=""string"">2014-05-02T20:59:56Z</DateUtc></FrequencyChange></FrequencyChanges></Clock>\n",60.034,1,2006766429,0,,-999999,5,14339,t,107709,122048,5/2/2014,13:59:56,8:59:56 PM,1,Session1,SessionsList,,,,,,,,,,1,1,1,3,,,,,3,1,3,,,,NonCued2,MiniBlocks1,,432431,,,9,1,b,-999999,17,567048,b,382,567430,Green,Congruent,b,White,0,,0,2,563033,,0,0,,,,,,,,,,,,,Pictures\white.bmp,3000,10000,Pictures\black.bmp,,,,9,1,9,,,,,,,StimulusPr,Pictures\GreenRight.bmp,NonCuedStim2,Right
POP_2,27013,1,"<?xml version=""1.0""?>\n<Clock xmlns:dt=""urn:schemas-microsoft-com:datatypes""><Description dt:dt=""string"">E-Prime Primary Realtime Clock</Description><StartTime><Timestamp dt:dt=""int"">0</Timestamp><DateUtc dt:dt=""string"">2014-05-02T20:59:56Z</DateUtc></StartTime><FrequencyChanges><FrequencyChange><Frequency dt:dt=""r8"">2793020000</Frequency><Timestamp dt:dt=""r8"">107740718431634</Timestamp><Current dt:dt=""r8"">0</Current><DateUtc dt:dt=""string"">2014-05-02T20:59:56Z</DateUtc></FrequencyChange></FrequencyChanges></Clock>\n",60.034,1,2006766429,0,,-999999,5,14339,t,107709,122048,5/2/2014,13:59:56,8:59:56 PM,1,Session1,SessionsList,,,,,,,,,,1,1,1,3,,,,,3,1,3,,,,NonCued2,MiniBlocks1,,432431,,,10,1,b,-999999,7,583057,b,342,583399,Green,Congruent,b,White,0,,0,16,579059,,0,0,,,,,,,,,,,,,Pictures\white.bmp,3000,2000,Pictures\black.bmp,,,,10,1,10,,,,,,,StimulusPr,Pictures\GreenRight.bmp,NonCuedStim2,Right
POP_2,27013,1,"<?xml version=""1.0""?>\n<Clock xmlns:dt=""urn:schemas-microsoft-com:datatypes""><Description dt:dt=""string"">E-Prime Primary Realtime Clock</Description><StartTime><Timestamp dt:dt=""int"">0</Timestamp><DateUtc dt:dt=""string"">2014-05-02T20:59:56Z</DateUtc></StartTime><FrequencyChanges><FrequencyChange><Frequency dt:dt=""r8"">2793020000</Frequency><Timestamp dt:dt=""r8"">107740718431634</Timestamp><Current dt:dt=""r8"">0</Current><DateUtc dt:dt=""string"">2014-05-02T20:59:56Z</DateUtc></FrequencyChange></FrequencyChanges></Clock>\n",60.034,1,2006766429,0,,-999999,5,14339,t,107709,122048,5/2/2014,13:59:56,8:59:56 PM,1,Session1,SessionsList,,,,,,,,,,1,1,1,4,,585422,,,4,1,4,,,,Cued2,MiniBlocks1,,,,,1,1,b,-999999,8,602047,b,274,602321,White,Congruent,b,Green,0,,0,16,595067,,0,0,,,,1,1,1,,,,,,,Pictures\green.bmp,6000,4000,Pictures\black.bmp,,,,,,,,,,,,,StimulusPr,Pictures\right.bmp,CuedStim2,Right
POP_2,27013,1,"<?xml version=""1.0""?>\n<Clock xmlns:dt=""urn:schemas-microsoft-com:datatypes""><Description dt:dt=""string"">E-Prime Primary Realtime Clock</Description><StartTime><Timestamp dt:dt=""int"">0</Timestamp><DateUtc dt:dt=""string"">2014-05-02T20:59:56Z</DateUtc></StartTime><FrequencyChanges><FrequencyChange><Frequency dt:dt=""r8"">2793020000</Frequency><Timestamp dt:dt=""r8"">107740718431634</Timestamp><Current dt:dt=""r8"">0</Current><DateUtc dt:dt=""string"">2014-05-02T20:59:56Z</DateUtc></FrequencyChange></FrequencyChanges></Clock>\n",60.034,1,2006766429,0,,-999999,5,14339,t,107709,122048,5/2/2014,13:59:56,8:59:56 PM,1,Session1,SessionsList,,,,,,,,,,1,1,1,4,,585422,,,4,1,4,,,,Cued2,MiniBlocks1,,,,,2,1,b,-999999,5,618056,b,374,618430,White,Congruent,b,Green,0,,0,10,608061,,0,0,,,,2,1,2,,,,,,,Pictures\green.bmp,9000,10000,Pictures\black.bmp,,,,,,,,,,,,,StimulusPr,Pictures\right.bmp,CuedStim2,Right
POP_2,27013,1,"<?xml version=""1.0""?>\n<Clock xmlns:dt=""urn:schemas-microsoft-com:datatypes""><Description dt:dt=""string"">E-Prime Primary Realtime Clock</Description><StartTime><Timestamp dt:dt=""int"">0</Timestamp><DateUtc dt:dt=""string"">2014-05-02T20:59:56Z</DateUtc></StartTime><FrequencyChanges><FrequencyChange><Frequency dt:dt=""r8"">2793020000</Frequency><Timestamp dt:dt=""r8"">107740718431634</Timestamp><Current dt:dt=""r8"">0</Current><DateUtc dt:dt=""string"">2014-05-02T20:59:56Z</DateUtc></FrequencyChange></FrequencyChanges></Clock>\n",60.034,1,2006766429,0,,-999999,5,14339,t,107709,122048,5/2/2014,13:59:56,8:59:56 PM,1,Session1,SessionsList,,,,,,,,,,1,1,1,4,,585422,,,4,1,4,,,,Cued2,MiniBlocks1,,,,,3,1,r,-999999,8,634048,r,429,634477,White,Incongruent,r,Red,0,,0,10,630050,,0,0,,,,3,1,3,,,,,,,Pictures\red.bmp,3000,2000,Pictures\black.bmp,,,,,,,,,,,,,StimulusPr,Pictures\right.bmp,CuedStim2,Right
POP_2,27013,1,"<?xml version=""1.0""?>\n<Clock xmlns:dt=""urn:schemas-microsoft-com:datatypes""><Description dt:dt=""string"">E-Prime Primary Realtime Clock</Description><StartTime><Timestamp dt:dt=""int"">0</Timestamp><DateUtc dt:dt=""string"">2014-05-02T20:59:56Z</DateUtc></StartTime><FrequencyChanges><FrequencyChange><Frequency dt:dt=""r8"">2793020000</Frequency><Timestamp dt:dt=""r8"">107740718431634</Timestamp><Current dt:dt=""r8"">0</Current><DateUtc dt:dt=""string"">2014-05-02T20:59:56Z</DateUtc></FrequencyChange></FrequencyChanges></Clock>\n",60.034,1,2006766429,0,,-999999,5,14339,t,107709,122048,5/2/2014,13:59:56,8:59:56 PM,1,Session1,SessionsList,,,,,,,,,,1,1,1,4,,585422,,,4,1,4,,,,Cued2,MiniBlocks1,,,,,4,1,r,-999999,3,645043,r,309,645352,White,Congruent,r,Green,0,,0,12,638063,,0,0,,,,4,1,4,,,,,,,Pictures\green.bmp,6000,16000,Pictures\left.bmp,,,,,,,,,,,,,StimulusPr,Pictures\black.bmp,CuedStim2,Left
POP_2,27013,1,"<?xml version=""1.0""?>\n<Clock xmlns:dt=""urn:schemas-microsoft-com:datatypes""><Description dt:dt=""string"">E-Prime Primary Realtime Clock</Description><StartTime><Timestamp dt:dt=""int"">0</Timestamp><DateUtc dt:dt=""string"">2014-05-02T20:59:56Z</DateUtc></StartTime><FrequencyChanges><FrequencyChange><Frequency dt:dt=""r8"">2793020000</Frequency><Timestamp dt:dt=""r8"">107740718431634</Timestamp><Current dt:dt=""r8"">0</Current><DateUtc dt:dt=""string"">2014-05-02T20:59:56Z</DateUtc></FrequencyChange></FrequencyChanges></Clock>\n",60.034,1,2006766429,0,,-999999,5,14339,t,107709,122048,5/2/2014,13:59:56,8:59:56 PM,1,Session1,SessionsList,,,,,,,,,,1,1,1,4,,585422,,,4,1,4,,,,Cued2,MiniBlocks1,,,,,5,1,b,-999999,15,667065,b,318,667383,White,Congruent,b,Green,0,,0,10,663050,,0,0,,,,5,1,5,,,,,,,Pictures\green.bmp,3000,2000,Pictures\black.bmp,,,,,,,,,,,,,StimulusPr,Pictures\right.bmp,CuedStim2,Right
POP_2,27013,1,"<?xml version=""1.0""?>\n<Clock xmlns:dt=""urn:schemas-microsoft-com:datatypes""><Description dt:dt=""string"">E-Prime Primary Realtime Clock</Description><StartTime><Timestamp dt:dt=""int"">0</Timestamp><DateUtc dt:dt=""string"">2014-05-02T20:59:56Z</DateUtc></StartTime><FrequencyChanges><FrequencyChange><Frequency dt:dt=""r8"">2793020000</Frequency><Timestamp dt:dt=""r8"">107740718431634</Timestamp><Current dt:dt=""r8"">0</Current><DateUtc dt:dt=""string"">2014-05-02T20:59:56Z</DateUtc></FrequencyChange></FrequencyChanges></Clock>\n",60.034,1,2006766429,0,,-999999,5,14339,t,107709,122048,5/2/2014,13:59:56,8:59:56 PM,1,Session1,SessionsList,,,,,,,,,,1,1,1,4,,585422,,,4,1,4,,,,Cued2,MiniBlocks1,,,,,6,1,r,-999999,11,675061,r,322,675383,White,Congruent,r,Green,0,,0,6,671046,,0,0,,,,6,1,6,,,,,,,Pictures\green.bmp,3000,2000,Pictures\left.bmp,,,,,,,,,,,,,StimulusPr,Pictures\black.bmp,CuedStim2,Left
POP_2,27013,1,"<?xml version=""1.0""?>\n<Clock xmlns:dt=""urn:schemas-microsoft-com:datatypes""><Description dt:dt=""string"">E-Prime Primary Realtime Clock</Description><StartTime><Timestamp dt:dt=""int"">0</Timestamp><DateUtc dt:dt=""string"">2014-05-02T20:59:56Z</DateUtc></StartTime><FrequencyChanges><FrequencyChange><Frequency dt:dt=""r8"">2793020000</Frequency><Timestamp dt:dt=""r8"">107740718431634</Timestamp><Current dt:dt=""r8"">0</Current><DateUtc dt:dt=""string"">2014-05-02T20:59:56Z</DateUtc></FrequencyChange></FrequencyChanges></Clock>\n",60.034,1,2006766429,0,,-999999,5,14339,t,107709,122048,5/2/2014,13:59:56,8:59:56 PM,1,Session1,SessionsList,,,,,,,,,,1,1,1,4,,585422,,,4,1,4,,,,Cued2,MiniBlocks1,,,,,7,1,b,-999999,4,686056,b,421,686477,White,Incongruent,b,Red,0,,0,8,679059,,0,0,,,,7,1,7,,,,,,,Pictures\red.bmp,6000,4000,Pictures\left.bmp,,,,,,,,,,,,,StimulusPr,Pictures\black.bmp,CuedStim2,Left
POP_2,27013,1,"<?xml version=""1.0""?>\n<Clock xmlns:dt=""urn:schemas-microsoft-com:datatypes""><Description dt:dt=""string"">E-Prime Primary Realtime Clock</Description><StartTime><Timestamp dt:dt=""int"">0</Timestamp><DateUtc dt:dt=""string"">2014-05-02T20:59:56Z</DateUtc></StartTime><FrequencyChanges><FrequencyChange><Frequency dt:dt=""r8"">2793020000</Frequency><Timestamp dt:dt=""r8"">107740718431634</Timestamp><Current dt:dt=""r8"">0</Current><DateUtc dt:dt=""string"">2014-05-02T20:59:56Z</DateUtc></FrequencyChange></FrequencyChanges></Clock>\n",60.034,1,2006766429,0,,-999999,5,14339,t,107709,122048,5/2/2014,13:59:56,8:59:56 PM,1,Session1,SessionsList,,,,,,,,,,1,1,1,4,,585422,,,4,1,4,,,,Cued2,MiniBlocks1,,,,,8,1,b,-999999,15,697067,b,379,697446,White,Congruent,b,Green,0,,0,17,692069,,0,0,,,,8,1,8,,,,,,,Pictures\green.bmp,4000,4000,Pictures\black.bmp,,,,,,,,,,,,,StimulusPr,Pictures\right.bmp,CuedStim2,Right
POP_2,27013,1,"<?xml version=""1.0""?>\n<Clock xmlns:dt=""urn:schemas-microsoft-com:datatypes""><Description dt:dt=""string"">E-Prime Primary Realtime Clock</Description><StartTime><Timestamp dt:dt=""int"">0</Timestamp><DateUtc dt:dt=""string"">2014-05-02T20:59:56Z</DateUtc></StartTime><FrequencyChanges><FrequencyChange><Frequency dt:dt=""r8"">2793020000</Frequency><Timestamp dt:dt=""r8"">107740718431634</Timestamp><Current dt:dt=""r8"">0</Current><DateUtc dt:dt=""string"">2014-05-02T20:59:56Z</DateUtc></FrequencyChange></FrequencyChanges></Clock>\n",60.034,1,2006766429,0,,-999999,5,14339,t,107709,122048,5/2/2014,13:59:56,8:59:56 PM,1,Session1,SessionsList,,,,,,,,,,1,1,1,4,,585422,,,4,1,4,,,,Cued2,MiniBlocks1,,,,,9,1,b,-999999,7,713042,b,356,713398,White,Incongruent,b,Red,0,,0,15,703047,,0,0,,,,9,1,9,,,,,,,Pictures\red.bmp,9000,10000,Pictures\left.bmp,,,,,,,,,,,,,StimulusPr,Pictures\black.bmp,CuedStim2,Left
POP_2,27013,1,"<?xml version=""1.0""?>\n<Clock xmlns:dt=""urn:schemas-microsoft-com:datatypes""><Description dt:dt=""string"">E-Prime Primary Realtime Clock</Description><StartTime><Timestamp dt:dt=""int"">0</Timestamp><DateUtc dt:dt=""string"">2014-05-02T20:59:56Z</DateUtc></StartTime><FrequencyChanges><FrequencyChange><Frequency dt:dt=""r8"">2793020000</Frequency><Timestamp dt:dt=""r8"">107740718431634</Timestamp><Current dt:dt=""r8"">0</Current><DateUtc dt:dt=""string"">2014-05-02T20:59:56Z</DateUtc></FrequencyChange></FrequencyChanges></Clock>\n",60.034,1,2006766429,0,,-999999,5,14339,t,107709,122048,5/2/2014,13:59:56,8:59:56 PM,1,Session1,SessionsList,,,,,,,,,,1,1,1,4,,585422,,,4,1,4,,,,Cued2,MiniBlocks1,,,,,10,1,r,-999999,6,735048,r,352,735400,White,Congruent,r,Green,0,,0,2,725053,,0,0,,,,10,1,10,,,,,,,Pictures\green.bmp,9000,10000,Pictures\left.bmp,,,,,,,,,,,,,StimulusPr,Pictures\black.bmp,CuedStim2,Left
POP_2,27013,1,"<?xml version=""1.0""?>\n<Clock xmlns:dt=""urn:schemas-microsoft-com:datatypes""><Description dt:dt=""string"">E-Prime Primary Realtime Clock</Description><StartTime><Timestamp dt:dt=""int"">0</Timestamp><DateUtc dt:dt=""string"">2014-05-02T20:59:56Z</DateUtc></StartTime><FrequencyChanges><FrequencyChange><Frequency dt:dt=""r8"">2793020000</Frequency><Timestamp dt:dt=""r8"">107740718431634</Timestamp><Current dt:dt=""r8"">0</Current><DateUtc dt:dt=""string"">2014-05-02T20:59:56Z</DateUtc></FrequencyChange></FrequencyChanges></Clock>\n",60.034,1,2006766429,0,,-999999,5,14339,t,107709,122048,5/2/2014,13:59:56,8:59:56 PM,2,Session2,SessionsList,0,,-999999,9,784690,t,36780,821470,745426,2,1,2,1,,,,,,,,1,1,1,NonCued3,MiniBlocks2,,,821472,,1,1,b,-999999,10,841479,b,374,841853,Green,Congruent,b,White,0,,0,15,831484,,0,0,,,,,,,,,,,,,Pictures\white.bmp,9000,10000,Pictures\black.bmp,,,,,,,1,1,1,,,,StimulusPr,Pictures\GreenRight.bmp,NonCuedStim3,Right
POP_2,27013,1,"<?xml version=""1.0""?>\n<Clock xmlns:dt=""urn:schemas-microsoft-com:datatypes""><Description dt:dt=""string"">E-Prime Primary Realtime Clock</Description><StartTime><Timestamp dt:dt=""int"">0</Timestamp><DateUtc dt:dt=""string"">2014-05-02T20:59:56Z</DateUtc></StartTime><FrequencyChanges><FrequencyChange><Frequency dt:dt=""r8"">2793020000</Frequency><Timestamp dt:dt=""r8"">107740718431634</Timestamp><Current dt:dt=""r8"">0</Current><DateUtc dt:dt=""string"">2014-05-02T20:59:56Z</DateUtc></FrequencyChange></FrequencyChanges></Clock>\n",60.034,1,2006766429,0,,-999999,5,14339,t,107709,122048,5/2/2014,13:59:56,8:59:56 PM,2,Session2,SessionsList,0,,-999999,9,784690,t,36780,821470,745426,2,1,2,1,,,,,,,,1,1,1,NonCued3,MiniBlocks2,,,821472,,2,1,r,-999999,15,863484,r,494,863978,Red,Incongruent,r,White,0,,0,4,853473,,0,0,,,,,,,,,,,,,Pictures\white.bmp,9000,10000,Pictures\black.bmp,,,,,,,2,1,2,,,,StimulusPr,Pictures\RedRight.bmp,NonCuedStim3,Right
POP_2,27013,1,"<?xml version=""1.0""?>\n<Clock xmlns:dt=""urn:schemas-microsoft-com:datatypes""><Description dt:dt=""string"">E-Prime Primary Realtime Clock</Description><StartTime><Timestamp dt:dt=""int"">0</Timestamp><DateUtc dt:dt=""string"">2014-05-02T20:59:56Z</DateUtc></StartTime><FrequencyChanges><FrequencyChange><Frequency dt:dt=""r8"">2793020000</Frequency><Timestamp dt:dt=""r8"">107740718431634</Timestamp><Current dt:dt=""r8"">0</Current><DateUtc dt:dt=""string"">2014-05-02T20:59:56Z</DateUtc></FrequencyChange></FrequencyChanges></Clock>\n",60.034,1,2006766429,0,,-999999,5,14339,t,107709,122048,5/2/2014,13:59:56,8:59:56 PM,2,Session2,SessionsList,0,,-999999,9,784690,t,36780,821470,745426,2,1,2,1,,,,,,,,1,1,1,NonCued3,MiniBlocks2,,,821472,,3,0,r,-999999,7,880476,b,549,881025,Green,Congruent,r,White,0,,0,9,875478,,0,0,,,,,,,,,,,,,Pictures\white.bmp,4000,4000,Pictures\GreenLeft.bmp,,,,,,,3,1,3,,,,StimulusPr,Pictures\black.bmp,NonCuedStim3,Left
POP_2,27013,1,"<?xml version=""1.0""?>\n<Clock xmlns:dt=""urn:schemas-microsoft-com:datatypes""><Description dt:dt=""string"">E-Prime Primary Realtime Clock</Description><StartTime><Timestamp dt:dt=""int"">0</Timestamp><DateUtc dt:dt=""string"">2014-05-02T20:59:56Z</DateUtc></StartTime><FrequencyChanges><FrequencyChange><Frequency dt:dt=""r8"">2793020000</Frequency><Timestamp dt:dt=""r8"">107740718431634</Timestamp><Current dt:dt=""r8"">0</Current><DateUtc dt:dt=""string"">2014-05-02T20:59:56Z</DateUtc></FrequencyChange></FrequencyChanges></Clock>\n",60.034,1,2006766429,0,,-999999,5,14339,t,107709,122048,5/2/2014,13:59:56,8:59:56 PM,2,Session2,SessionsList,0,,-999999,9,784690,t,36780,821470,745426,2,1,2,1,,,,,,,,1,1,1,NonCued3,MiniBlocks2,,,821472,,4,1,b,-999999,8,893470,b,539,894009,Red,Incongruent,b,White,0,,0,4,886473,,0,0,,,,,,,,,,,,,Pictures\white.bmp,6000,4000,Pictures\RedLeft.bmp,,,,,,,4,1,4,,,,StimulusPr,Pictures\black.bmp,NonCuedStim3,Left
POP_2,27013,1,"<?xml version=""1.0""?>\n<Clock xmlns:dt=""urn:schemas-microsoft-com:datatypes""><Description dt:dt=""string"">E-Prime Primary Realtime Clock</Description><StartTime><Timestamp dt:dt=""int"">0</Timestamp><DateUtc dt:dt=""string"">2014-05-02T20:59:56Z</DateUtc></StartTime><FrequencyChanges><FrequencyChange><Frequency dt:dt=""r8"">2793020000</Frequency><Timestamp dt:dt=""r8"">107740718431634</Timestamp><Current dt:dt=""r8"">0</Current><DateUtc dt:dt=""string"">2014-05-02T20:59:56Z</DateUtc></FrequencyChange></FrequencyChanges></Clock>\n",60.034,1,2006766429,0,,-999999,5,14339,t,107709,122048,5/2/2014,13:59:56,8:59:56 PM,2,Session2,SessionsList,0,,-999999,9,784690,t,36780,821470,745426,2,1,2,1,,,,,,,,1,1,1,NonCued3,MiniBlocks2,,,821472,,5,1,b,-999999,16,903481,b,372,903853,Green,Congruent,b,White,0,,0,5,899467,,0,0,,,,,,,,,,,,,Pictures\white.bmp,3000,2000,Pictures\black.bmp,,,,,,,5,1,5,,,,StimulusPr,Pictures\GreenRight.bmp,NonCuedStim3,Right
POP_2,27013,1,"<?xml version=""1.0""?>\n<Clock xmlns:dt=""urn:schemas-microsoft-com:datatypes""><Description dt:dt=""string"">E-Prime Primary Realtime Clock</Description><StartTime><Timestamp dt:dt=""int"">0</Timestamp><DateUtc dt:dt=""string"">2014-05-02T20:59:56Z</DateUtc></StartTime><FrequencyChanges><FrequencyChange><Frequency dt:dt=""r8"">2793020000</Frequency><Timestamp dt:dt=""r8"">107740718431634</Timestamp><Current dt:dt=""r8"">0</Current><DateUtc dt:dt=""string"">2014-05-02T20:59:56Z</DateUtc></FrequencyChange></FrequencyChanges></Clock>\n",60.034,1,2006766429,0,,-999999,5,14339,t,107709,122048,5/2/2014,13:59:56,8:59:56 PM,2,Session2,SessionsList,0,,-999999,9,784690,t,36780,821470,745426,2,1,2,1,,,,,,,,1,1,1,NonCued3,MiniBlocks2,,,821472,,6,1,r,-999999,7,911477,r,438,911915,Green,Congruent,r,White,0,,0,10,907479,,0,0,,,,,,,,,,,,,Pictures\white.bmp,3000,2000,Pictures\GreenLeft.bmp,,,,,,,6,1,6,,,,StimulusPr,Pictures\black.bmp,NonCuedStim3,Left
POP_2,27013,1,"<?xml version=""1.0""?>\n<Clock xmlns:dt=""urn:schemas-microsoft-com:datatypes""><Description dt:dt=""string"">E-Prime Primary Realtime Clock</Description><StartTime><Timestamp dt:dt=""int"">0</Timestamp><DateUtc dt:dt=""string"">2014-05-02T20:59:56Z</DateUtc></StartTime><FrequencyChanges><FrequencyChange><Frequency dt:dt=""r8"">2793020000</Frequency><Timestamp dt:dt=""r8"">107740718431634</Timestamp><Current dt:dt=""r8"">0</Current><DateUtc dt:dt=""string"">2014-05-02T20:59:56Z</DateUtc></FrequencyChange></FrequencyChanges></Clock>\n",60.034,1,2006766429,0,,-999999,5,14339,t,107709,122048,5/2/2014,13:59:56,8:59:56 PM,2,Session2,SessionsList,0,,-999999,9,784690,t,36780,821470,745426,2,1,2,1,,,,,,,,1,1,1,NonCued3,MiniBlocks2,,,821472,,7,1,b,-999999,2,922472,b,334,922806,Green,Congruent,b,White,0,,0,5,915475,,0,0,,,,,,,,,,,,,Pictures\white.bmp,6000,16000,Pictures\black.bmp,,,,,,,7,1,7,,,,StimulusPr,Pictures\GreenRight.bmp,NonCuedStim3,Right
POP_2,27013,1,"<?xml version=""1.0""?>\n<Clock xmlns:dt=""urn:schemas-microsoft-com:datatypes""><Description dt:dt=""string"">E-Prime Primary Realtime Clock</Description><StartTime><Timestamp dt:dt=""int"">0</Timestamp><DateUtc dt:dt=""string"">2014-05-02T20:59:56Z</DateUtc></StartTime><FrequencyChanges><FrequencyChange><Frequency dt:dt=""r8"">2793020000</Frequency><Timestamp dt:dt=""r8"">107740718431634</Timestamp><Current dt:dt=""r8"">0</Current><DateUtc dt:dt=""string"">2014-05-02T20:59:56Z</DateUtc></FrequencyChange></FrequencyChanges></Clock>\n",60.034,1,2006766429,0,,-999999,5,14339,t,107709,122048,5/2/2014,13:59:56,8:59:56 PM,2,Session2,SessionsList,0,,-999999,9,784690,t,36780,821470,745426,2,1,2,1,,,,,,,,1,1,1,NonCued3,MiniBlocks2,,,821472,,8,1,r,-999999,5,944461,r,517,944978,Red,Incongruent,r,White,0,,0,13,940463,,0,0,,,,,,,,,,,,,Pictures\white.bmp,3000,2000,Pictures\black.bmp,,,,,,,8,1,8,,,,StimulusPr,Pictures\RedRight.bmp,NonCuedStim3,Right
POP_2,27013,1,"<?xml version=""1.0""?>\n<Clock xmlns:dt=""urn:schemas-microsoft-com:datatypes""><Description dt:dt=""string"">E-Prime Primary Realtime Clock</Description><StartTime><Timestamp dt:dt=""int"">0</Timestamp><DateUtc dt:dt=""string"">2014-05-02T20:59:56Z</DateUtc></StartTime><FrequencyChanges><FrequencyChange><Frequency dt:dt=""r8"">2793020000</Frequency><Timestamp dt:dt=""r8"">107740718431634</Timestamp><Current dt:dt=""r8"">0</Current><DateUtc dt:dt=""string"">2014-05-02T20:59:56Z</DateUtc></FrequencyChange></FrequencyChanges></Clock>\n",60.034,1,2006766429,0,,-999999,5,14339,t,107709,122048,5/2/2014,13:59:56,8:59:56 PM,2,Session2,SessionsList,0,,-999999,9,784690,t,36780,821470,745426,2,1,2,1,,,,,,,,1,1,1,NonCued3,MiniBlocks2,,,821472,,9,1,r,-999999,17,958487,r,386,958873,Green,Congruent,r,White,0,,0,6,948476,,0,0,,,,,,,,,,,,,Pictures\white.bmp,9000,10000,Pictures\GreenLeft.bmp,,,,,,,9,1,9,,,,StimulusPr,Pictures\black.bmp,NonCuedStim3,Left
POP_2,27013,1,"<?xml version=""1.0""?>\n<Clock xmlns:dt=""urn:schemas-microsoft-com:datatypes""><Description dt:dt=""string"">E-Prime Primary Realtime Clock</Description><StartTime><Timestamp dt:dt=""int"">0</Timestamp><DateUtc dt:dt=""string"">2014-05-02T20:59:56Z</DateUtc></StartTime><FrequencyChanges><FrequencyChange><Frequency dt:dt=""r8"">2793020000</Frequency><Timestamp dt:dt=""r8"">107740718431634</Timestamp><Current dt:dt=""r8"">0</Current><DateUtc dt:dt=""string"">2014-05-02T20:59:56Z</DateUtc></FrequencyChange></FrequencyChanges></Clock>\n",60.034,1,2006766429,0,,-999999,5,14339,t,107709,122048,5/2/2014,13:59:56,8:59:56 PM,2,Session2,SessionsList,0,,-999999,9,784690,t,36780,821470,745426,2,1,2,1,,,,,,,,1,1,1,NonCued3,MiniBlocks2,,,821472,,10,1,r,-999999,9,977478,r,404,977882,Green,Congruent,r,White,0,,0,5,970465,,0,0,,,,,,,,,,,,,Pictures\white.bmp,6000,4000,Pictures\GreenLeft.bmp,,,,,,,10,1,10,,,,StimulusPr,Pictures\black.bmp,NonCuedStim3,Left
POP_2,27013,1,"<?xml version=""1.0""?>\n<Clock xmlns:dt=""urn:schemas-microsoft-com:datatypes""><Description dt:dt=""string"">E-Prime Primary Realtime Clock</Description><StartTime><Timestamp dt:dt=""int"">0</Timestamp><DateUtc dt:dt=""string"">2014-05-02T20:59:56Z</DateUtc></StartTime><FrequencyChanges><FrequencyChange><Frequency dt:dt=""r8"">2793020000</Frequency><Timestamp dt:dt=""r8"">107740718431634</Timestamp><Current dt:dt=""r8"">0</Current><DateUtc dt:dt=""string"">2014-05-02T20:59:56Z</DateUtc></FrequencyChange></FrequencyChanges></Clock>\n",60.034,1,2006766429,0,,-999999,5,14339,t,107709,122048,5/2/2014,13:59:56,8:59:56 PM,2,Session2,SessionsList,0,,-999999,9,784690,t,36780,821470,745426,2,1,2,2,,,981909,,,,,2,1,2,Cued3,MiniBlocks2,,,,,1,1,b,-999999,17,995486,b,461,995947,White,Congruent,b,Green,0,,0,15,991471,,0,0,,,,,,,1,1,1,,,,Pictures\green.bmp,3000,2000,Pictures\black.bmp,,,,,,,,,,,,,StimulusPr,Pictures\right.bmp,CuedStim3,Right
POP_2,27013,1,"<?xml version=""1.0""?>\n<Clock xmlns:dt=""urn:schemas-microsoft-com:datatypes""><Description dt:dt=""string"">E-Prime Primary Realtime Clock</Description><StartTime><Timestamp dt:dt=""int"">0</Timestamp><DateUtc dt:dt=""string"">2014-05-02T20:59:56Z</DateUtc></StartTime><FrequencyChanges><FrequencyChange><Frequency dt:dt=""r8"">2793020000</Frequency><Timestamp dt:dt=""r8"">107740718431634</Timestamp><Current dt:dt=""r8"">0</Current><DateUtc dt:dt=""string"">2014-05-02T20:59:56Z</DateUtc></FrequencyChange></FrequencyChanges></Clock>\n",60.034,1,2006766429,0,,-999999,5,14339,t,107709,122048,5/2/2014,13:59:56,8:59:56 PM,2,Session2,SessionsList,0,,-999999,9,784690,t,36780,821470,745426,2,1,2,2,,,981909,,,,,2,1,2,Cued3,MiniBlocks2,,,,,2,1,b,-999999,12,1003482,b,340,1003822,White,Congruent,b,Green,0,,0,14,999484,,0,0,,,,,,,2,1,2,,,,Pictures\green.bmp,3000,10000,Pictures\black.bmp,,,,,,,,,,,,,StimulusPr,Pictures\right.bmp,CuedStim3,Right
POP_2,27013,1,"<?xml version=""1.0""?>\n<Clock xmlns:dt=""urn:schemas-microsoft-com:datatypes""><Description dt:dt=""string"">E-Prime Primary Realtime Clock</Description><StartTime><Timestamp dt:dt=""int"">0</Timestamp><DateUtc dt:dt=""string"">2014-05-02T20:59:56Z</DateUtc></StartTime><FrequencyChanges><FrequencyChange><Frequency dt:dt=""r8"">2793020000</Frequency><Timestamp dt:dt=""r8"">107740718431634</Timestamp><Current dt:dt=""r8"">0</Current><DateUtc dt:dt=""string"">2014-05-02T20:59:56Z</DateUtc></FrequencyChange></FrequencyChanges></Clock>\n",60.034,1,2006766429,0,,-999999,5,14339,t,107709,122048,5/2/2014,13:59:56,8:59:56 PM,2,Session2,SessionsList,0,,-999999,9,784690,t,36780,821470,745426,2,1,2,2,,,981909,,,,,2,1,2,Cued3,MiniBlocks2,,,,,3,1,r,-999999,18,1025488,r,365,1025853,White,Congruent,r,Green,0,,0,6,1015476,,0,0,,,,,,,3,1,3,,,,Pictures\green.bmp,9000,2000,Pictures\left.bmp,,,,,,,,,,,,,StimulusPr,Pictures\black.bmp,CuedStim3,Left
POP_2,27013,1,"<?xml version=""1.0""?>\n<Clock xmlns:dt=""urn:schemas-microsoft-com:datatypes""><Description dt:dt=""string"">E-Prime Primary Realtime Clock</Description><StartTime><Timestamp dt:dt=""int"">0</Timestamp><DateUtc dt:dt=""string"">2014-05-02T20:59:56Z</DateUtc></StartTime><FrequencyChanges><FrequencyChange><Frequency dt:dt=""r8"">2793020000</Frequency><Timestamp dt:dt=""r8"">107740718431634</Timestamp><Current dt:dt=""r8"">0</Current><DateUtc dt:dt=""string"">2014-05-02T20:59:56Z</DateUtc></FrequencyChange></FrequencyChanges></Clock>\n",60.034,1,2006766429,0,,-999999,5,14339,t,107709,122048,5/2/2014,13:59:56,8:59:56 PM,2,Session2,SessionsList,0,,-999999,9,784690,t,36780,821470,745426,2,1,2,2,,,981909,,,,,2,1,2,Cued3,MiniBlocks2,,,,,4,1,r,-999999,13,1034483,r,429,1034912,White,Congruent,r,Green,0,,0,15,1029485,,0,0,,,,,,,4,1,4,,,,Pictures\green.bmp,4000,16000,Pictures\left.bmp,,,,,,,,,,,,,StimulusPr,Pictures\black.bmp,CuedStim3,Left
POP_2,27013,1,"<?xml version=""1.0""?>\n<Clock xmlns:dt=""urn:schemas-microsoft-com:datatypes""><Description dt:dt=""string"">E-Prime Primary Realtime Clock</Description><StartTime><Timestamp dt:dt=""int"">0</Timestamp><DateUtc dt:dt=""string"">2014-05-02T20:59:56Z</DateUtc></StartTime><FrequencyChanges><FrequencyChange><Frequency dt:dt=""r8"">2793020000</Frequency><Timestamp dt:dt=""r8"">107740718431634</Timestamp><Current dt:dt=""r8"">0</Current><DateUtc dt:dt=""string"">2014-05-02T20:59:56Z</DateUtc></FrequencyChange></FrequencyChanges></Clock>\n",60.034,1,2006766429,0,,-999999,5,14339,t,107709,122048,5/2/2014,13:59:56,8:59:56 PM,2,Session2,SessionsList,0,,-999999,9,784690,t,36780,821470,745426,2,1,2,2,,,981909,,,,,2,1,2,Cued3,MiniBlocks2,,,,,5,1,r,-999999,19,1056489,r,489,1056978,White,Incongruent,r,Red,0,,0,4,1052474,,0,0,,,,,,,5,1,5,,,,Pictures\red.bmp,3000,4000,Pictures\black.bmp,,,,,,,,,,,,,StimulusPr,Pictures\right.bmp,CuedStim3,Right
POP_2,27013,1,"<?xml version=""1.0""?>\n<Clock xmlns:dt=""urn:schemas-microsoft-com:datatypes""><Description dt:dt=""string"">E-Prime Primary Realtime Clock</Description><StartTime><Timestamp dt:dt=""int"">0</Timestamp><DateUtc dt:dt=""string"">2014-05-02T20:59:56Z</DateUtc></StartTime><FrequencyChanges><FrequencyChange><Frequency dt:dt=""r8"">2793020000</Frequency><Timestamp dt:dt=""r8"">107740718431634</Timestamp><Current dt:dt=""r8"">0</Current><DateUtc dt:dt=""string"">2014-05-02T20:59:56Z</DateUtc></FrequencyChange></FrequencyChanges></Clock>\n",60.034,1,2006766429,0,,-999999,5,14339,t,107709,122048,5/2/2014,13:59:56,8:59:56 PM,2,Session2,SessionsList,0,,-999999,9,784690,t,36780,821470,745426,2,1,2,2,,,981909,,,,,2,1,2,Cued3,MiniBlocks2,,,,,6,1,b,-999999,12,1069482,b,402,1069884,White,Congruent,b,Green,0,,0,16,1062486,,0,0,,,,,,,6,1,6,,,,Pictures\green.bmp,6000,4000,Pictures\black.bmp,,,,,,,,,,,,,StimulusPr,Pictures\right.bmp,CuedStim3,Right
POP_2,27013,1,"<?xml version=""1.0""?>\n<Clock xmlns:dt=""urn:schemas-microsoft-com:datatypes""><Description dt:dt=""string"">E-Prime Primary Realtime Clock</Description><StartTime><Timestamp dt:dt=""int"">0</Timestamp><DateUtc dt:dt=""string"">2014-05-02T20:59:56Z</DateUtc></StartTime><FrequencyChanges><FrequencyChange><Frequency dt:dt=""r8"">2793020000</Frequency><Timestamp dt:dt=""r8"">107740718431634</Timestamp><Current dt:dt=""r8"">0</Current><DateUtc dt:dt=""string"">2014-05-02T20:59:56Z</DateUtc></FrequencyChange></FrequencyChanges></Clock>\n",60.034,1,2006766429,0,,-999999,5,14339,t,107709,122048,5/2/2014,13:59:56,8:59:56 PM,2,Session2,SessionsList,0,,-999999,9,784690,t,36780,821470,745426,2,1,2,2,,,981909,,,,,2,1,2,Cued3,MiniBlocks2,,,,,7,1,r,-999999,3,1080460,r,344,1080804,White,Congruent,r,Green,0,,0,9,1075479,,0,0,,,,,,,7,1,7,,,,Pictures\green.bmp,4000,16000,Pictures\left.bmp,,,,,,,,,,,,,StimulusPr,Pictures\black.bmp,CuedStim3,Left
POP_2,27013,1,"<?xml version=""1.0""?>\n<Clock xmlns:dt=""urn:schemas-microsoft-com:datatypes""><Description dt:dt=""string"">E-Prime Primary Realtime Clock</Description><StartTime><Timestamp dt:dt=""int"">0</Timestamp><DateUtc dt:dt=""string"">2014-05-02T20:59:56Z</DateUtc></StartTime><FrequencyChanges><FrequencyChange><Frequency dt:dt=""r8"">2793020000</Frequency><Timestamp dt:dt=""r8"">107740718431634</Timestamp><Current dt:dt=""r8"">0</Current><DateUtc dt:dt=""string"">2014-05-02T20:59:56Z</DateUtc></FrequencyChange></FrequencyChanges></Clock>\n",60.034,1,2006766429,0,,-999999,5,14339,t,107709,122048,5/2/2014,13:59:56,8:59:56 PM,2,Session2,SessionsList,0,,-999999,9,784690,t,36780,821470,745426,2,1,2,2,,,981909,,,,,2,1,2,Cued3,MiniBlocks2,,,,,8,1,b,-999999,13,1102483,b,338,1102821,White,Incongruent,b,Red,0,,0,5,1098468,,0,0,,,,,,,8,1,8,,,,Pictures\red.bmp,3000,2000,Pictures\left.bmp,,,,,,,,,,,,,StimulusPr,Pictures\black.bmp,CuedStim3,Left
POP_2,27013,1,"<?xml version=""1.0""?>\n<Clock xmlns:dt=""urn:schemas-microsoft-com:datatypes""><Description dt:dt=""string"">E-Prime Primary Realtime Clock</Description><StartTime><Timestamp dt:dt=""int"">0</Timestamp><DateUtc dt:dt=""string"">2014-05-02T20:59:56Z</DateUtc></StartTime><FrequencyChanges><FrequencyChange><Frequency dt:dt=""r8"">2793020000</Frequency><Timestamp dt:dt=""r8"">107740718431634</Timestamp><Current dt:dt=""r8"">0</Current><DateUtc dt:dt=""string"">2014-05-02T20:59:56Z</DateUtc></FrequencyChange></FrequencyChanges></Clock>\n",60.034,1,2006766429,0,,-999999,5,14339,t,107709,122048,5/2/2014,13:59:56,8:59:56 PM,2,Session2,SessionsList,0,,-999999,9,784690,t,36780,821470,745426,2,1,2,2,,,981909,,,,,2,1,2,Cued3,MiniBlocks2,,,,,9,1,r,-999999,9,1110479,r,343,1110822,White,Congruent,r,Green,0,,0,11,1106481,,0,0,,,,,,,9,1,9,,,,Pictures\green.bmp,3000,2000,Pictures\left.bmp,,,,,,,,,,,,,StimulusPr,Pictures\black.bmp,CuedStim3,Left
POP_2,27013,1,"<?xml version=""1.0""?>\n<Clock xmlns:dt=""urn:schemas-microsoft-com:datatypes""><Description dt:dt=""string"">E-Prime Primary Realtime Clock</Description><StartTime><Timestamp dt:dt=""int"">0</Timestamp><DateUtc dt:dt=""string"">2014-05-02T20:59:56Z</DateUtc></StartTime><FrequencyChanges><FrequencyChange><Frequency dt:dt=""r8"">2793020000</Frequency><Timestamp dt:dt=""r8"">107740718431634</Timestamp><Current dt:dt=""r8"">0</Current><DateUtc dt:dt=""string"">2014-05-02T20:59:56Z</DateUtc></FrequencyChange></FrequencyChanges></Clock>\n",60.034,1,2006766429,0,,-999999,5,14339,t,107709,122048,5/2/2014,13:59:56,8:59:56 PM,2,Session2,SessionsList,0,,-999999,9,784690,t,36780,821470,745426,2,1,2,2,,,981909,,,,,2,1,2,Cued3,MiniBlocks2,,,,,10,1,b,-999999,18,1124488,b,334,1124822,White,Congruent,b,Green,0,,0,7,1114477,,0,0,,,,,,,10,1,10,,,,Pictures\green.bmp,9000,10000,Pictures\black.bmp,,,,,,,,,,,,,StimulusPr,Pictures\right.bmp,CuedStim3,Right
POP_2,27013,1,"<?xml version=""1.0""?>\n<Clock xmlns:dt=""urn:schemas-microsoft-com:datatypes""><Description dt:dt=""string"">E-Prime Primary Realtime Clock</Description><StartTime><Timestamp dt:dt=""int"">0</Timestamp><DateUtc dt:dt=""string"">2014-05-02T20:59:56Z</DateUtc></StartTime><FrequencyChanges><FrequencyChange><Frequency dt:dt=""r8"">2793020000</Frequency><Timestamp dt:dt=""r8"">107740718431634</Timestamp><Current dt:dt=""r8"">0</Current><DateUtc dt:dt=""string"">2014-05-02T20:59:56Z</DateUtc></FrequencyChange></FrequencyChanges></Clock>\n",60.034,1,2006766429,0,,-999999,5,14339,t,107709,122048,5/2/2014,13:59:56,8:59:56 PM,2,Session2,SessionsList,0,,-999999,9,784690,t,36780,821470,745426,2,1,2,3,,,,1134850,,,,3,1,3,Cued4,MiniBlocks2,,,,,1,1,b,-999999,15,1151475,b,425,1151900,White,Congruent,b,Green,0,,0,8,1144478,,0,0,,,,,,,,,,1,1,1,Pictures\green.bmp,6000,2000,Pictures\black.bmp,,,,,,,,,,,,,StimulusPr,Pictures\right.bmp,CuedStim4,Right
POP_2,27013,1,"<?xml version=""1.0""?>\n<Clock xmlns:dt=""urn:schemas-microsoft-com:datatypes""><Description dt:dt=""string"">E-Prime Primary Realtime Clock</Description><StartTime><Timestamp dt:dt=""int"">0</Timestamp><DateUtc dt:dt=""string"">2014-05-02T20:59:56Z</DateUtc></StartTime><FrequencyChanges><FrequencyChange><Frequency dt:dt=""r8"">2793020000</Frequency><Timestamp dt:dt=""r8"">107740718431634</Timestamp><Current dt:dt=""r8"">0</Current><DateUtc dt:dt=""string"">2014-05-02T20:59:56Z</DateUtc></FrequencyChange></FrequencyChanges></Clock>\n",60.034,1,2006766429,0,,-999999,5,14339,t,107709,122048,5/2/2014,13:59:56,8:59:56 PM,2,Session2,SessionsList,0,,-999999,9,784690,t,36780,821470,745426,2,1,2,3,,,,1134850,,,,3,1,3,Cued4,MiniBlocks2,,,,,2,1,r,-999999,15,1165485,r,433,1165918,White,Incongruent,r,Red,0,,0,3,1155473,,0,0,,,,,,,,,,2,1,2,Pictures\red.bmp,9000,2000,Pictures\black.bmp,,,,,,,,,,,,,StimulusPr,Pictures\right.bmp,CuedStim4,Right
POP_2,27013,1,"<?xml version=""1.0""?>\n<Clock xmlns:dt=""urn:schemas-microsoft-com:datatypes""><Description dt:dt=""string"">E-Prime Primary Realtime Clock</Description><StartTime><Timestamp dt:dt=""int"">0</Timestamp><DateUtc dt:dt=""string"">2014-05-02T20:59:56Z</DateUtc></StartTime><FrequencyChanges><FrequencyChange><Frequency dt:dt=""r8"">2793020000</Frequency><Timestamp dt:dt=""r8"">107740718431634</Timestamp><Current dt:dt=""r8"">0</Current><DateUtc dt:dt=""string"">2014-05-02T20:59:56Z</DateUtc></FrequencyChange></FrequencyChanges></Clock>\n",60.034,1,2006766429,0,,-999999,5,14339,t,107709,122048,5/2/2014,13:59:56,8:59:56 PM,2,Session2,SessionsList,0,,-999999,9,784690,t,36780,821470,745426,2,1,2,3,,,,1134850,,,,3,1,3,Cued4,MiniBlocks2,,,,,3,1,b,-999999,10,1173481,b,404,1173885,White,Congruent,b,Green,0,,0,13,1169483,,0,0,,,,,,,,,,3,1,3,Pictures\green.bmp,3000,4000,Pictures\black.bmp,,,,,,,,,,,,,StimulusPr,Pictures\right.bmp,CuedStim4,Right
POP_2,27013,1,"<?xml version=""1.0""?>\n<Clock xmlns:dt=""urn:schemas-microsoft-com:datatypes""><Description dt:dt=""string"">E-Prime Primary Realtime Clock</Description><StartTime><Timestamp dt:dt=""int"">0</Timestamp><DateUtc dt:dt=""string"">2014-05-02T20:59:56Z</DateUtc></StartTime><FrequencyChanges><FrequencyChange><Frequency dt:dt=""r8"">2793020000</Frequency><Timestamp dt:dt=""r8"">107740718431634</Timestamp><Current dt:dt=""r8"">0</Current><DateUtc dt:dt=""string"">2014-05-02T20:59:56Z</DateUtc></FrequencyChange></FrequencyChanges></Clock>\n",60.034,1,2006766429,0,,-999999,5,14339,t,107709,122048,5/2/2014,13:59:56,8:59:56 PM,2,Session2,SessionsList,0,,-999999,9,784690,t,36780,821470,745426,2,1,2,3,,,,1134850,,,,3,1,3,Cued4,MiniBlocks2,,,,,4,1,r,-999999,5,1183476,r,393,1183869,White,Congruent,r,Green,0,,0,7,1179478,,0,0,,,,,,,,,,4,1,4,Pictures\green.bmp,3000,4000,Pictures\left.bmp,,,,,,,,,,,,,StimulusPr,Pictures\black.bmp,CuedStim4,Left
POP_2,27013,1,"<?xml version=""1.0""?>\n<Clock xmlns:dt=""urn:schemas-microsoft-com:datatypes""><Description dt:dt=""string"">E-Prime Primary Realtime Clock</Description><StartTime><Timestamp dt:dt=""int"">0</Timestamp><DateUtc dt:dt=""string"">2014-05-02T20:59:56Z</DateUtc></StartTime><FrequencyChanges><FrequencyChange><Frequency dt:dt=""r8"">2793020000</Frequency><Timestamp dt:dt=""r8"">107740718431634</Timestamp><Current dt:dt=""r8"">0</Current><DateUtc dt:dt=""string"">2014-05-02T20:59:56Z</DateUtc></FrequencyChange></FrequencyChanges></Clock>\n",60.034,1,2006766429,0,,-999999,5,14339,t,107709,122048,5/2/2014,13:59:56,8:59:56 PM,2,Session2,SessionsList,0,,-999999,9,784690,t,36780,821470,745426,2,1,2,3,,,,1134850,,,,3,1,3,Cued4,MiniBlocks2,,,,,5,1,b,-999999,19,1194487,b,366,1194853,White,Incongruent,b,Red,0,,0,15,1189473,,0,0,,,,,,,,,,5,1,5,Pictures\red.bmp,4000,16000,Pictures\left.bmp,,,,,,,,,,,,,StimulusPr,Pictures\black.bmp,CuedStim4,Left
POP_2,27013,1,"<?xml version=""1.0""?>\n<Clock xmlns:dt=""urn:schemas-microsoft-com:datatypes""><Description dt:dt=""string"">E-Prime Primary Realtime Clock</Description><StartTime><Timestamp dt:dt=""int"">0</Timestamp><DateUtc dt:dt=""string"">2014-05-02T20:59:56Z</DateUtc></StartTime><FrequencyChanges><FrequencyChange><Frequency dt:dt=""r8"">2793020000</Frequency><Timestamp dt:dt=""r8"">107740718431634</Timestamp><Current dt:dt=""r8"">0</Current><DateUtc dt:dt=""string"">2014-05-02T20:59:56Z</DateUtc></FrequencyChange></FrequencyChanges></Clock>\n",60.034,1,2006766429,0,,-999999,5,14339,t,107709,122048,5/2/2014,13:59:56,8:59:56 PM,2,Session2,SessionsList,0,,-999999,9,784690,t,36780,821470,745426,2,1,2,3,,,,1134850,,,,3,1,3,Cued4,MiniBlocks2,,,,,6,1,b,-999999,5,1216476,b,502,1216978,White,Congruent,b,Green,0,,0,7,1212478,,0,0,,,,,,,,,,6,1,6,Pictures\green.bmp,3000,2000,Pictures\black.bmp,,,,,,,,,,,,,StimulusPr,Pictures\right.bmp,CuedStim4,Right
POP_2,27013,1,"<?xml version=""1.0""?>\n<Clock xmlns:dt=""urn:schemas-microsoft-com:datatypes""><Description dt:dt=""string"">E-Prime Primary Realtime Clock</Description><StartTime><Timestamp dt:dt=""int"">0</Timestamp><DateUtc dt:dt=""string"">2014-05-02T20:59:56Z</DateUtc></StartTime><FrequencyChanges><FrequencyChange><Frequency dt:dt=""r8"">2793020000</Frequency><Timestamp dt:dt=""r8"">107740718431634</Timestamp><Current dt:dt=""r8"">0</Current><DateUtc dt:dt=""string"">2014-05-02T20:59:56Z</DateUtc></FrequencyChange></FrequencyChanges></Clock>\n",60.034,1,2006766429,0,,-999999,5,14339,t,107709,122048,5/2/2014,13:59:56,8:59:56 PM,2,Session2,SessionsList,0,,-999999,9,784690,t,36780,821470,745426,2,1,2,3,,,,1134850,,,,3,1,3,Cued4,MiniBlocks2,,,,,7,1,b,-999999,13,1230469,b,431,1230900,White,Congruent,b,Green,0,,0,3,1220474,,0,0,,,,,,,,,,7,1,7,Pictures\green.bmp,9000,10000,Pictures\black.bmp,,,,,,,,,,,,,StimulusPr,Pictures\right.bmp,CuedStim4,Right
POP_2,27013,1,"<?xml version=""1.0""?>\n<Clock xmlns:dt=""urn:schemas-microsoft-com:datatypes""><Description dt:dt=""string"">E-Prime Primary Realtime Clock</Description><StartTime><Timestamp dt:dt=""int"">0</Timestamp><DateUtc dt:dt=""string"">2014-05-02T20:59:56Z</DateUtc></StartTime><FrequencyChanges><FrequencyChange><Frequency dt:dt=""r8"">2793020000</Frequency><Timestamp dt:dt=""r8"">107740718431634</Timestamp><Current dt:dt=""r8"">0</Current><DateUtc dt:dt=""string"">2014-05-02T20:59:56Z</DateUtc></FrequencyChange></FrequencyChanges></Clock>\n",60.034,1,2006766429,0,,-999999,5,14339,t,107709,122048,5/2/2014,13:59:56,8:59:56 PM,2,Session2,SessionsList,0,,-999999,9,784690,t,36780,821470,745426,2,1,2,3,,,,1134850,,,,3,1,3,Cued4,MiniBlocks2,,,,,8,1,b,-999999,6,1249476,b,325,1249801,White,Incongruent,b,Red,0,,0,9,1242480,,0,0,,,,,,,,,,8,1,8,Pictures\red.bmp,6000,10000,Pictures\left.bmp,,,,,,,,,,,,,StimulusPr,Pictures\black.bmp,CuedStim4,Left
POP_2,27013,1,"<?xml version=""1.0""?>\n<Clock xmlns:dt=""urn:schemas-microsoft-com:datatypes""><Description dt:dt=""string"">E-Prime Primary Realtime Clock</Description><StartTime><Timestamp dt:dt=""int"">0</Timestamp><DateUtc dt:dt=""string"">2014-05-02T20:59:56Z</DateUtc></StartTime><FrequencyChanges><FrequencyChange><Frequency dt:dt=""r8"">2793020000</Frequency><Timestamp dt:dt=""r8"">107740718431634</Timestamp><Current dt:dt=""r8"">0</Current><DateUtc dt:dt=""string"">2014-05-02T20:59:56Z</DateUtc></FrequencyChange></FrequencyChanges></Clock>\n",60.034,1,2006766429,0,,-999999,5,14339,t,107709,122048,5/2/2014,13:59:56,8:59:56 PM,2,Session2,SessionsList,0,,-999999,9,784690,t,36780,821470,745426,2,1,2,3,,,,1134850,,,,3,1,3,Cued4,MiniBlocks2,,,,,9,1,r,-999999,13,1268484,r,417,1268901,White,Congruent,r,Green,0,,0,7,1261470,,0,0,,,,,,,,,,9,1,9,Pictures\green.bmp,6000,16000,Pictures\left.bmp,,,,,,,,,,,,,StimulusPr,Pictures\black.bmp,CuedStim4,Left
POP_2,27013,1,"<?xml version=""1.0""?>\n<Clock xmlns:dt=""urn:schemas-microsoft-com:datatypes""><Description dt:dt=""string"">E-Prime Primary Realtime Clock</Description><StartTime><Timestamp dt:dt=""int"">0</Timestamp><DateUtc dt:dt=""string"">2014-05-02T20:59:56Z</DateUtc></StartTime><FrequencyChanges><FrequencyChange><Frequency dt:dt=""r8"">2793020000</Frequency><Timestamp dt:dt=""r8"">107740718431634</Timestamp><Current dt:dt=""r8"">0</Current><DateUtc dt:dt=""string"">2014-05-02T20:59:56Z</DateUtc></FrequencyChange></FrequencyChanges></Clock>\n",60.034,1,2006766429,0,,-999999,5,14339,t,107709,122048,5/2/2014,13:59:56,8:59:56 PM,2,Session2,SessionsList,0,,-999999,9,784690,t,36780,821470,745426,2,1,2,3,,,,1134850,,,,3,1,3,Cued4,MiniBlocks2,,,,,10,1,r,-999999,18,1291489,r,307,1291796,White,Congruent,r,Green,0,,0,4,1286475,,0,0,,,,,,,,,,10,1,10,Pictures\green.bmp,4000,2000,Pictures\left.bmp,,,,,,,,,,,,,StimulusPr,Pictures\black.bmp,CuedStim4,Left
POP_2,27013,1,"<?xml version=""1.0""?>\n<Clock xmlns:dt=""urn:schemas-microsoft-com:datatypes""><Description dt:dt=""string"">E-Prime Primary Realtime Clock</Description><StartTime><Timestamp dt:dt=""int"">0</Timestamp><DateUtc dt:dt=""string"">2014-05-02T20:59:56Z</DateUtc></StartTime><FrequencyChanges><FrequencyChange><Frequency dt:dt=""r8"">2793020000</Frequency><Timestamp dt:dt=""r8"">107740718431634</Timestamp><Current dt:dt=""r8"">0</Current><DateUtc dt:dt=""string"">2014-05-02T20:59:56Z</DateUtc></FrequencyChange></FrequencyChanges></Clock>\n",60.034,1,2006766429,0,,-999999,5,14339,t,107709,122048,5/2/2014,13:59:56,8:59:56 PM,2,Session2,SessionsList,0,,-999999,9,784690,t,36780,821470,745426,2,1,2,4,,,,,,,,4,1,4,NonCued4,MiniBlocks2,,,,1293821,1,1,r,-999999,10,1307481,r,467,1307948,Green,Congruent,r,White,0,,0,11,1303483,,0,0,,,,,,,,,,,,,Pictures\white.bmp,3000,2000,Pictures\GreenLeft.bmp,,,,,,,,,,1,1,1,StimulusPr,Pictures\black.bmp,NonCuedStim4,Left
POP_2,27013,1,"<?xml version=""1.0""?>\n<Clock xmlns:dt=""urn:schemas-microsoft-com:datatypes""><Description dt:dt=""string"">E-Prime Primary Realtime Clock</Description><StartTime><Timestamp dt:dt=""int"">0</Timestamp><DateUtc dt:dt=""string"">2014-05-02T20:59:56Z</DateUtc></StartTime><FrequencyChanges><FrequencyChange><Frequency dt:dt=""r8"">2793020000</Frequency><Timestamp dt:dt=""r8"">107740718431634</Timestamp><Current dt:dt=""r8"">0</Current><DateUtc dt:dt=""string"">2014-05-02T20:59:56Z</DateUtc></FrequencyChange></FrequencyChanges></Clock>\n",60.034,1,2006766429,0,,-999999,5,14339,t,107709,122048,5/2/2014,13:59:56,8:59:56 PM,2,Session2,SessionsList,0,,-999999,9,784690,t,36780,821470,745426,2,1,2,4,,,,,,,,4,1,4,NonCued4,MiniBlocks2,,,,1293821,2,1,r,-999999,6,1316477,r,330,1316807,Green,Congruent,r,White,0,,0,8,1311479,,0,0,,,,,,,,,,,,,Pictures\white.bmp,4000,2000,Pictures\GreenLeft.bmp,,,,,,,,,,2,1,2,StimulusPr,Pictures\black.bmp,NonCuedStim4,Left
POP_2,27013,1,"<?xml version=""1.0""?>\n<Clock xmlns:dt=""urn:schemas-microsoft-com:datatypes""><Description dt:dt=""string"">E-Prime Primary Realtime Clock</Description><StartTime><Timestamp dt:dt=""int"">0</Timestamp><DateUtc dt:dt=""string"">2014-05-02T20:59:56Z</DateUtc></StartTime><FrequencyChanges><FrequencyChange><Frequency dt:dt=""r8"">2793020000</Frequency><Timestamp dt:dt=""r8"">107740718431634</Timestamp><Current dt:dt=""r8"">0</Current><DateUtc dt:dt=""string"">2014-05-02T20:59:56Z</DateUtc></FrequencyChange></FrequencyChanges></Clock>\n",60.034,1,2006766429,0,,-999999,5,14339,t,107709,122048,5/2/2014,13:59:56,8:59:56 PM,2,Session2,SessionsList,0,,-999999,9,784690,t,36780,821470,745426,2,1,2,4,,,,,,,,4,1,4,NonCued4,MiniBlocks2,,,,1293821,3,1,r,-999999,18,1325489,r,459,1325948,Red,Incongruent,r,White,0,,0,12,1320475,,0,0,,,,,,,,,,,,,Pictures\white.bmp,4000,2000,Pictures\black.bmp,,,,,,,,,,3,1,3,StimulusPr,Pictures\RedRight.bmp,NonCuedStim4,Right
POP_2,27013,1,"<?xml version=""1.0""?>\n<Clock xmlns:dt=""urn:schemas-microsoft-com:datatypes""><Description dt:dt=""string"">E-Prime Primary Realtime Clock</Description><StartTime><Timestamp dt:dt=""int"">0</Timestamp><DateUtc dt:dt=""string"">2014-05-02T20:59:56Z</DateUtc></StartTime><FrequencyChanges><FrequencyChange><Frequency dt:dt=""r8"">2793020000</Frequency><Timestamp dt:dt=""r8"">107740718431634</Timestamp><Current dt:dt=""r8"">0</Current><DateUtc dt:dt=""string"">2014-05-02T20:59:56Z</DateUtc></FrequencyChange></FrequencyChanges></Clock>\n",60.034,1,2006766429,0,,-999999,5,14339,t,107709,122048,5/2/2014,13:59:56,8:59:56 PM,2,Session2,SessionsList,0,,-999999,9,784690,t,36780,821470,745426,2,1,2,4,,,,,,,,4,1,4,NonCued4,MiniBlocks2,,,,1293821,4,0,b,-999999,14,1333485,r,384,1333869,Green,Congruent,b,White,0,,0,16,1329487,,0,0,,,,,,,,,,,,,Pictures\white.bmp,3000,16000,Pictures\black.bmp,,,,,,,,,,4,1,4,StimulusPr,Pictures\GreenRight.bmp,NonCuedStim4,Right
POP_2,27013,1,"<?xml version=""1.0""?>\n<Clock xmlns:dt=""urn:schemas-microsoft-com:datatypes""><Description dt:dt=""string"">E-Prime Primary Realtime Clock</Description><StartTime><Timestamp dt:dt=""int"">0</Timestamp><DateUtc dt:dt=""string"">2014-05-02T20:59:56Z</DateUtc></StartTime><FrequencyChanges><FrequencyChange><Frequency dt:dt=""r8"">2793020000</Frequency><Timestamp dt:dt=""r8"">107740718431634</Timestamp><Current dt:dt=""r8"">0</Current><DateUtc dt:dt=""string"">2014-05-02T20:59:56Z</DateUtc></FrequencyChange></FrequencyChanges></Clock>\n",60.034,1,2006766429,0,,-999999,5,14339,t,107709,122048,5/2/2014,13:59:56,8:59:56 PM,2,Session2,SessionsList,0,,-999999,9,784690,t,36780,821470,745426,2,1,2,4,,,,,,,,4,1,4,NonCued4,MiniBlocks2,,,,1293821,5,1,r,-999999,8,1361471,r,430,1361901,Green,Congruent,r,White,0,,0,4,1351476,,0,0,,,,,,,,,,,,,Pictures\white.bmp,9000,10000,Pictures\GreenLeft.bmp,,,,,,,,,,5,1,5,StimulusPr,Pictures\black.bmp,NonCuedStim4,Left
POP_2,27013,1,"<?xml version=""1.0""?>\n<Clock xmlns:dt=""urn:schemas-microsoft-com:datatypes""><Description dt:dt=""string"">E-Prime Primary Realtime Clock</Description><StartTime><Timestamp dt:dt=""int"">0</Timestamp><DateUtc dt:dt=""string"">2014-05-02T20:59:56Z</DateUtc></StartTime><FrequencyChanges><FrequencyChange><Frequency dt:dt=""r8"">2793020000</Frequency><Timestamp dt:dt=""r8"">107740718431634</Timestamp><Current dt:dt=""r8"">0</Current><DateUtc dt:dt=""string"">2014-05-02T20:59:56Z</DateUtc></FrequencyChange></FrequencyChanges></Clock>\n",60.034,1,2006766429,0,,-999999,5,14339,t,107709,122048,5/2/2014,13:59:56,8:59:56 PM,2,Session2,SessionsList,0,,-999999,9,784690,t,36780,821470,745426,2,1,2,4,,,,,,,,4,1,4,NonCued4,MiniBlocks2,,,,1293821,6,1,b,-999999,8,1377480,b,405,1377885,Green,Congruent,b,White,0,,0,10,1373482,,0,0,,,,,,,,,,,,,Pictures\white.bmp,3000,16000,Pictures\black.bmp,,,,,,,,,,6,1,6,StimulusPr,Pictures\GreenRight.bmp,NonCuedStim4,Right
POP_2,27013,1,"<?xml version=""1.0""?>\n<Clock xmlns:dt=""urn:schemas-microsoft-com:datatypes""><Description dt:dt=""string"">E-Prime Primary Realtime Clock</Description><StartTime><Timestamp dt:dt=""int"">0</Timestamp><DateUtc dt:dt=""string"">2014-05-02T20:59:56Z</DateUtc></StartTime><FrequencyChanges><FrequencyChange><Frequency dt:dt=""r8"">2793020000</Frequency><Timestamp dt:dt=""r8"">107740718431634</Timestamp><Current dt:dt=""r8"">0</Current><DateUtc dt:dt=""string"">2014-05-02T20:59:56Z</DateUtc></FrequencyChange></FrequencyChanges></Clock>\n",60.034,1,2006766429,0,,-999999,5,14339,t,107709,122048,5/2/2014,13:59:56,8:59:56 PM,2,Session2,SessionsList,0,,-999999,9,784690,t,36780,821470,745426,2,1,2,4,,,,,,,,4,1,4,NonCued4,MiniBlocks2,,,,1293821,7,1,b,-999999,14,1399485,b,463,1399948,Red,Incongruent,b,White,0,,0,16,1395487,,0,0,,,,,,,,,,,,,Pictures\white.bmp,3000,16000,Pictures\RedLeft.bmp,,,,,,,,,,7,1,7,StimulusPr,Pictures\black.bmp,NonCuedStim4,Left
POP_2,27013,1,"<?xml version=""1.0""?>\n<Clock xmlns:dt=""urn:schemas-microsoft-com:datatypes""><Description dt:dt=""string"">E-Prime Primary Realtime Clock</Description><StartTime><Timestamp dt:dt=""int"">0</Timestamp><DateUtc dt:dt=""string"">2014-05-02T20:59:56Z</DateUtc></StartTime><FrequencyChanges><FrequencyChange><Frequency dt:dt=""r8"">2793020000</Frequency><Timestamp dt:dt=""r8"">107740718431634</Timestamp><Current dt:dt=""r8"">0</Current><DateUtc dt:dt=""string"">2014-05-02T20:59:56Z</DateUtc></FrequencyChange></FrequencyChanges></Clock>\n",60.034,1,2006766429,0,,-999999,5,14339,t,107709,122048,5/2/2014,13:59:56,8:59:56 PM,2,Session2,SessionsList,0,,-999999,9,784690,t,36780,821470,745426,2,1,2,4,,,,,,,,4,1,4,NonCued4,MiniBlocks2,,,,1293821,8,1,r,-999999,4,1421475,r,363,1421838,Green,Congruent,r,White,0,,0,6,1417477,,0,0,,,,,,,,,,,,,Pictures\white.bmp,3000,2000,Pictures\GreenLeft.bmp,,,,,,,,,,8,1,8,StimulusPr,Pictures\black.bmp,NonCuedStim4,Left
POP_2,27013,1,"<?xml version=""1.0""?>\n<Clock xmlns:dt=""urn:schemas-microsoft-com:datatypes""><Description dt:dt=""string"">E-Prime Primary Realtime Clock</Description><StartTime><Timestamp dt:dt=""int"">0</Timestamp><DateUtc dt:dt=""string"">2014-05-02T20:59:56Z</DateUtc></StartTime><FrequencyChanges><FrequencyChange><Frequency dt:dt=""r8"">2793020000</Frequency><Timestamp dt:dt=""r8"">107740718431634</Timestamp><Current dt:dt=""r8"">0</Current><DateUtc dt:dt=""string"">2014-05-02T20:59:56Z</DateUtc></FrequencyChange></FrequencyChanges></Clock>\n",60.034,1,2006766429,0,,-999999,5,14339,t,107709,122048,5/2/2014,13:59:56,8:59:56 PM,2,Session2,SessionsList,0,,-999999,9,784690,t,36780,821470,745426,2,1,2,4,,,,,,,,4,1,4,NonCued4,MiniBlocks2,,,,1293821,9,1,b,-999999,15,1432486,b,415,1432901,Green,Congruent,b,White,0,,0,2,1425473,,0,0,,,,,,,,,,,,,Pictures\white.bmp,6000,2000,Pictures\black.bmp,,,,,,,,,,9,1,9,StimulusPr,Pictures\GreenRight.bmp,NonCuedStim4,Right
POP_2,27013,1,"<?xml version=""1.0""?>\n<Clock xmlns:dt=""urn:schemas-microsoft-com:datatypes""><Description dt:dt=""string"">E-Prime Primary Realtime Clock</Description><StartTime><Timestamp dt:dt=""int"">0</Timestamp><DateUtc dt:dt=""string"">2014-05-02T20:59:56Z</DateUtc></StartTime><FrequencyChanges><FrequencyChange><Frequency dt:dt=""r8"">2793020000</Frequency><Timestamp dt:dt=""r8"">107740718431634</Timestamp><Current dt:dt=""r8"">0</Current><DateUtc dt:dt=""string"">2014-05-02T20:59:56Z</DateUtc></FrequencyChange></FrequencyChanges></Clock>\n",60.034,1,2006766429,0,,-999999,5,14339,t,107709,122048,5/2/2014,13:59:56,8:59:56 PM,2,Session2,SessionsList,0,,-999999,9,784690,t,36780,821470,745426,2,1,2,4,,,,,,,,4,1,4,NonCued4,MiniBlocks2,,,,1293821,10,1,b,-999999,18,1441481,b,357,1441838,Green,Congruent,b,White,0,,0,13,1436484,,0,0,,,,,,,,,,,,,Pictures\white.bmp,4000,4000,Pictures\black.bmp,,,,,,,,,,10,1,10,StimulusPr,Pictures\GreenRight.bmp,NonCuedStim4,Right
