ExperimentName,Subject,Session,Clock.Information,Display.RefreshRate,Group,RandomSeed,Session1Onset.ACC,Session1Onset.CRESP,Session1Onset.DurationError,Session1Onset.OnsetDelay,Session1Onset.OnsetTime,Session1Onset.RESP,Session1Onset.RT,Session1Onset.RTTime,SessionDate,SessionTime,SessionTimeUtc,Block,Procedure[Block],Running[Block],Session2Onset.ACC,Session2Onset.CRESP,Session2Onset.DurationError,Session2Onset.OnsetDelay,Session2Onset.OnsetTime,Session2Onset.RESP,Session2Onset.RT,Session2Onset.RTTime,SessionBreak.OnsetTime,SessionsList,SessionsList.Cycle,SessionsList.Sample,Trial,CuedPrompt1.OnsetTime,CuedPrompt2.OnsetTime,CuedPrompt3.OnsetTime,CuedPrompt4.OnsetTime,MiniBlocks1,MiniBlocks1.Cycle,MiniBlocks1.Sample,MiniBlocks2,MiniBlocks2.Cycle,MiniBlocks2.Sample,Procedure[Trial],Running[Trial],UncuedPrompt1.OnsetTime,UncuedPrompt2.OnsetTime,UncuedPrompt3.OnsetTime,UncuedPrompt4.OnsetTime,SubTrial,Arrow1.ACC,Arrow1.CRESP,Arrow1.DurationError,Arrow1.OnsetDelay,Arrow1.OnsetTime,Arrow1.RESP,Arrow1.RT,Arrow1.RTTime,ArrowColor,Congruence,CorrectResp,Cue,Cue.ACC,Cue.CRESP,Cue.DurationError,Cue.OnsetDelay,Cue.OnsetTime,Cue.RESP,Cue.RT,Cue.RTTime,CuedStim1,CuedStim1.Cycle,CuedStim1.Sample,CuedStim2,CuedStim2.Cycle,CuedStim2.Sample,CuedStim3,CuedStim3.Cycle,CuedStim3.Sample,CuedStim4,CuedStim4.Cycle,CuedStim4.Sample,CueImage,JitterCue,JitterTrial,LeftImage,NonCuedStim1,NonCuedStim1.Cycle,NonCuedStim1.Sample,NonCuedStim2,NonCuedStim2.Cycle,NonCuedStim2.Sample,NonCuedStim3,NonCuedStim3.Cycle,NonCuedStim3.Sample,NonCuedStim4,NonCuedStim4.Cycle,NonCuedStim4.Sample,Procedure[SubTrial],RightImage,Running[SubTrial],Stimulus
POP_2,27035,1,"<?xml version=""1.0""?>\n<Clock xmlns:dt=""urn:schemas-microsoft-com:datatypes""><Description dt:dt=""string"">E-Prime Primary Realtime Clock</Description><StartTime><Timestamp dt:dt=""int"">0</Timestamp><DateUtc dt:dt=""string"">2014-06-07T18:42:19Z</DateUtc></StartTime><FrequencyChanges><FrequencyChange><Frequency dt:dt=""r8"">2793040000</Frequency><Timestamp dt:dt=""r8"">1.01698464777332E+15</Timestamp><Current dt:dt=""r8"">0</Current><DateUtc dt:dt=""string"">2014-06-07T18:42:19Z</DateUtc></FrequencyChange></FrequencyChanges></Clock>\n",60.033,1,1368397645,0,,-999999,10,22952,t,11775,34727,6/7/2014,11:42:19,6:42:19 PM,1,Session1,SessionsList,,,,,,,,,,1,1,1,1,,,,,,,,1,1,1,NonCued3,MiniBlocks2,,,34729,,1,1,b,-999999,10,54736,b,761,55497,Green,Congruent,b,White,0,,0,14,44741,,0,0,,,,,,,,,,,,,Pictures\white.bmp,9000,10000,Pictures\black.bmp,,,,,,,1,1,1,,,,StimulusPr,Pictures\GreenRight.bmp,NonCuedStim3,Right
POP_2,27035,1,"<?xml version=""1.0""?>\n<Clock xmlns:dt=""urn:schemas-microsoft-com:datatypes""><Description dt:dt=""string"">E-Prime Primary Realtime Clock</Description><StartTime><Timestamp dt:dt=""int"">0</Timestamp><DateUtc dt:dt=""string"">2014-06-07T18:42:19Z</DateUtc></StartTime><FrequencyChanges><FrequencyChange><Frequency dt:dt=""r8"">2793040000</Frequency><Timestamp dt:dt=""r8"">1.01698464777332E+15</Timestamp><Current dt:dt=""r8"">0</Current><DateUtc dt:dt=""string"">2014-06-07T18:42:19Z</DateUtc></FrequencyChange></FrequencyChanges></Clock>\n",60.033,1,1368397645,0,,-999999,10,22952,t,11775,34727,6/7/2014,11:42:19,6:42:19 PM,1,Session1,SessionsList,,,,,,,,,,1,1,1,1,,,,,,,,1,1,1,NonCued3,MiniBlocks2,,,34729,,2,1,r,-999999,14,76741,r,866,77607,Red,Incongruent,r,White,0,,0,3,66730,,0,0,,,,,,,,,,,,,Pictures\white.bmp,9000,10000,Pictures\black.bmp,,,,,,,2,1,2,,,,StimulusPr,Pictures\RedRight.bmp,NonCuedStim3,Right
POP_2,27035,1,"<?xml version=""1.0""?>\n<Clock xmlns:dt=""urn:schemas-microsoft-com:datatypes""><Description dt:dt=""string"">E-Prime Primary Realtime Clock</Description><StartTime><Timestamp dt:dt=""int"">0</Timestamp><DateUtc dt:dt=""string"">2014-06-07T18:42:19Z</DateUtc></StartTime><FrequencyChanges><FrequencyChange><Frequency dt:dt=""r8"">2793040000</Frequency><Timestamp dt:dt=""r8"">1.01698464777332E+15</Timestamp><Current dt:dt=""r8"">0</Current><DateUtc dt:dt=""string"">2014-06-07T18:42:19Z</DateUtc></FrequencyChange></FrequencyChanges></Clock>\n",60.033,1,1368397645,0,,-999999,10,22952,t,11775,34727,6/7/2014,11:42:19,6:42:19 PM,1,Session1,SessionsList,,,,,,,,,,1,1,1,1,,,,,,,,1,1,1,NonCued3,MiniBlocks2,,,34729,,3,1,r,-999999,7,93733,r,612,94345,Green,Congruent,r,White,0,,0,9,88735,,0,0,,,,,,,,,,,,,Pictures\white.bmp,4000,4000,Pictures\GreenLeft.bmp,,,,,,,3,1,3,,,,StimulusPr,Pictures\black.bmp,NonCuedStim3,Left
POP_2,27035,1,"<?xml version=""1.0""?>\n<Clock xmlns:dt=""urn:schemas-microsoft-com:datatypes""><Description dt:dt=""string"">E-Prime Primary Realtime Clock</Description><StartTime><Timestamp dt:dt=""int"">0</Timestamp><DateUtc dt:dt=""string"">2014-06-07T18:42:19Z</DateUtc></StartTime><FrequencyChanges><FrequencyChange><Frequency dt:dt=""r8"">2793040000</Frequency><Timestamp dt:dt=""r8"">1.01698464777332E+15</Timestamp><Current dt:dt=""r8"">0</Current><DateUtc dt:dt=""string"">2014-06-07T18:42:19Z</DateUtc></FrequencyChange></FrequencyChanges></Clock>\n",60.033,1,1368397645,0,,-999999,10,22952,t,11775,34727,6/7/2014,11:42:19,6:42:19 PM,1,Session1,SessionsList,,,,,,,,,,1,1,1,1,,,,,,,,1,1,1,NonCued3,MiniBlocks2,,,34729,,4,1,b,-999999,17,106743,b,935,107678,Red,Incongruent,b,White,0,,0,4,99730,,0,0,,,,,,,,,,,,,Pictures\white.bmp,6000,4000,Pictures\RedLeft.bmp,,,,,,,4,1,4,,,,StimulusPr,Pictures\black.bmp,NonCuedStim3,Left
POP_2,27035,1,"<?xml version=""1.0""?>\n<Clock xmlns:dt=""urn:schemas-microsoft-com:datatypes""><Description dt:dt=""string"">E-Prime Primary Realtime Clock</Description><StartTime><Timestamp dt:dt=""int"">0</Timestamp><DateUtc dt:dt=""string"">2014-06-07T18:42:19Z</DateUtc></StartTime><FrequencyChanges><FrequencyChange><Frequency dt:dt=""r8"">2793040000</Frequency><Timestamp dt:dt=""r8"">1.01698464777332E+15</Timestamp><Current dt:dt=""r8"">0</Current><DateUtc dt:dt=""string"">2014-06-07T18:42:19Z</DateUtc></FrequencyChange></FrequencyChanges></Clock>\n",60.033,1,1368397645,0,,-999999,10,22952,t,11775,34727,6/7/2014,11:42:19,6:42:19 PM,1,Session1,SessionsList,,,,,,,,,,1,1,1,1,,,,,,,,1,1,1,NonCued3,MiniBlocks2,,,34729,,5,1,b,-999999,11,116738,b,700,117438,Green,Congruent,b,White,0,,0,13,112740,,0,0,,,,,,,,,,,,,Pictures\white.bmp,3000,2000,Pictures\black.bmp,,,,,,,5,1,5,,,,StimulusPr,Pictures\GreenRight.bmp,NonCuedStim3,Right
POP_2,27035,1,"<?xml version=""1.0""?>\n<Clock xmlns:dt=""urn:schemas-microsoft-com:datatypes""><Description dt:dt=""string"">E-Prime Primary Realtime Clock</Description><StartTime><Timestamp dt:dt=""int"">0</Timestamp><DateUtc dt:dt=""string"">2014-06-07T18:42:19Z</DateUtc></StartTime><FrequencyChanges><FrequencyChange><Frequency dt:dt=""r8"">2793040000</Frequency><Timestamp dt:dt=""r8"">1.01698464777332E+15</Timestamp><Current dt:dt=""r8"">0</Current><DateUtc dt:dt=""string"">2014-06-07T18:42:19Z</DateUtc></FrequencyChange></FrequencyChanges></Clock>\n",60.033,1,1368397645,0,,-999999,10,22952,t,11775,34727,6/7/2014,11:42:19,6:42:19 PM,1,Session1,SessionsList,,,,,,,,,,1,1,1,1,,,,,,,,1,1,1,NonCued3,MiniBlocks2,,,34729,,6,1,r,-999999,7,124734,r,984,125718,Green,Congruent,r,White,0,,0,9,120736,,0,0,,,,,,,,,,,,,Pictures\white.bmp,3000,2000,Pictures\GreenLeft.bmp,,,,,,,6,1,6,,,,StimulusPr,Pictures\black.bmp,NonCuedStim3,Left
POP_2,27035,1,"<?xml version=""1.0""?>\n<Clock xmlns:dt=""urn:schemas-microsoft-com:datatypes""><Description dt:dt=""string"">E-Prime Primary Realtime Clock</Description><StartTime><Timestamp dt:dt=""int"">0</Timestamp><DateUtc dt:dt=""string"">2014-06-07T18:42:19Z</DateUtc></StartTime><FrequencyChanges><FrequencyChange><Frequency dt:dt=""r8"">2793040000</Frequency><Timestamp dt:dt=""r8"">1.01698464777332E+15</Timestamp><Current dt:dt=""r8"">0</Current><DateUtc dt:dt=""string"">2014-06-07T18:42:19Z</DateUtc></FrequencyChange></FrequencyChanges></Clock>\n",60.033,1,1368397645,0,,-999999,10,22952,t,11775,34727,6/7/2014,11:42:19,6:42:19 PM,1,Session1,SessionsList,,,,,,,,,,1,1,1,1,,,,,,,,1,1,1,NonCued3,MiniBlocks2,,,34729,,7,1,b,-999999,2,136728,b,616,137344,Green,Congruent,b,White,0,,0,5,129731,,0,0,,,,,,,,,,,,,Pictures\white.bmp,6000,16000,Pictures\black.bmp,,,,,,,7,1,7,,,,StimulusPr,Pictures\GreenRight.bmp,NonCuedStim3,Right
POP_2,27035,1,"<?xml version=""1.0""?>\n<Clock xmlns:dt=""urn:schemas-microsoft-com:datatypes""><Description dt:dt=""string"">E-Prime Primary Realtime Clock</Description><StartTime><Timestamp dt:dt=""int"">0</Timestamp><DateUtc dt:dt=""string"">2014-06-07T18:42:19Z</DateUtc></StartTime><FrequencyChanges><FrequencyChange><Frequency dt:dt=""r8"">2793040000</Frequency><Timestamp dt:dt=""r8"">1.01698464777332E+15</Timestamp><Current dt:dt=""r8"">0</Current><DateUtc dt:dt=""string"">2014-06-07T18:42:19Z</DateUtc></FrequencyChange></FrequencyChanges></Clock>\n",60.033,1,1368397645,0,,-999999,10,22952,t,11775,34727,6/7/2014,11:42:19,6:42:19 PM,1,Session1,SessionsList,,,,,,,,,,1,1,1,1,,,,,,,,1,1,1,NonCued3,MiniBlocks2,,,34729,,8,1,r,-999999,7,158733,r,769,159502,Red,Incongruent,r,White,0,,0,9,154735,,0,0,,,,,,,,,,,,,Pictures\white.bmp,3000,2000,Pictures\black.bmp,,,,,,,8,1,8,,,,StimulusPr,Pictures\RedRight.bmp,NonCuedStim3,Right
POP_2,27035,1,"<?xml version=""1.0""?>\n<Clock xmlns:dt=""urn:schemas-microsoft-com:datatypes""><Description dt:dt=""string"">E-Prime Primary Realtime Clock</Description><StartTime><Timestamp dt:dt=""int"">0</Timestamp><DateUtc dt:dt=""string"">2014-06-07T18:42:19Z</DateUtc></StartTime><FrequencyChanges><FrequencyChange><Frequency dt:dt=""r8"">2793040000</Frequency><Timestamp dt:dt=""r8"">1.01698464777332E+15</Timestamp><Current dt:dt=""r8"">0</Current><DateUtc dt:dt=""string"">2014-06-07T18:42:19Z</DateUtc></FrequencyChange></FrequencyChanges></Clock>\n",60.033,1,1368397645,0,,-999999,10,22952,t,11775,34727,6/7/2014,11:42:19,6:42:19 PM,1,Session1,SessionsList,,,,,,,,,,1,1,1,1,,,,,,,,1,1,1,NonCued3,MiniBlocks2,,,34729,,9,1,r,-999999,17,172743,r,715,173458,Green,Congruent,r,White,0,,0,5,162731,,0,0,,,,,,,,,,,,,Pictures\white.bmp,9000,10000,Pictures\GreenLeft.bmp,,,,,,,9,1,9,,,,StimulusPr,Pictures\black.bmp,NonCuedStim3,Left
POP_2,27035,1,"<?xml version=""1.0""?>\n<Clock xmlns:dt=""urn:schemas-microsoft-com:datatypes""><Description dt:dt=""string"">E-Prime Primary Realtime Clock</Description><StartTime><Timestamp dt:dt=""int"">0</Timestamp><DateUtc dt:dt=""string"">2014-06-07T18:42:19Z</DateUtc></StartTime><FrequencyChanges><FrequencyChange><Frequency dt:dt=""r8"">2793040000</Frequency><Timestamp dt:dt=""r8"">1.01698464777332E+15</Timestamp><Current dt:dt=""r8"">0</Current><DateUtc dt:dt=""string"">2014-06-07T18:42:19Z</DateUtc></FrequencyChange></FrequencyChanges></Clock>\n",60.033,1,1368397645,0,,-999999,10,22952,t,11775,34727,6/7/2014,11:42:19,6:42:19 PM,1,Session1,SessionsList,,,,,,,,,,1,1,1,1,,,,,,,,1,1,1,NonCued3,MiniBlocks2,,,34729,,10,1,r,-999999,16,191733,r,827,192560,Green,Congruent,r,White,0,,0,11,184737,,0,0,,,,,,,,,,,,,Pictures\white.bmp,6000,4000,Pictures\GreenLeft.bmp,,,,,,,10,1,10,,,,StimulusPr,Pictures\black.bmp,NonCuedStim3,Left
POP_2,27035,1,"<?xml version=""1.0""?>\n<Clock xmlns:dt=""urn:schemas-microsoft-com:datatypes""><Description dt:dt=""string"">E-Prime Primary Realtime Clock</Description><StartTime><Timestamp dt:dt=""int"">0</Timestamp><DateUtc dt:dt=""string"">2014-06-07T18:42:19Z</DateUtc></StartTime><FrequencyChanges><FrequencyChange><Frequency dt:dt=""r8"">2793040000</Frequency><Timestamp dt:dt=""r8"">1.01698464777332E+15</Timestamp><Current dt:dt=""r8"">0</Current><DateUtc dt:dt=""string"">2014-06-07T18:42:19Z</DateUtc></FrequencyChange></FrequencyChanges></Clock>\n",60.033,1,1368397645,0,,-999999,10,22952,t,11775,34727,6/7/2014,11:42:19,6:42:19 PM,1,Session1,SessionsList,,,,,,,,,,1,1,1,2,,,196581,,,,,2,1,2,Cued3,MiniBlocks2,,,,,1,1,b,-999999,14,210741,b,440,211181,White,Congruent,b,Green,0,,0,17,206743,,0,0,,,,,,,1,1,1,,,,Pictures\green.bmp,3000,2000,Pictures\black.bmp,,,,,,,,,,,,,StimulusPr,Pictures\right.bmp,CuedStim3,Right
POP_2,27035,1,"<?xml version=""1.0""?>\n<Clock xmlns:dt=""urn:schemas-microsoft-com:datatypes""><Description dt:dt=""string"">E-Prime Primary Realtime Clock</Description><StartTime><Timestamp dt:dt=""int"">0</Timestamp><DateUtc dt:dt=""string"">2014-06-07T18:42:19Z</DateUtc></StartTime><FrequencyChanges><FrequencyChange><Frequency dt:dt=""r8"">2793040000</Frequency><Timestamp dt:dt=""r8"">1.01698464777332E+15</Timestamp><Current dt:dt=""r8"">0</Current><DateUtc dt:dt=""string"">2014-06-07T18:42:19Z</DateUtc></FrequencyChange></FrequencyChanges></Clock>\n",60.033,1,1368397645,0,,-999999,10,22952,t,11775,34727,6/7/2014,11:42:19,6:42:19 PM,1,Session1,SessionsList,,,,,,,,,,1,1,1,2,,,196581,,,,,2,1,2,Cued3,MiniBlocks2,,,,,2,1,b,-999999,9,218736,b,651,219387,White,Congruent,b,Green,0,,0,12,214739,,0,0,,,,,,,2,1,2,,,,Pictures\green.bmp,3000,10000,Pictures\black.bmp,,,,,,,,,,,,,StimulusPr,Pictures\right.bmp,CuedStim3,Right
POP_2,27035,1,"<?xml version=""1.0""?>\n<Clock xmlns:dt=""urn:schemas-microsoft-com:datatypes""><Description dt:dt=""string"">E-Prime Primary Realtime Clock</Description><StartTime><Timestamp dt:dt=""int"">0</Timestamp><DateUtc dt:dt=""string"">2014-06-07T18:42:19Z</DateUtc></StartTime><FrequencyChanges><FrequencyChange><Frequency dt:dt=""r8"">2793040000</Frequency><Timestamp dt:dt=""r8"">1.01698464777332E+15</Timestamp><Current dt:dt=""r8"">0</Current><DateUtc dt:dt=""string"">2014-06-07T18:42:19Z</DateUtc></FrequencyChange></FrequencyChanges></Clock>\n",60.033,1,1368397645,0,,-999999,10,22952,t,11775,34727,6/7/2014,11:42:19,6:42:19 PM,1,Session1,SessionsList,,,,,,,,,,1,1,1,2,,,196581,,,,,2,1,2,Cued3,MiniBlocks2,,,,,3,1,r,-999999,16,240742,r,623,241365,White,Congruent,r,Green,0,,0,4,230730,,0,0,,,,,,,3,1,3,,,,Pictures\green.bmp,9000,2000,Pictures\left.bmp,,,,,,,,,,,,,StimulusPr,Pictures\black.bmp,CuedStim3,Left
POP_2,27035,1,"<?xml version=""1.0""?>\n<Clock xmlns:dt=""urn:schemas-microsoft-com:datatypes""><Description dt:dt=""string"">E-Prime Primary Realtime Clock</Description><StartTime><Timestamp dt:dt=""int"">0</Timestamp><DateUtc dt:dt=""string"">2014-06-07T18:42:19Z</DateUtc></StartTime><FrequencyChanges><FrequencyChange><Frequency dt:dt=""r8"">2793040000</Frequency><Timestamp dt:dt=""r8"">1.01698464777332E+15</Timestamp><Current dt:dt=""r8"">0</Current><DateUtc dt:dt=""string"">2014-06-07T18:42:19Z</DateUtc></FrequencyChange></FrequencyChanges></Clock>\n",60.033,1,1368397645,0,,-999999,10,22952,t,11775,34727,6/7/2014,11:42:19,6:42:19 PM,1,Session1,SessionsList,,,,,,,,,,1,1,1,2,,,196581,,,,,2,1,2,Cued3,MiniBlocks2,,,,,4,1,r,-999999,13,249738,r,860,250598,White,Congruent,r,Green,0,,0,14,244740,,0,0,,,,,,,4,1,4,,,,Pictures\green.bmp,4000,16000,Pictures\left.bmp,,,,,,,,,,,,,StimulusPr,Pictures\black.bmp,CuedStim3,Left
POP_2,27035,1,"<?xml version=""1.0""?>\n<Clock xmlns:dt=""urn:schemas-microsoft-com:datatypes""><Description dt:dt=""string"">E-Prime Primary Realtime Clock</Description><StartTime><Timestamp dt:dt=""int"">0</Timestamp><DateUtc dt:dt=""string"">2014-06-07T18:42:19Z</DateUtc></StartTime><FrequencyChanges><FrequencyChange><Frequency dt:dt=""r8"">2793040000</Frequency><Timestamp dt:dt=""r8"">1.01698464777332E+15</Timestamp><Current dt:dt=""r8"">0</Current><DateUtc dt:dt=""string"">2014-06-07T18:42:19Z</DateUtc></FrequencyChange></FrequencyChanges></Clock>\n",60.033,1,1368397645,0,,-999999,10,22952,t,11775,34727,6/7/2014,11:42:19,6:42:19 PM,1,Session1,SessionsList,,,,,,,,,,1,1,1,2,,,196581,,,,,2,1,2,Cued3,MiniBlocks2,,,,,5,1,r,-999999,18,271743,r,894,272637,White,Incongruent,r,Red,0,,0,3,267729,,0,0,,,,,,,5,1,5,,,,Pictures\red.bmp,3000,4000,Pictures\black.bmp,,,,,,,,,,,,,StimulusPr,Pictures\right.bmp,CuedStim3,Right
POP_2,27035,1,"<?xml version=""1.0""?>\n<Clock xmlns:dt=""urn:schemas-microsoft-com:datatypes""><Description dt:dt=""string"">E-Prime Primary Realtime Clock</Description><StartTime><Timestamp dt:dt=""int"">0</Timestamp><DateUtc dt:dt=""string"">2014-06-07T18:42:19Z</DateUtc></StartTime><FrequencyChanges><FrequencyChange><Frequency dt:dt=""r8"">2793040000</Frequency><Timestamp dt:dt=""r8"">1.01698464777332E+15</Timestamp><Current dt:dt=""r8"">0</Current><DateUtc dt:dt=""string"">2014-06-07T18:42:19Z</DateUtc></FrequencyChange></FrequencyChanges></Clock>\n",60.033,1,1368397645,0,,-999999,10,22952,t,11775,34727,6/7/2014,11:42:19,6:42:19 PM,1,Session1,SessionsList,,,,,,,,,,1,1,1,2,,,196581,,,,,2,1,2,Cued3,MiniBlocks2,,,,,6,0,b,-999999,12,284737,r,1349,286086,White,Congruent,b,Green,0,,0,15,277740,,0,0,,,,,,,6,1,6,,,,Pictures\green.bmp,6000,4000,Pictures\black.bmp,,,,,,,,,,,,,StimulusPr,Pictures\right.bmp,CuedStim3,Right
POP_2,27035,1,"<?xml version=""1.0""?>\n<Clock xmlns:dt=""urn:schemas-microsoft-com:datatypes""><Description dt:dt=""string"">E-Prime Primary Realtime Clock</Description><StartTime><Timestamp dt:dt=""int"">0</Timestamp><DateUtc dt:dt=""string"">2014-06-07T18:42:19Z</DateUtc></StartTime><FrequencyChanges><FrequencyChange><Frequency dt:dt=""r8"">2793040000</Frequency><Timestamp dt:dt=""r8"">1.01698464777332E+15</Timestamp><Current dt:dt=""r8"">0</Current><DateUtc dt:dt=""string"">2014-06-07T18:42:19Z</DateUtc></FrequencyChange></FrequencyChanges></Clock>\n",60.033,1,1368397645,0,,-999999,10,22952,t,11775,34727,6/7/2014,11:42:19,6:42:19 PM,1,Session1,SessionsList,,,,,,,,,,1,1,1,2,,,196581,,,,,2,1,2,Cued3,MiniBlocks2,,,,,7,1,r,-999999,5,296731,r,1301,298032,White,Congruent,r,Green,0,,0,7,291733,,0,0,,,,,,,7,1,7,,,,Pictures\green.bmp,4000,16000,Pictures\left.bmp,,,,,,,,,,,,,StimulusPr,Pictures\black.bmp,CuedStim3,Left
POP_2,27035,1,"<?xml version=""1.0""?>\n<Clock xmlns:dt=""urn:schemas-microsoft-com:datatypes""><Description dt:dt=""string"">E-Prime Primary Realtime Clock</Description><StartTime><Timestamp dt:dt=""int"">0</Timestamp><DateUtc dt:dt=""string"">2014-06-07T18:42:19Z</DateUtc></StartTime><FrequencyChanges><FrequencyChange><Frequency dt:dt=""r8"">2793040000</Frequency><Timestamp dt:dt=""r8"">1.01698464777332E+15</Timestamp><Current dt:dt=""r8"">0</Current><DateUtc dt:dt=""string"">2014-06-07T18:42:19Z</DateUtc></FrequencyChange></FrequencyChanges></Clock>\n",60.033,1,1368397645,0,,-999999,10,22952,t,11775,34727,6/7/2014,11:42:19,6:42:19 PM,1,Session1,SessionsList,,,,,,,,,,1,1,1,2,,,196581,,,,,2,1,2,Cued3,MiniBlocks2,,,,,8,1,b,-999999,4,319719,b,531,320250,White,Incongruent,b,Red,0,,0,12,315738,,0,0,,,,,,,8,1,8,,,,Pictures\red.bmp,3000,2000,Pictures\left.bmp,,,,,,,,,,,,,StimulusPr,Pictures\black.bmp,CuedStim3,Left
POP_2,27035,1,"<?xml version=""1.0""?>\n<Clock xmlns:dt=""urn:schemas-microsoft-com:datatypes""><Description dt:dt=""string"">E-Prime Primary Realtime Clock</Description><StartTime><Timestamp dt:dt=""int"">0</Timestamp><DateUtc dt:dt=""string"">2014-06-07T18:42:19Z</DateUtc></StartTime><FrequencyChanges><FrequencyChange><Frequency dt:dt=""r8"">2793040000</Frequency><Timestamp dt:dt=""r8"">1.01698464777332E+15</Timestamp><Current dt:dt=""r8"">0</Current><DateUtc dt:dt=""string"">2014-06-07T18:42:19Z</DateUtc></FrequencyChange></FrequencyChanges></Clock>\n",60.033,1,1368397645,0,,-999999,10,22952,t,11775,34727,6/7/2014,11:42:19,6:42:19 PM,1,Session1,SessionsList,,,,,,,,,,1,1,1,2,,,196581,,,,,2,1,2,Cued3,MiniBlocks2,,,,,9,1,r,-999999,6,327732,r,1003,328735,White,Congruent,r,Green,0,,0,9,323734,,0,0,,,,,,,9,1,9,,,,Pictures\green.bmp,3000,2000,Pictures\left.bmp,,,,,,,,,,,,,StimulusPr,Pictures\black.bmp,CuedStim3,Left
POP_2,27035,1,"<?xml version=""1.0""?>\n<Clock xmlns:dt=""urn:schemas-microsoft-com:datatypes""><Description dt:dt=""string"">E-Prime Primary Realtime Clock</Description><StartTime><Timestamp dt:dt=""int"">0</Timestamp><DateUtc dt:dt=""string"">2014-06-07T18:42:19Z</DateUtc></StartTime><FrequencyChanges><FrequencyChange><Frequency dt:dt=""r8"">2793040000</Frequency><Timestamp dt:dt=""r8"">1.01698464777332E+15</Timestamp><Current dt:dt=""r8"">0</Current><DateUtc dt:dt=""string"">2014-06-07T18:42:19Z</DateUtc></FrequencyChange></FrequencyChanges></Clock>\n",60.033,1,1368397645,0,,-999999,10,22952,t,11775,34727,6/7/2014,11:42:19,6:42:19 PM,1,Session1,SessionsList,,,,,,,,,,1,1,1,2,,,196581,,,,,2,1,2,Cued3,MiniBlocks2,,,,,10,1,b,-999999,16,342741,b,1198,343939,White,Congruent,b,Green,0,,0,4,332729,,0,0,,,,,,,10,1,10,,,,Pictures\green.bmp,9000,10000,Pictures\black.bmp,,,,,,,,,,,,,StimulusPr,Pictures\right.bmp,CuedStim3,Right
POP_2,27035,1,"<?xml version=""1.0""?>\n<Clock xmlns:dt=""urn:schemas-microsoft-com:datatypes""><Description dt:dt=""string"">E-Prime Primary Realtime Clock</Description><StartTime><Timestamp dt:dt=""int"">0</Timestamp><DateUtc dt:dt=""string"">2014-06-07T18:42:19Z</DateUtc></StartTime><FrequencyChanges><FrequencyChange><Frequency dt:dt=""r8"">2793040000</Frequency><Timestamp dt:dt=""r8"">1.01698464777332E+15</Timestamp><Current dt:dt=""r8"">0</Current><DateUtc dt:dt=""string"">2014-06-07T18:42:19Z</DateUtc></FrequencyChange></FrequencyChanges></Clock>\n",60.033,1,1368397645,0,,-999999,10,22952,t,11775,34727,6/7/2014,11:42:19,6:42:19 PM,1,Session1,SessionsList,,,,,,,,,,1,1,1,3,,,,353952,,,,3,1,3,Cued4,MiniBlocks2,,,,,1,1,b,-999999,18,370743,b,898,371641,White,Congruent,b,Green,0,,0,5,363730,,0,0,,,,,,,,,,1,1,1,Pictures\green.bmp,6000,2000,Pictures\black.bmp,,,,,,,,,,,,,StimulusPr,Pictures\right.bmp,CuedStim4,Right
POP_2,27035,1,"<?xml version=""1.0""?>\n<Clock xmlns:dt=""urn:schemas-microsoft-com:datatypes""><Description dt:dt=""string"">E-Prime Primary Realtime Clock</Description><StartTime><Timestamp dt:dt=""int"">0</Timestamp><DateUtc dt:dt=""string"">2014-06-07T18:42:19Z</DateUtc></StartTime><FrequencyChanges><FrequencyChange><Frequency dt:dt=""r8"">2793040000</Frequency><Timestamp dt:dt=""r8"">1.01698464777332E+15</Timestamp><Current dt:dt=""r8"">0</Current><DateUtc dt:dt=""string"">2014-06-07T18:42:19Z</DateUtc></FrequencyChange></FrequencyChanges></Clock>\n",60.033,1,1368397645,0,,-999999,10,22952,t,11775,34727,6/7/2014,11:42:19,6:42:19 PM,1,Session1,SessionsList,,,,,,,,,,1,1,1,3,,,,353952,,,,3,1,3,Cued4,MiniBlocks2,,,,,2,1,r,-999999,10,384736,r,1584,386320,White,Incongruent,r,Red,0,,0,15,374741,,0,0,,,,,,,,,,2,1,2,Pictures\red.bmp,9000,2000,Pictures\black.bmp,,,,,,,,,,,,,StimulusPr,Pictures\right.bmp,CuedStim4,Right
POP_2,27035,1,"<?xml version=""1.0""?>\n<Clock xmlns:dt=""urn:schemas-microsoft-com:datatypes""><Description dt:dt=""string"">E-Prime Primary Realtime Clock</Description><StartTime><Timestamp dt:dt=""int"">0</Timestamp><DateUtc dt:dt=""string"">2014-06-07T18:42:19Z</DateUtc></StartTime><FrequencyChanges><FrequencyChange><Frequency dt:dt=""r8"">2793040000</Frequency><Timestamp dt:dt=""r8"">1.01698464777332E+15</Timestamp><Current dt:dt=""r8"">0</Current><DateUtc dt:dt=""string"">2014-06-07T18:42:19Z</DateUtc></FrequencyChange></FrequencyChanges></Clock>\n",60.033,1,1368397645,0,,-999999,10,22952,t,11775,34727,6/7/2014,11:42:19,6:42:19 PM,1,Session1,SessionsList,,,,,,,,,,1,1,1,3,,,,353952,,,,3,1,3,Cued4,MiniBlocks2,,,,,3,1,b,-999999,7,393732,b,832,394564,White,Congruent,b,Green,0,,0,9,389734,,0,0,,,,,,,,,,3,1,3,Pictures\green.bmp,3000,4000,Pictures\black.bmp,,,,,,,,,,,,,StimulusPr,Pictures\right.bmp,CuedStim4,Right
POP_2,27035,1,"<?xml version=""1.0""?>\n<Clock xmlns:dt=""urn:schemas-microsoft-com:datatypes""><Description dt:dt=""string"">E-Prime Primary Realtime Clock</Description><StartTime><Timestamp dt:dt=""int"">0</Timestamp><DateUtc dt:dt=""string"">2014-06-07T18:42:19Z</DateUtc></StartTime><FrequencyChanges><FrequencyChange><Frequency dt:dt=""r8"">2793040000</Frequency><Timestamp dt:dt=""r8"">1.01698464777332E+15</Timestamp><Current dt:dt=""r8"">0</Current><DateUtc dt:dt=""string"">2014-06-07T18:42:19Z</DateUtc></FrequencyChange></FrequencyChanges></Clock>\n",60.033,1,1368397645,0,,-999999,10,22952,t,11775,34727,6/7/2014,11:42:19,6:42:19 PM,1,Session1,SessionsList,,,,,,,,,,1,1,1,3,,,,353952,,,,3,1,3,Cued4,MiniBlocks2,,,,,4,1,r,-999999,18,403743,r,941,404684,White,Congruent,r,Green,0,,0,4,399729,,0,0,,,,,,,,,,4,1,4,Pictures\green.bmp,3000,4000,Pictures\left.bmp,,,,,,,,,,,,,StimulusPr,Pictures\black.bmp,CuedStim4,Left
POP_2,27035,1,"<?xml version=""1.0""?>\n<Clock xmlns:dt=""urn:schemas-microsoft-com:datatypes""><Description dt:dt=""string"">E-Prime Primary Realtime Clock</Description><StartTime><Timestamp dt:dt=""int"">0</Timestamp><DateUtc dt:dt=""string"">2014-06-07T18:42:19Z</DateUtc></StartTime><FrequencyChanges><FrequencyChange><Frequency dt:dt=""r8"">2793040000</Frequency><Timestamp dt:dt=""r8"">1.01698464777332E+15</Timestamp><Current dt:dt=""r8"">0</Current><DateUtc dt:dt=""string"">2014-06-07T18:42:19Z</DateUtc></FrequencyChange></FrequencyChanges></Clock>\n",60.033,1,1368397645,0,,-999999,10,22952,t,11775,34727,6/7/2014,11:42:19,6:42:19 PM,1,Session1,SessionsList,,,,,,,,,,1,1,1,3,,,,353952,,,,3,1,3,Cued4,MiniBlocks2,,,,,5,1,b,-999999,12,414738,b,1087,415825,White,Incongruent,b,Red,0,,0,15,409740,,0,0,,,,,,,,,,5,1,5,Pictures\red.bmp,4000,16000,Pictures\left.bmp,,,,,,,,,,,,,StimulusPr,Pictures\black.bmp,CuedStim4,Left
POP_2,27035,1,"<?xml version=""1.0""?>\n<Clock xmlns:dt=""urn:schemas-microsoft-com:datatypes""><Description dt:dt=""string"">E-Prime Primary Realtime Clock</Description><StartTime><Timestamp dt:dt=""int"">0</Timestamp><DateUtc dt:dt=""string"">2014-06-07T18:42:19Z</DateUtc></StartTime><FrequencyChanges><FrequencyChange><Frequency dt:dt=""r8"">2793040000</Frequency><Timestamp dt:dt=""r8"">1.01698464777332E+15</Timestamp><Current dt:dt=""r8"">0</Current><DateUtc dt:dt=""string"">2014-06-07T18:42:19Z</DateUtc></FrequencyChange></FrequencyChanges></Clock>\n",60.033,1,1368397645,0,,-999999,10,22952,t,11775,34727,6/7/2014,11:42:19,6:42:19 PM,1,Session1,SessionsList,,,,,,,,,,1,1,1,3,,,,353952,,,,3,1,3,Cued4,MiniBlocks2,,,,,6,1,b,-999999,18,437743,b,555,438298,White,Congruent,b,Green,0,,0,3,433728,,0,0,,,,,,,,,,6,1,6,Pictures\green.bmp,3000,2000,Pictures\black.bmp,,,,,,,,,,,,,StimulusPr,Pictures\right.bmp,CuedStim4,Right
POP_2,27035,1,"<?xml version=""1.0""?>\n<Clock xmlns:dt=""urn:schemas-microsoft-com:datatypes""><Description dt:dt=""string"">E-Prime Primary Realtime Clock</Description><StartTime><Timestamp dt:dt=""int"">0</Timestamp><DateUtc dt:dt=""string"">2014-06-07T18:42:19Z</DateUtc></StartTime><FrequencyChanges><FrequencyChange><Frequency dt:dt=""r8"">2793040000</Frequency><Timestamp dt:dt=""r8"">1.01698464777332E+15</Timestamp><Current dt:dt=""r8"">0</Current><DateUtc dt:dt=""string"">2014-06-07T18:42:19Z</DateUtc></FrequencyChange></FrequencyChanges></Clock>\n",60.033,1,1368397645,0,,-999999,10,22952,t,11775,34727,6/7/2014,11:42:19,6:42:19 PM,1,Session1,SessionsList,,,,,,,,,,1,1,1,3,,,,353952,,,,3,1,3,Cued4,MiniBlocks2,,,,,7,1,b,-999999,11,451736,b,504,452240,White,Congruent,b,Green,0,,0,16,441741,,0,0,,,,,,,,,,7,1,7,Pictures\green.bmp,9000,10000,Pictures\black.bmp,,,,,,,,,,,,,StimulusPr,Pictures\right.bmp,CuedStim4,Right
POP_2,27035,1,"<?xml version=""1.0""?>\n<Clock xmlns:dt=""urn:schemas-microsoft-com:datatypes""><Description dt:dt=""string"">E-Prime Primary Realtime Clock</Description><StartTime><Timestamp dt:dt=""int"">0</Timestamp><DateUtc dt:dt=""string"">2014-06-07T18:42:19Z</DateUtc></StartTime><FrequencyChanges><FrequencyChange><Frequency dt:dt=""r8"">2793040000</Frequency><Timestamp dt:dt=""r8"">1.01698464777332E+15</Timestamp><Current dt:dt=""r8"">0</Current><DateUtc dt:dt=""string"">2014-06-07T18:42:19Z</DateUtc></FrequencyChange></FrequencyChanges></Clock>\n",60.033,1,1368397645,0,,-999999,10,22952,t,11775,34727,6/7/2014,11:42:19,6:42:19 PM,1,Session1,SessionsList,,,,,,,,,,1,1,1,3,,,,353952,,,,3,1,3,Cued4,MiniBlocks2,,,,,8,1,b,-999999,17,470743,b,375,471118,White,Incongruent,b,Red,0,,0,4,463730,,0,0,,,,,,,,,,8,1,8,Pictures\red.bmp,6000,10000,Pictures\left.bmp,,,,,,,,,,,,,StimulusPr,Pictures\black.bmp,CuedStim4,Left
POP_2,27035,1,"<?xml version=""1.0""?>\n<Clock xmlns:dt=""urn:schemas-microsoft-com:datatypes""><Description dt:dt=""string"">E-Prime Primary Realtime Clock</Description><StartTime><Timestamp dt:dt=""int"">0</Timestamp><DateUtc dt:dt=""string"">2014-06-07T18:42:19Z</DateUtc></StartTime><FrequencyChanges><FrequencyChange><Frequency dt:dt=""r8"">2793040000</Frequency><Timestamp dt:dt=""r8"">1.01698464777332E+15</Timestamp><Current dt:dt=""r8"">0</Current><DateUtc dt:dt=""string"">2014-06-07T18:42:19Z</DateUtc></FrequencyChange></FrequencyChanges></Clock>\n",60.033,1,1368397645,0,,-999999,10,22952,t,11775,34727,6/7/2014,11:42:19,6:42:19 PM,1,Session1,SessionsList,,,,,,,,,,1,1,1,3,,,,353952,,,,3,1,3,Cued4,MiniBlocks2,,,,,9,1,r,-999999,9,489734,r,556,490290,White,Congruent,r,Green,0,,0,12,482737,,0,0,,,,,,,,,,9,1,9,Pictures\green.bmp,6000,16000,Pictures\left.bmp,,,,,,,,,,,,,StimulusPr,Pictures\black.bmp,CuedStim4,Left
POP_2,27035,1,"<?xml version=""1.0""?>\n<Clock xmlns:dt=""urn:schemas-microsoft-com:datatypes""><Description dt:dt=""string"">E-Prime Primary Realtime Clock</Description><StartTime><Timestamp dt:dt=""int"">0</Timestamp><DateUtc dt:dt=""string"">2014-06-07T18:42:19Z</DateUtc></StartTime><FrequencyChanges><FrequencyChange><Frequency dt:dt=""r8"">2793040000</Frequency><Timestamp dt:dt=""r8"">1.01698464777332E+15</Timestamp><Current dt:dt=""r8"">0</Current><DateUtc dt:dt=""string"">2014-06-07T18:42:19Z</DateUtc></FrequencyChange></FrequencyChanges></Clock>\n",60.033,1,1368397645,0,,-999999,10,22952,t,11775,34727,6/7/2014,11:42:19,6:42:19 PM,1,Session1,SessionsList,,,,,,,,,,1,1,1,3,,,,353952,,,,3,1,3,Cued4,MiniBlocks2,,,,,10,1,r,-999999,14,512739,r,379,513118,White,Congruent,r,Green,0,,0,16,507741,,0,0,,,,,,,,,,10,1,10,Pictures\green.bmp,4000,2000,Pictures\left.bmp,,,,,,,,,,,,,StimulusPr,Pictures\black.bmp,CuedStim4,Left
POP_2,27035,1,"<?xml version=""1.0""?>\n<Clock xmlns:dt=""urn:schemas-microsoft-com:datatypes""><Description dt:dt=""string"">E-Prime Primary Realtime Clock</Description><StartTime><Timestamp dt:dt=""int"">0</Timestamp><DateUtc dt:dt=""string"">2014-06-07T18:42:19Z</DateUtc></StartTime><FrequencyChanges><FrequencyChange><Frequency dt:dt=""r8"">2793040000</Frequency><Timestamp dt:dt=""r8"">1.01698464777332E+15</Timestamp><Current dt:dt=""r8"">0</Current><DateUtc dt:dt=""string"">2014-06-07T18:42:19Z</DateUtc></FrequencyChange></FrequencyChanges></Clock>\n",60.033,1,1368397645,0,,-999999,10,22952,t,11775,34727,6/7/2014,11:42:19,6:42:19 PM,1,Session1,SessionsList,,,,,,,,,,1,1,1,4,,,,,,,,4,1,4,NonCued4,MiniBlocks2,,,,515137,1,1,r,-999999,6,528731,r,1841,530572,Green,Congruent,r,White,0,,0,8,524733,,0,0,,,,,,,,,,,,,Pictures\white.bmp,3000,2000,Pictures\GreenLeft.bmp,,,,,,,,,,1,1,1,StimulusPr,Pictures\black.bmp,NonCuedStim4,Left
POP_2,27035,1,"<?xml version=""1.0""?>\n<Clock xmlns:dt=""urn:schemas-microsoft-com:datatypes""><Description dt:dt=""string"">E-Prime Primary Realtime Clock</Description><StartTime><Timestamp dt:dt=""int"">0</Timestamp><DateUtc dt:dt=""string"">2014-06-07T18:42:19Z</DateUtc></StartTime><FrequencyChanges><FrequencyChange><Frequency dt:dt=""r8"">2793040000</Frequency><Timestamp dt:dt=""r8"">1.01698464777332E+15</Timestamp><Current dt:dt=""r8"">0</Current><DateUtc dt:dt=""string"">2014-06-07T18:42:19Z</DateUtc></FrequencyChange></FrequencyChanges></Clock>\n",60.033,1,1368397645,0,,-999999,10,22952,t,11775,34727,6/7/2014,11:42:19,6:42:19 PM,1,Session1,SessionsList,,,,,,,,,,1,1,1,4,,,,,,,,4,1,4,NonCued4,MiniBlocks2,,,,515137,2,1,r,-999999,18,538742,r,477,539219,Green,Congruent,r,White,0,,0,4,533728,,0,0,,,,,,,,,,,,,Pictures\white.bmp,4000,2000,Pictures\GreenLeft.bmp,,,,,,,,,,2,1,2,StimulusPr,Pictures\black.bmp,NonCuedStim4,Left
POP_2,27035,1,"<?xml version=""1.0""?>\n<Clock xmlns:dt=""urn:schemas-microsoft-com:datatypes""><Description dt:dt=""string"">E-Prime Primary Realtime Clock</Description><StartTime><Timestamp dt:dt=""int"">0</Timestamp><DateUtc dt:dt=""string"">2014-06-07T18:42:19Z</DateUtc></StartTime><FrequencyChanges><FrequencyChange><Frequency dt:dt=""r8"">2793040000</Frequency><Timestamp dt:dt=""r8"">1.01698464777332E+15</Timestamp><Current dt:dt=""r8"">0</Current><DateUtc dt:dt=""string"">2014-06-07T18:42:19Z</DateUtc></FrequencyChange></FrequencyChanges></Clock>\n",60.033,1,1368397645,0,,-999999,10,22952,t,11775,34727,6/7/2014,11:42:19,6:42:19 PM,1,Session1,SessionsList,,,,,,,,,,1,1,1,4,,,,,,,,4,1,4,NonCued4,MiniBlocks2,,,,515137,3,0,r,-999999,13,547738,b,641,548379,Red,Incongruent,r,White,0,,0,16,542740,,0,0,,,,,,,,,,,,,Pictures\white.bmp,4000,2000,Pictures\black.bmp,,,,,,,,,,3,1,3,StimulusPr,Pictures\RedRight.bmp,NonCuedStim4,Right
POP_2,27035,1,"<?xml version=""1.0""?>\n<Clock xmlns:dt=""urn:schemas-microsoft-com:datatypes""><Description dt:dt=""string"">E-Prime Primary Realtime Clock</Description><StartTime><Timestamp dt:dt=""int"">0</Timestamp><DateUtc dt:dt=""string"">2014-06-07T18:42:19Z</DateUtc></StartTime><FrequencyChanges><FrequencyChange><Frequency dt:dt=""r8"">2793040000</Frequency><Timestamp dt:dt=""r8"">1.01698464777332E+15</Timestamp><Current dt:dt=""r8"">0</Current><DateUtc dt:dt=""string"">2014-06-07T18:42:19Z</DateUtc></FrequencyChange></FrequencyChanges></Clock>\n",60.033,1,1368397645,0,,-999999,10,22952,t,11775,34727,6/7/2014,11:42:19,6:42:19 PM,1,Session1,SessionsList,,,,,,,,,,1,1,1,4,,,,,,,,4,1,4,NonCued4,MiniBlocks2,,,,515137,4,1,b,-999999,9,555734,b,643,556377,Green,Congruent,b,White,0,,0,11,551736,,0,0,,,,,,,,,,,,,Pictures\white.bmp,3000,16000,Pictures\black.bmp,,,,,,,,,,4,1,4,StimulusPr,Pictures\GreenRight.bmp,NonCuedStim4,Right
POP_2,27035,1,"<?xml version=""1.0""?>\n<Clock xmlns:dt=""urn:schemas-microsoft-com:datatypes""><Description dt:dt=""string"">E-Prime Primary Realtime Clock</Description><StartTime><Timestamp dt:dt=""int"">0</Timestamp><DateUtc dt:dt=""string"">2014-06-07T18:42:19Z</DateUtc></StartTime><FrequencyChanges><FrequencyChange><Frequency dt:dt=""r8"">2793040000</Frequency><Timestamp dt:dt=""r8"">1.01698464777332E+15</Timestamp><Current dt:dt=""r8"">0</Current><DateUtc dt:dt=""string"">2014-06-07T18:42:19Z</DateUtc></FrequencyChange></FrequencyChanges></Clock>\n",60.033,1,1368397645,0,,-999999,10,22952,t,11775,34727,6/7/2014,11:42:19,6:42:19 PM,1,Session1,SessionsList,,,,,,,,,,1,1,1,4,,,,,,,,4,1,4,NonCued4,MiniBlocks2,,,,515137,5,1,r,-999999,11,583736,r,613,584349,Green,Congruent,r,White,0,,0,16,573741,,0,0,,,,,,,,,,,,,Pictures\white.bmp,9000,10000,Pictures\GreenLeft.bmp,,,,,,,,,,5,1,5,StimulusPr,Pictures\black.bmp,NonCuedStim4,Left
POP_2,27035,1,"<?xml version=""1.0""?>\n<Clock xmlns:dt=""urn:schemas-microsoft-com:datatypes""><Description dt:dt=""string"">E-Prime Primary Realtime Clock</Description><StartTime><Timestamp dt:dt=""int"">0</Timestamp><DateUtc dt:dt=""string"">2014-06-07T18:42:19Z</DateUtc></StartTime><FrequencyChanges><FrequencyChange><Frequency dt:dt=""r8"">2793040000</Frequency><Timestamp dt:dt=""r8"">1.01698464777332E+15</Timestamp><Current dt:dt=""r8"">0</Current><DateUtc dt:dt=""string"">2014-06-07T18:42:19Z</DateUtc></FrequencyChange></FrequencyChanges></Clock>\n",60.033,1,1368397645,0,,-999999,10,22952,t,11775,34727,6/7/2014,11:42:19,6:42:19 PM,1,Session1,SessionsList,,,,,,,,,,1,1,1,4,,,,,,,,4,1,4,NonCued4,MiniBlocks2,,,,515137,6,1,b,-999999,3,599728,b,644,600372,Green,Congruent,b,White,0,,0,6,595730,,0,0,,,,,,,,,,,,,Pictures\white.bmp,3000,16000,Pictures\black.bmp,,,,,,,,,,6,1,6,StimulusPr,Pictures\GreenRight.bmp,NonCuedStim4,Right
POP_2,27035,1,"<?xml version=""1.0""?>\n<Clock xmlns:dt=""urn:schemas-microsoft-com:datatypes""><Description dt:dt=""string"">E-Prime Primary Realtime Clock</Description><StartTime><Timestamp dt:dt=""int"">0</Timestamp><DateUtc dt:dt=""string"">2014-06-07T18:42:19Z</DateUtc></StartTime><FrequencyChanges><FrequencyChange><Frequency dt:dt=""r8"">2793040000</Frequency><Timestamp dt:dt=""r8"">1.01698464777332E+15</Timestamp><Current dt:dt=""r8"">0</Current><DateUtc dt:dt=""string"">2014-06-07T18:42:19Z</DateUtc></FrequencyChange></FrequencyChanges></Clock>\n",60.033,1,1368397645,0,,-999999,10,22952,t,11775,34727,6/7/2014,11:42:19,6:42:19 PM,1,Session1,SessionsList,,,,,,,,,,1,1,1,4,,,,,,,,4,1,4,NonCued4,MiniBlocks2,,,,515137,7,1,b,-999999,10,621734,b,753,622487,Red,Incongruent,b,White,0,,0,11,617736,,0,0,,,,,,,,,,,,,Pictures\white.bmp,3000,16000,Pictures\RedLeft.bmp,,,,,,,,,,7,1,7,StimulusPr,Pictures\black.bmp,NonCuedStim4,Left
POP_2,27035,1,"<?xml version=""1.0""?>\n<Clock xmlns:dt=""urn:schemas-microsoft-com:datatypes""><Description dt:dt=""string"">E-Prime Primary Realtime Clock</Description><StartTime><Timestamp dt:dt=""int"">0</Timestamp><DateUtc dt:dt=""string"">2014-06-07T18:42:19Z</DateUtc></StartTime><FrequencyChanges><FrequencyChange><Frequency dt:dt=""r8"">2793040000</Frequency><Timestamp dt:dt=""r8"">1.01698464777332E+15</Timestamp><Current dt:dt=""r8"">0</Current><DateUtc dt:dt=""string"">2014-06-07T18:42:19Z</DateUtc></FrequencyChange></FrequencyChanges></Clock>\n",60.033,1,1368397645,0,,-999999,10,22952,t,11775,34727,6/7/2014,11:42:19,6:42:19 PM,1,Session1,SessionsList,,,,,,,,,,1,1,1,4,,,,,,,,4,1,4,NonCued4,MiniBlocks2,,,,515137,8,1,r,-999999,15,643740,r,720,644460,Green,Congruent,r,White,0,,0,17,639742,,0,0,,,,,,,,,,,,,Pictures\white.bmp,3000,2000,Pictures\GreenLeft.bmp,,,,,,,,,,8,1,8,StimulusPr,Pictures\black.bmp,NonCuedStim4,Left
POP_2,27035,1,"<?xml version=""1.0""?>\n<Clock xmlns:dt=""urn:schemas-microsoft-com:datatypes""><Description dt:dt=""string"">E-Prime Primary Realtime Clock</Description><StartTime><Timestamp dt:dt=""int"">0</Timestamp><DateUtc dt:dt=""string"">2014-06-07T18:42:19Z</DateUtc></StartTime><FrequencyChanges><FrequencyChange><Frequency dt:dt=""r8"">2793040000</Frequency><Timestamp dt:dt=""r8"">1.01698464777332E+15</Timestamp><Current dt:dt=""r8"">0</Current><DateUtc dt:dt=""string"">2014-06-07T18:42:19Z</DateUtc></FrequencyChange></FrequencyChanges></Clock>\n",60.033,1,1368397645,0,,-999999,10,22952,t,11775,34727,6/7/2014,11:42:19,6:42:19 PM,1,Session1,SessionsList,,,,,,,,,,1,1,1,4,,,,,,,,4,1,4,NonCued4,MiniBlocks2,,,,515137,9,1,b,-999999,9,654734,b,576,655310,Green,Congruent,b,White,0,,0,13,647738,,0,0,,,,,,,,,,,,,Pictures\white.bmp,6000,2000,Pictures\black.bmp,,,,,,,,,,9,1,9,StimulusPr,Pictures\GreenRight.bmp,NonCuedStim4,Right
POP_2,27035,1,"<?xml version=""1.0""?>\n<Clock xmlns:dt=""urn:schemas-microsoft-com:datatypes""><Description dt:dt=""string"">E-Prime Primary Realtime Clock</Description><StartTime><Timestamp dt:dt=""int"">0</Timestamp><DateUtc dt:dt=""string"">2014-06-07T18:42:19Z</DateUtc></StartTime><FrequencyChanges><FrequencyChange><Frequency dt:dt=""r8"">2793040000</Frequency><Timestamp dt:dt=""r8"">1.01698464777332E+15</Timestamp><Current dt:dt=""r8"">0</Current><DateUtc dt:dt=""string"">2014-06-07T18:42:19Z</DateUtc></FrequencyChange></FrequencyChanges></Clock>\n",60.033,1,1368397645,0,,-999999,10,22952,t,11775,34727,6/7/2014,11:42:19,6:42:19 PM,1,Session1,SessionsList,,,,,,,,,,1,1,1,4,,,,,,,,4,1,4,NonCued4,MiniBlocks2,,,,515137,10,1,b,-999999,4,663729,b,578,664307,Green,Congruent,b,White,0,,0,7,658732,,0,0,,,,,,,,,,,,,Pictures\white.bmp,4000,4000,Pictures\black.bmp,,,,,,,,,,10,1,10,StimulusPr,Pictures\GreenRight.bmp,NonCuedStim4,Right
POP_2,27035,1,"<?xml version=""1.0""?>\n<Clock xmlns:dt=""urn:schemas-microsoft-com:datatypes""><Description dt:dt=""string"">E-Prime Primary Realtime Clock</Description><StartTime><Timestamp dt:dt=""int"">0</Timestamp><DateUtc dt:dt=""string"">2014-06-07T18:42:19Z</DateUtc></StartTime><FrequencyChanges><FrequencyChange><Frequency dt:dt=""r8"">2793040000</Frequency><Timestamp dt:dt=""r8"">1.01698464777332E+15</Timestamp><Current dt:dt=""r8"">0</Current><DateUtc dt:dt=""string"">2014-06-07T18:42:19Z</DateUtc></FrequencyChange></FrequencyChanges></Clock>\n",60.033,1,1368397645,0,,-999999,10,22952,t,11775,34727,6/7/2014,11:42:19,6:42:19 PM,2,Session2,SessionsList,0,,-999999,2,702993,t,35286,738279,668327,2,1,2,1,738292,,,,1,1,1,,,,Cued1,MiniBlocks1,,,,,1,1,r,-999999,6,752285,r,1466,753751,White,Congruent,r,Green,0,,0,8,747287,,0,0,1,1,1,,,,,,,,,,Pictures\green.bmp,4000,4000,Pictures\left.bmp,,,,,,,,,,,,,StimulusPr,Pictures\black.bmp,CuedStim1,Left
POP_2,27035,1,"<?xml version=""1.0""?>\n<Clock xmlns:dt=""urn:schemas-microsoft-com:datatypes""><Description dt:dt=""string"">E-Prime Primary Realtime Clock</Description><StartTime><Timestamp dt:dt=""int"">0</Timestamp><DateUtc dt:dt=""string"">2014-06-07T18:42:19Z</DateUtc></StartTime><FrequencyChanges><FrequencyChange><Frequency dt:dt=""r8"">2793040000</Frequency><Timestamp dt:dt=""r8"">1.01698464777332E+15</Timestamp><Current dt:dt=""r8"">0</Current><DateUtc dt:dt=""string"">2014-06-07T18:42:19Z</DateUtc></FrequencyChange></FrequencyChanges></Clock>\n",60.033,1,1368397645,0,,-999999,10,22952,t,11775,34727,6/7/2014,11:42:19,6:42:19 PM,2,Session2,SessionsList,0,,-999999,2,702993,t,35286,738279,668327,2,1,2,1,738292,,,,1,1,1,,,,Cued1,MiniBlocks1,,,,,2,1,b,-999999,17,766295,b,573,766868,White,Congruent,b,Green,0,,0,3,759281,,0,0,2,1,2,,,,,,,,,,Pictures\green.bmp,6000,2000,Pictures\black.bmp,,,,,,,,,,,,,StimulusPr,Pictures\right.bmp,CuedStim1,Right
POP_2,27035,1,"<?xml version=""1.0""?>\n<Clock xmlns:dt=""urn:schemas-microsoft-com:datatypes""><Description dt:dt=""string"">E-Prime Primary Realtime Clock</Description><StartTime><Timestamp dt:dt=""int"">0</Timestamp><DateUtc dt:dt=""string"">2014-06-07T18:42:19Z</DateUtc></StartTime><FrequencyChanges><FrequencyChange><Frequency dt:dt=""r8"">2793040000</Frequency><Timestamp dt:dt=""r8"">1.01698464777332E+15</Timestamp><Current dt:dt=""r8"">0</Current><DateUtc dt:dt=""string"">2014-06-07T18:42:19Z</DateUtc></FrequencyChange></FrequencyChanges></Clock>\n",60.033,1,1368397645,0,,-999999,10,22952,t,11775,34727,6/7/2014,11:42:19,6:42:19 PM,2,Session2,SessionsList,0,,-999999,2,702993,t,35286,738279,668327,2,1,2,1,738292,,,,1,1,1,,,,Cued1,MiniBlocks1,,,,,3,1,b,-999999,13,774291,b,991,775282,White,Congruent,b,Green,0,,0,8,770276,,0,0,3,1,3,,,,,,,,,,Pictures\green.bmp,3000,2000,Pictures\black.bmp,,,,,,,,,,,,,StimulusPr,Pictures\right.bmp,CuedStim1,Right
POP_2,27035,1,"<?xml version=""1.0""?>\n<Clock xmlns:dt=""urn:schemas-microsoft-com:datatypes""><Description dt:dt=""string"">E-Prime Primary Realtime Clock</Description><StartTime><Timestamp dt:dt=""int"">0</Timestamp><DateUtc dt:dt=""string"">2014-06-07T18:42:19Z</DateUtc></StartTime><FrequencyChanges><FrequencyChange><Frequency dt:dt=""r8"">2793040000</Frequency><Timestamp dt:dt=""r8"">1.01698464777332E+15</Timestamp><Current dt:dt=""r8"">0</Current><DateUtc dt:dt=""string"">2014-06-07T18:42:19Z</DateUtc></FrequencyChange></FrequencyChanges></Clock>\n",60.033,1,1368397645,0,,-999999,10,22952,t,11775,34727,6/7/2014,11:42:19,6:42:19 PM,2,Session2,SessionsList,0,,-999999,2,702993,t,35286,738279,668327,2,1,2,1,738292,,,,1,1,1,,,,Cued1,MiniBlocks1,,,,,4,0,b,-999999,7,783286,r,701,783987,White,Incongruent,b,Red,0,,0,10,779288,,0,0,4,1,4,,,,,,,,,,Pictures\red.bmp,3000,16000,Pictures\left.bmp,,,,,,,,,,,,,StimulusPr,Pictures\black.bmp,CuedStim1,Left
POP_2,27035,1,"<?xml version=""1.0""?>\n<Clock xmlns:dt=""urn:schemas-microsoft-com:datatypes""><Description dt:dt=""string"">E-Prime Primary Realtime Clock</Description><StartTime><Timestamp dt:dt=""int"">0</Timestamp><DateUtc dt:dt=""string"">2014-06-07T18:42:19Z</DateUtc></StartTime><FrequencyChanges><FrequencyChange><Frequency dt:dt=""r8"">2793040000</Frequency><Timestamp dt:dt=""r8"">1.01698464777332E+15</Timestamp><Current dt:dt=""r8"">0</Current><DateUtc dt:dt=""string"">2014-06-07T18:42:19Z</DateUtc></FrequencyChange></FrequencyChanges></Clock>\n",60.033,1,1368397645,0,,-999999,10,22952,t,11775,34727,6/7/2014,11:42:19,6:42:19 PM,2,Session2,SessionsList,0,,-999999,2,702993,t,35286,738279,668327,2,1,2,1,738292,,,,1,1,1,,,,Cued1,MiniBlocks1,,,,,5,1,r,-999999,13,805292,r,1416,806708,White,Congruent,r,Green,0,,0,16,801294,,0,0,5,1,5,,,,,,,,,,Pictures\green.bmp,3000,16000,Pictures\left.bmp,,,,,,,,,,,,,StimulusPr,Pictures\black.bmp,CuedStim1,Left
POP_2,27035,1,"<?xml version=""1.0""?>\n<Clock xmlns:dt=""urn:schemas-microsoft-com:datatypes""><Description dt:dt=""string"">E-Prime Primary Realtime Clock</Description><StartTime><Timestamp dt:dt=""int"">0</Timestamp><DateUtc dt:dt=""string"">2014-06-07T18:42:19Z</DateUtc></StartTime><FrequencyChanges><FrequencyChange><Frequency dt:dt=""r8"">2793040000</Frequency><Timestamp dt:dt=""r8"">1.01698464777332E+15</Timestamp><Current dt:dt=""r8"">0</Current><DateUtc dt:dt=""string"">2014-06-07T18:42:19Z</DateUtc></FrequencyChange></FrequencyChanges></Clock>\n",60.033,1,1368397645,0,,-999999,10,22952,t,11775,34727,6/7/2014,11:42:19,6:42:19 PM,2,Session2,SessionsList,0,,-999999,2,702993,t,35286,738279,668327,2,1,2,1,738292,,,,1,1,1,,,,Cued1,MiniBlocks1,,,,,6,1,r,-999999,16,834294,r,646,834940,White,Congruent,r,Green,0,,0,4,824282,,0,0,6,1,6,,,,,,,,,,Pictures\green.bmp,9000,10000,Pictures\left.bmp,,,,,,,,,,,,,StimulusPr,Pictures\black.bmp,CuedStim1,Left
POP_2,27035,1,"<?xml version=""1.0""?>\n<Clock xmlns:dt=""urn:schemas-microsoft-com:datatypes""><Description dt:dt=""string"">E-Prime Primary Realtime Clock</Description><StartTime><Timestamp dt:dt=""int"">0</Timestamp><DateUtc dt:dt=""string"">2014-06-07T18:42:19Z</DateUtc></StartTime><FrequencyChanges><FrequencyChange><Frequency dt:dt=""r8"">2793040000</Frequency><Timestamp dt:dt=""r8"">1.01698464777332E+15</Timestamp><Current dt:dt=""r8"">0</Current><DateUtc dt:dt=""string"">2014-06-07T18:42:19Z</DateUtc></FrequencyChange></FrequencyChanges></Clock>\n",60.033,1,1368397645,0,,-999999,10,22952,t,11775,34727,6/7/2014,11:42:19,6:42:19 PM,2,Session2,SessionsList,0,,-999999,2,702993,t,35286,738279,668327,2,1,2,1,738292,,,,1,1,1,,,,Cued1,MiniBlocks1,,,,,7,1,b,-999999,8,850286,b,1107,851393,White,Congruent,b,Green,0,,0,10,846288,,0,0,7,1,7,,,,,,,,,,Pictures\green.bmp,3000,16000,Pictures\black.bmp,,,,,,,,,,,,,StimulusPr,Pictures\right.bmp,CuedStim1,Right
POP_2,27035,1,"<?xml version=""1.0""?>\n<Clock xmlns:dt=""urn:schemas-microsoft-com:datatypes""><Description dt:dt=""string"">E-Prime Primary Realtime Clock</Description><StartTime><Timestamp dt:dt=""int"">0</Timestamp><DateUtc dt:dt=""string"">2014-06-07T18:42:19Z</DateUtc></StartTime><FrequencyChanges><FrequencyChange><Frequency dt:dt=""r8"">2793040000</Frequency><Timestamp dt:dt=""r8"">1.01698464777332E+15</Timestamp><Current dt:dt=""r8"">0</Current><DateUtc dt:dt=""string"">2014-06-07T18:42:19Z</DateUtc></FrequencyChange></FrequencyChanges></Clock>\n",60.033,1,1368397645,0,,-999999,10,22952,t,11775,34727,6/7/2014,11:42:19,6:42:19 PM,2,Session2,SessionsList,0,,-999999,2,702993,t,35286,738279,668327,2,1,2,1,738292,,,,1,1,1,,,,Cued1,MiniBlocks1,,,,,8,1,r,-999999,11,874290,r,677,874967,White,Incongruent,r,Red,0,,0,14,869293,,0,0,8,1,8,,,,,,,,,,Pictures\red.bmp,4000,2000,Pictures\black.bmp,,,,,,,,,,,,,StimulusPr,Pictures\right.bmp,CuedStim1,Right
POP_2,27035,1,"<?xml version=""1.0""?>\n<Clock xmlns:dt=""urn:schemas-microsoft-com:datatypes""><Description dt:dt=""string"">E-Prime Primary Realtime Clock</Description><StartTime><Timestamp dt:dt=""int"">0</Timestamp><DateUtc dt:dt=""string"">2014-06-07T18:42:19Z</DateUtc></StartTime><FrequencyChanges><FrequencyChange><Frequency dt:dt=""r8"">2793040000</Frequency><Timestamp dt:dt=""r8"">1.01698464777332E+15</Timestamp><Current dt:dt=""r8"">0</Current><DateUtc dt:dt=""string"">2014-06-07T18:42:19Z</DateUtc></FrequencyChange></FrequencyChanges></Clock>\n",60.033,1,1368397645,0,,-999999,10,22952,t,11775,34727,6/7/2014,11:42:19,6:42:19 PM,2,Session2,SessionsList,0,,-999999,2,702993,t,35286,738279,668327,2,1,2,1,738292,,,,1,1,1,,,,Cued1,MiniBlocks1,,,,,9,1,b,-999999,7,883286,b,1501,884787,White,Congruent,b,Green,0,,0,9,878288,,0,0,9,1,9,,,,,,,,,,Pictures\green.bmp,4000,2000,Pictures\black.bmp,,,,,,,,,,,,,StimulusPr,Pictures\right.bmp,CuedStim1,Right
POP_2,27035,1,"<?xml version=""1.0""?>\n<Clock xmlns:dt=""urn:schemas-microsoft-com:datatypes""><Description dt:dt=""string"">E-Prime Primary Realtime Clock</Description><StartTime><Timestamp dt:dt=""int"">0</Timestamp><DateUtc dt:dt=""string"">2014-06-07T18:42:19Z</DateUtc></StartTime><FrequencyChanges><FrequencyChange><Frequency dt:dt=""r8"">2793040000</Frequency><Timestamp dt:dt=""r8"">1.01698464777332E+15</Timestamp><Current dt:dt=""r8"">0</Current><DateUtc dt:dt=""string"">2014-06-07T18:42:19Z</DateUtc></FrequencyChange></FrequencyChanges></Clock>\n",60.033,1,1368397645,0,,-999999,10,22952,t,11775,34727,6/7/2014,11:42:19,6:42:19 PM,2,Session2,SessionsList,0,,-999999,2,702993,t,35286,738279,668327,2,1,2,1,738292,,,,1,1,1,,,,Cued1,MiniBlocks1,,,,,10,1,r,-999999,3,892281,r,564,892845,White,Congruent,r,Green,0,,0,4,888283,,0,0,10,1,10,,,,,,,,,,Pictures\green.bmp,3000,2000,Pictures\left.bmp,,,,,,,,,,,,,StimulusPr,Pictures\black.bmp,CuedStim1,Left
POP_2,27035,1,"<?xml version=""1.0""?>\n<Clock xmlns:dt=""urn:schemas-microsoft-com:datatypes""><Description dt:dt=""string"">E-Prime Primary Realtime Clock</Description><StartTime><Timestamp dt:dt=""int"">0</Timestamp><DateUtc dt:dt=""string"">2014-06-07T18:42:19Z</DateUtc></StartTime><FrequencyChanges><FrequencyChange><Frequency dt:dt=""r8"">2793040000</Frequency><Timestamp dt:dt=""r8"">1.01698464777332E+15</Timestamp><Current dt:dt=""r8"">0</Current><DateUtc dt:dt=""string"">2014-06-07T18:42:19Z</DateUtc></FrequencyChange></FrequencyChanges></Clock>\n",60.033,1,1368397645,0,,-999999,10,22952,t,11775,34727,6/7/2014,11:42:19,6:42:19 PM,2,Session2,SessionsList,0,,-999999,2,702993,t,35286,738279,668327,2,1,2,2,,,,,2,1,2,,,,NonCued1,MiniBlocks1,894863,,,,1,1,r,-999999,11,910289,r,593,910882,Green,Congruent,r,White,0,,0,13,905291,,0,0,,,,,,,,,,,,,Pictures\white.bmp,4000,2000,Pictures\GreenLeft.bmp,1,1,1,,,,,,,,,,StimulusPr,Pictures\black.bmp,NonCuedStim1,Left
POP_2,27035,1,"<?xml version=""1.0""?>\n<Clock xmlns:dt=""urn:schemas-microsoft-com:datatypes""><Description dt:dt=""string"">E-Prime Primary Realtime Clock</Description><StartTime><Timestamp dt:dt=""int"">0</Timestamp><DateUtc dt:dt=""string"">2014-06-07T18:42:19Z</DateUtc></StartTime><FrequencyChanges><FrequencyChange><Frequency dt:dt=""r8"">2793040000</Frequency><Timestamp dt:dt=""r8"">1.01698464777332E+15</Timestamp><Current dt:dt=""r8"">0</Current><DateUtc dt:dt=""string"">2014-06-07T18:42:19Z</DateUtc></FrequencyChange></FrequencyChanges></Clock>\n",60.033,1,1368397645,0,,-999999,10,22952,t,11775,34727,6/7/2014,11:42:19,6:42:19 PM,2,Session2,SessionsList,0,,-999999,2,702993,t,35286,738279,668327,2,1,2,2,,,,,2,1,2,,,,NonCued1,MiniBlocks1,894863,,,,2,1,b,-999999,5,921283,b,676,921959,Green,Congruent,b,White,0,,0,9,914287,,0,0,,,,,,,,,,,,,Pictures\white.bmp,6000,16000,Pictures\black.bmp,2,1,2,,,,,,,,,,StimulusPr,Pictures\GreenRight.bmp,NonCuedStim1,Right
POP_2,27035,1,"<?xml version=""1.0""?>\n<Clock xmlns:dt=""urn:schemas-microsoft-com:datatypes""><Description dt:dt=""string"">E-Prime Primary Realtime Clock</Description><StartTime><Timestamp dt:dt=""int"">0</Timestamp><DateUtc dt:dt=""string"">2014-06-07T18:42:19Z</DateUtc></StartTime><FrequencyChanges><FrequencyChange><Frequency dt:dt=""r8"">2793040000</Frequency><Timestamp dt:dt=""r8"">1.01698464777332E+15</Timestamp><Current dt:dt=""r8"">0</Current><DateUtc dt:dt=""string"">2014-06-07T18:42:19Z</DateUtc></FrequencyChange></FrequencyChanges></Clock>\n",60.033,1,1368397645,0,,-999999,10,22952,t,11775,34727,6/7/2014,11:42:19,6:42:19 PM,2,Session2,SessionsList,0,,-999999,2,702993,t,35286,738279,668327,2,1,2,2,,,,,2,1,2,,,,NonCued1,MiniBlocks1,894863,,,,3,1,r,-999999,9,946287,r,592,946879,Red,Incongruent,r,White,0,,0,13,939291,,0,0,,,,,,,,,,,,,Pictures\white.bmp,6000,10000,Pictures\black.bmp,3,1,3,,,,,,,,,,StimulusPr,Pictures\RedRight.bmp,NonCuedStim1,Right
POP_2,27035,1,"<?xml version=""1.0""?>\n<Clock xmlns:dt=""urn:schemas-microsoft-com:datatypes""><Description dt:dt=""string"">E-Prime Primary Realtime Clock</Description><StartTime><Timestamp dt:dt=""int"">0</Timestamp><DateUtc dt:dt=""string"">2014-06-07T18:42:19Z</DateUtc></StartTime><FrequencyChanges><FrequencyChange><Frequency dt:dt=""r8"">2793040000</Frequency><Timestamp dt:dt=""r8"">1.01698464777332E+15</Timestamp><Current dt:dt=""r8"">0</Current><DateUtc dt:dt=""string"">2014-06-07T18:42:19Z</DateUtc></FrequencyChange></FrequencyChanges></Clock>\n",60.033,1,1368397645,0,,-999999,10,22952,t,11775,34727,6/7/2014,11:42:19,6:42:19 PM,2,Session2,SessionsList,0,,-999999,2,702993,t,35286,738279,668327,2,1,2,2,,,,,2,1,2,,,,NonCued1,MiniBlocks1,894863,,,,4,1,r,-999999,15,968293,r,804,969097,Green,Congruent,r,White,0,,0,2,958281,,0,0,,,,,,,,,,,,,Pictures\white.bmp,9000,10000,Pictures\GreenLeft.bmp,4,1,4,,,,,,,,,,StimulusPr,Pictures\black.bmp,NonCuedStim1,Left
POP_2,27035,1,"<?xml version=""1.0""?>\n<Clock xmlns:dt=""urn:schemas-microsoft-com:datatypes""><Description dt:dt=""string"">E-Prime Primary Realtime Clock</Description><StartTime><Timestamp dt:dt=""int"">0</Timestamp><DateUtc dt:dt=""string"">2014-06-07T18:42:19Z</DateUtc></StartTime><FrequencyChanges><FrequencyChange><Frequency dt:dt=""r8"">2793040000</Frequency><Timestamp dt:dt=""r8"">1.01698464777332E+15</Timestamp><Current dt:dt=""r8"">0</Current><DateUtc dt:dt=""string"">2014-06-07T18:42:19Z</DateUtc></FrequencyChange></FrequencyChanges></Clock>\n",60.033,1,1368397645,0,,-999999,10,22952,t,11775,34727,6/7/2014,11:42:19,6:42:19 PM,2,Session2,SessionsList,0,,-999999,2,702993,t,35286,738279,668327,2,1,2,2,,,,,2,1,2,,,,NonCued1,MiniBlocks1,894863,,,,5,1,b,-999999,7,984285,b,620,984905,Green,Congruent,b,White,0,,0,9,980287,,0,0,,,,,,,,,,,,,Pictures\white.bmp,3000,2000,Pictures\black.bmp,5,1,5,,,,,,,,,,StimulusPr,Pictures\GreenRight.bmp,NonCuedStim1,Right
POP_2,27035,1,"<?xml version=""1.0""?>\n<Clock xmlns:dt=""urn:schemas-microsoft-com:datatypes""><Description dt:dt=""string"">E-Prime Primary Realtime Clock</Description><StartTime><Timestamp dt:dt=""int"">0</Timestamp><DateUtc dt:dt=""string"">2014-06-07T18:42:19Z</DateUtc></StartTime><FrequencyChanges><FrequencyChange><Frequency dt:dt=""r8"">2793040000</Frequency><Timestamp dt:dt=""r8"">1.01698464777332E+15</Timestamp><Current dt:dt=""r8"">0</Current><DateUtc dt:dt=""string"">2014-06-07T18:42:19Z</DateUtc></FrequencyChange></FrequencyChanges></Clock>\n",60.033,1,1368397645,0,,-999999,10,22952,t,11775,34727,6/7/2014,11:42:19,6:42:19 PM,2,Session2,SessionsList,0,,-999999,2,702993,t,35286,738279,668327,2,1,2,2,,,,,2,1,2,,,,NonCued1,MiniBlocks1,894863,,,,6,1,b,-999999,3,993281,b,662,993943,Red,Incongruent,b,White,0,,0,5,988283,,0,0,,,,,,,,,,,,,Pictures\white.bmp,4000,16000,Pictures\RedLeft.bmp,6,1,6,,,,,,,,,,StimulusPr,Pictures\black.bmp,NonCuedStim1,Left
POP_2,27035,1,"<?xml version=""1.0""?>\n<Clock xmlns:dt=""urn:schemas-microsoft-com:datatypes""><Description dt:dt=""string"">E-Prime Primary Realtime Clock</Description><StartTime><Timestamp dt:dt=""int"">0</Timestamp><DateUtc dt:dt=""string"">2014-06-07T18:42:19Z</DateUtc></StartTime><FrequencyChanges><FrequencyChange><Frequency dt:dt=""r8"">2793040000</Frequency><Timestamp dt:dt=""r8"">1.01698464777332E+15</Timestamp><Current dt:dt=""r8"">0</Current><DateUtc dt:dt=""string"">2014-06-07T18:42:19Z</DateUtc></FrequencyChange></FrequencyChanges></Clock>\n",60.033,1,1368397645,0,,-999999,10,22952,t,11775,34727,6/7/2014,11:42:19,6:42:19 PM,2,Session2,SessionsList,0,,-999999,2,702993,t,35286,738279,668327,2,1,2,2,,,,,2,1,2,,,,NonCued1,MiniBlocks1,894863,,,,7,1,b,-999999,8,1015286,b,816,1016102,Green,Congruent,b,White,0,,0,10,1011288,,0,0,,,,,,,,,,,,,Pictures\white.bmp,3000,4000,Pictures\black.bmp,7,1,7,,,,,,,,,,StimulusPr,Pictures\GreenRight.bmp,NonCuedStim1,Right
POP_2,27035,1,"<?xml version=""1.0""?>\n<Clock xmlns:dt=""urn:schemas-microsoft-com:datatypes""><Description dt:dt=""string"">E-Prime Primary Realtime Clock</Description><StartTime><Timestamp dt:dt=""int"">0</Timestamp><DateUtc dt:dt=""string"">2014-06-07T18:42:19Z</DateUtc></StartTime><FrequencyChanges><FrequencyChange><Frequency dt:dt=""r8"">2793040000</Frequency><Timestamp dt:dt=""r8"">1.01698464777332E+15</Timestamp><Current dt:dt=""r8"">0</Current><DateUtc dt:dt=""string"">2014-06-07T18:42:19Z</DateUtc></FrequencyChange></FrequencyChanges></Clock>\n",60.033,1,1368397645,0,,-999999,10,22952,t,11775,34727,6/7/2014,11:42:19,6:42:19 PM,2,Session2,SessionsList,0,,-999999,2,702993,t,35286,738279,668327,2,1,2,2,,,,,2,1,2,,,,NonCued1,MiniBlocks1,894863,,,,8,1,b,-999999,3,1025281,b,713,1025994,Green,Congruent,b,White,0,,0,5,1021283,,0,0,,,,,,,,,,,,,Pictures\white.bmp,3000,4000,Pictures\black.bmp,8,1,8,,,,,,,,,,StimulusPr,Pictures\GreenRight.bmp,NonCuedStim1,Right
POP_2,27035,1,"<?xml version=""1.0""?>\n<Clock xmlns:dt=""urn:schemas-microsoft-com:datatypes""><Description dt:dt=""string"">E-Prime Primary Realtime Clock</Description><StartTime><Timestamp dt:dt=""int"">0</Timestamp><DateUtc dt:dt=""string"">2014-06-07T18:42:19Z</DateUtc></StartTime><FrequencyChanges><FrequencyChange><Frequency dt:dt=""r8"">2793040000</Frequency><Timestamp dt:dt=""r8"">1.01698464777332E+15</Timestamp><Current dt:dt=""r8"">0</Current><DateUtc dt:dt=""string"">2014-06-07T18:42:19Z</DateUtc></FrequencyChange></FrequencyChanges></Clock>\n",60.033,1,1368397645,0,,-999999,10,22952,t,11775,34727,6/7/2014,11:42:19,6:42:19 PM,2,Session2,SessionsList,0,,-999999,2,702993,t,35286,738279,668327,2,1,2,2,,,,,2,1,2,,,,NonCued1,MiniBlocks1,894863,,,,9,1,b,-999999,13,1041290,b,533,1041823,Red,Incongruent,b,White,0,,0,18,1031295,,0,0,,,,,,,,,,,,,Pictures\white.bmp,9000,2000,Pictures\RedLeft.bmp,9,1,9,,,,,,,,,,StimulusPr,Pictures\black.bmp,NonCuedStim1,Left
POP_2,27035,1,"<?xml version=""1.0""?>\n<Clock xmlns:dt=""urn:schemas-microsoft-com:datatypes""><Description dt:dt=""string"">E-Prime Primary Realtime Clock</Description><StartTime><Timestamp dt:dt=""int"">0</Timestamp><DateUtc dt:dt=""string"">2014-06-07T18:42:19Z</DateUtc></StartTime><FrequencyChanges><FrequencyChange><Frequency dt:dt=""r8"">2793040000</Frequency><Timestamp dt:dt=""r8"">1.01698464777332E+15</Timestamp><Current dt:dt=""r8"">0</Current><DateUtc dt:dt=""string"">2014-06-07T18:42:19Z</DateUtc></FrequencyChange></FrequencyChanges></Clock>\n",60.033,1,1368397645,0,,-999999,10,22952,t,11775,34727,6/7/2014,11:42:19,6:42:19 PM,2,Session2,SessionsList,0,,-999999,2,702993,t,35286,738279,668327,2,1,2,2,,,,,2,1,2,,,,NonCued1,MiniBlocks1,894863,,,,10,1,r,-999999,6,1052284,r,1085,1053369,Green,Congruent,r,White,0,,0,10,1045288,,0,0,,,,,,,,,,,,,Pictures\white.bmp,6000,2000,Pictures\GreenLeft.bmp,10,1,10,,,,,,,,,,StimulusPr,Pictures\black.bmp,NonCuedStim1,Left
POP_2,27035,1,"<?xml version=""1.0""?>\n<Clock xmlns:dt=""urn:schemas-microsoft-com:datatypes""><Description dt:dt=""string"">E-Prime Primary Realtime Clock</Description><StartTime><Timestamp dt:dt=""int"">0</Timestamp><DateUtc dt:dt=""string"">2014-06-07T18:42:19Z</DateUtc></StartTime><FrequencyChanges><FrequencyChange><Frequency dt:dt=""r8"">2793040000</Frequency><Timestamp dt:dt=""r8"">1.01698464777332E+15</Timestamp><Current dt:dt=""r8"">0</Current><DateUtc dt:dt=""string"">2014-06-07T18:42:19Z</DateUtc></FrequencyChange></FrequencyChanges></Clock>\n",60.033,1,1368397645,0,,-999999,10,22952,t,11775,34727,6/7/2014,11:42:19,6:42:19 PM,2,Session2,SessionsList,0,,-999999,2,702993,t,35286,738279,668327,2,1,2,3,,,,,3,1,3,,,,NonCued2,MiniBlocks1,,1055399,,,1,1,b,-999999,11,1075289,b,625,1075914,Green,Congruent,b,White,0,,0,16,1065294,,0,0,,,,,,,,,,,,,Pictures\white.bmp,9000,10000,Pictures\black.bmp,,,,1,1,1,,,,,,,StimulusPr,Pictures\GreenRight.bmp,NonCuedStim2,Right
POP_2,27035,1,"<?xml version=""1.0""?>\n<Clock xmlns:dt=""urn:schemas-microsoft-com:datatypes""><Description dt:dt=""string"">E-Prime Primary Realtime Clock</Description><StartTime><Timestamp dt:dt=""int"">0</Timestamp><DateUtc dt:dt=""string"">2014-06-07T18:42:19Z</DateUtc></StartTime><FrequencyChanges><FrequencyChange><Frequency dt:dt=""r8"">2793040000</Frequency><Timestamp dt:dt=""r8"">1.01698464777332E+15</Timestamp><Current dt:dt=""r8"">0</Current><DateUtc dt:dt=""string"">2014-06-07T18:42:19Z</DateUtc></FrequencyChange></FrequencyChanges></Clock>\n",60.033,1,1368397645,0,,-999999,10,22952,t,11775,34727,6/7/2014,11:42:19,6:42:19 PM,2,Session2,SessionsList,0,,-999999,2,702993,t,35286,738279,668327,2,1,2,3,,,,,3,1,3,,,,NonCued2,MiniBlocks1,,1055399,,,2,1,r,-999999,4,1091281,r,1397,1092678,Green,Congruent,r,White,0,,0,5,1087283,,0,0,,,,,,,,,,,,,Pictures\white.bmp,3000,2000,Pictures\GreenLeft.bmp,,,,2,1,2,,,,,,,StimulusPr,Pictures\black.bmp,NonCuedStim2,Left
POP_2,27035,1,"<?xml version=""1.0""?>\n<Clock xmlns:dt=""urn:schemas-microsoft-com:datatypes""><Description dt:dt=""string"">E-Prime Primary Realtime Clock</Description><StartTime><Timestamp dt:dt=""int"">0</Timestamp><DateUtc dt:dt=""string"">2014-06-07T18:42:19Z</DateUtc></StartTime><FrequencyChanges><FrequencyChange><Frequency dt:dt=""r8"">2793040000</Frequency><Timestamp dt:dt=""r8"">1.01698464777332E+15</Timestamp><Current dt:dt=""r8"">0</Current><DateUtc dt:dt=""string"">2014-06-07T18:42:19Z</DateUtc></FrequencyChange></FrequencyChanges></Clock>\n",60.033,1,1368397645,0,,-999999,10,22952,t,11775,34727,6/7/2014,11:42:19,6:42:19 PM,2,Session2,SessionsList,0,,-999999,2,702993,t,35286,738279,668327,2,1,2,3,,,,,3,1,3,,,,NonCued2,MiniBlocks1,,1055399,,,3,1,r,-999999,15,1100293,r,659,1100952,Red,Incongruent,r,White,0,,0,17,1096295,,0,0,,,,,,,,,,,,,Pictures\white.bmp,3000,2000,Pictures\black.bmp,,,,3,1,3,,,,,,,StimulusPr,Pictures\RedRight.bmp,NonCuedStim2,Right
POP_2,27035,1,"<?xml version=""1.0""?>\n<Clock xmlns:dt=""urn:schemas-microsoft-com:datatypes""><Description dt:dt=""string"">E-Prime Primary Realtime Clock</Description><StartTime><Timestamp dt:dt=""int"">0</Timestamp><DateUtc dt:dt=""string"">2014-06-07T18:42:19Z</DateUtc></StartTime><FrequencyChanges><FrequencyChange><Frequency dt:dt=""r8"">2793040000</Frequency><Timestamp dt:dt=""r8"">1.01698464777332E+15</Timestamp><Current dt:dt=""r8"">0</Current><DateUtc dt:dt=""string"">2014-06-07T18:42:19Z</DateUtc></FrequencyChange></FrequencyChanges></Clock>\n",60.033,1,1368397645,0,,-999999,10,22952,t,11775,34727,6/7/2014,11:42:19,6:42:19 PM,2,Session2,SessionsList,0,,-999999,2,702993,t,35286,738279,668327,2,1,2,3,,,,,3,1,3,,,,NonCued2,MiniBlocks1,,1055399,,,4,1,r,-999999,12,1109289,r,923,1110212,Green,Congruent,r,White,0,,0,14,1104291,,0,0,,,,,,,,,,,,,Pictures\white.bmp,4000,16000,Pictures\GreenLeft.bmp,,,,4,1,4,,,,,,,StimulusPr,Pictures\black.bmp,NonCuedStim2,Left
POP_2,27035,1,"<?xml version=""1.0""?>\n<Clock xmlns:dt=""urn:schemas-microsoft-com:datatypes""><Description dt:dt=""string"">E-Prime Primary Realtime Clock</Description><StartTime><Timestamp dt:dt=""int"">0</Timestamp><DateUtc dt:dt=""string"">2014-06-07T18:42:19Z</DateUtc></StartTime><FrequencyChanges><FrequencyChange><Frequency dt:dt=""r8"">2793040000</Frequency><Timestamp dt:dt=""r8"">1.01698464777332E+15</Timestamp><Current dt:dt=""r8"">0</Current><DateUtc dt:dt=""string"">2014-06-07T18:42:19Z</DateUtc></FrequencyChange></FrequencyChanges></Clock>\n",60.033,1,1368397645,0,,-999999,10,22952,t,11775,34727,6/7/2014,11:42:19,6:42:19 PM,2,Session2,SessionsList,0,,-999999,2,702993,t,35286,738279,668327,2,1,2,3,,,,,3,1,3,,,,NonCued2,MiniBlocks1,,1055399,,,5,1,r,-999999,15,1134293,r,1433,1135726,Green,Congruent,r,White,0,,0,3,1127280,,0,0,,,,,,,,,,,,,Pictures\white.bmp,6000,4000,Pictures\GreenLeft.bmp,,,,5,1,5,,,,,,,StimulusPr,Pictures\black.bmp,NonCuedStim2,Left
POP_2,27035,1,"<?xml version=""1.0""?>\n<Clock xmlns:dt=""urn:schemas-microsoft-com:datatypes""><Description dt:dt=""string"">E-Prime Primary Realtime Clock</Description><StartTime><Timestamp dt:dt=""int"">0</Timestamp><DateUtc dt:dt=""string"">2014-06-07T18:42:19Z</DateUtc></StartTime><FrequencyChanges><FrequencyChange><Frequency dt:dt=""r8"">2793040000</Frequency><Timestamp dt:dt=""r8"">1.01698464777332E+15</Timestamp><Current dt:dt=""r8"">0</Current><DateUtc dt:dt=""string"">2014-06-07T18:42:19Z</DateUtc></FrequencyChange></FrequencyChanges></Clock>\n",60.033,1,1368397645,0,,-999999,10,22952,t,11775,34727,6/7/2014,11:42:19,6:42:19 PM,2,Session2,SessionsList,0,,-999999,2,702993,t,35286,738279,668327,2,1,2,3,,,,,3,1,3,,,,NonCued2,MiniBlocks1,,1055399,,,6,1,b,-999999,9,1145287,b,669,1145956,Red,Incongruent,b,White,0,,0,11,1141289,,0,0,,,,,,,,,,,,,Pictures\white.bmp,3000,4000,Pictures\RedLeft.bmp,,,,6,1,6,,,,,,,StimulusPr,Pictures\black.bmp,NonCuedStim2,Left
POP_2,27035,1,"<?xml version=""1.0""?>\n<Clock xmlns:dt=""urn:schemas-microsoft-com:datatypes""><Description dt:dt=""string"">E-Prime Primary Realtime Clock</Description><StartTime><Timestamp dt:dt=""int"">0</Timestamp><DateUtc dt:dt=""string"">2014-06-07T18:42:19Z</DateUtc></StartTime><FrequencyChanges><FrequencyChange><Frequency dt:dt=""r8"">2793040000</Frequency><Timestamp dt:dt=""r8"">1.01698464777332E+15</Timestamp><Current dt:dt=""r8"">0</Current><DateUtc dt:dt=""string"">2014-06-07T18:42:19Z</DateUtc></FrequencyChange></FrequencyChanges></Clock>\n",60.033,1,1368397645,0,,-999999,10,22952,t,11775,34727,6/7/2014,11:42:19,6:42:19 PM,2,Session2,SessionsList,0,,-999999,2,702993,t,35286,738279,668327,2,1,2,3,,,,,3,1,3,,,,NonCued2,MiniBlocks1,,1055399,,,7,1,b,-999999,4,1156282,b,761,1157043,Green,Congruent,b,White,0,,0,6,1151284,,0,0,,,,,,,,,,,,,Pictures\white.bmp,4000,16000,Pictures\black.bmp,,,,7,1,7,,,,,,,StimulusPr,Pictures\GreenRight.bmp,NonCuedStim2,Right
POP_2,27035,1,"<?xml version=""1.0""?>\n<Clock xmlns:dt=""urn:schemas-microsoft-com:datatypes""><Description dt:dt=""string"">E-Prime Primary Realtime Clock</Description><StartTime><Timestamp dt:dt=""int"">0</Timestamp><DateUtc dt:dt=""string"">2014-06-07T18:42:19Z</DateUtc></StartTime><FrequencyChanges><FrequencyChange><Frequency dt:dt=""r8"">2793040000</Frequency><Timestamp dt:dt=""r8"">1.01698464777332E+15</Timestamp><Current dt:dt=""r8"">0</Current><DateUtc dt:dt=""string"">2014-06-07T18:42:19Z</DateUtc></FrequencyChange></FrequencyChanges></Clock>\n",60.033,1,1368397645,0,,-999999,10,22952,t,11775,34727,6/7/2014,11:42:19,6:42:19 PM,2,Session2,SessionsList,0,,-999999,2,702993,t,35286,738279,668327,2,1,2,3,,,,,3,1,3,,,,NonCued2,MiniBlocks1,,1055399,,,8,1,r,-999999,6,1184284,r,708,1184992,Green,Congruent,r,White,0,,0,12,1174289,,0,0,,,,,,,,,,,,,Pictures\white.bmp,9000,2000,Pictures\GreenLeft.bmp,,,,8,1,8,,,,,,,StimulusPr,Pictures\black.bmp,NonCuedStim2,Left
POP_2,27035,1,"<?xml version=""1.0""?>\n<Clock xmlns:dt=""urn:schemas-microsoft-com:datatypes""><Description dt:dt=""string"">E-Prime Primary Realtime Clock</Description><StartTime><Timestamp dt:dt=""int"">0</Timestamp><DateUtc dt:dt=""string"">2014-06-07T18:42:19Z</DateUtc></StartTime><FrequencyChanges><FrequencyChange><Frequency dt:dt=""r8"">2793040000</Frequency><Timestamp dt:dt=""r8"">1.01698464777332E+15</Timestamp><Current dt:dt=""r8"">0</Current><DateUtc dt:dt=""string"">2014-06-07T18:42:19Z</DateUtc></FrequencyChange></FrequencyChanges></Clock>\n",60.033,1,1368397645,0,,-999999,10,22952,t,11775,34727,6/7/2014,11:42:19,6:42:19 PM,2,Session2,SessionsList,0,,-999999,2,702993,t,35286,738279,668327,2,1,2,3,,,,,3,1,3,,,,NonCued2,MiniBlocks1,,1055399,,,9,1,b,-999999,3,1192280,b,550,1192830,Green,Congruent,b,White,0,,0,5,1188282,,0,0,,,,,,,,,,,,,Pictures\white.bmp,3000,10000,Pictures\black.bmp,,,,9,1,9,,,,,,,StimulusPr,Pictures\GreenRight.bmp,NonCuedStim2,Right
POP_2,27035,1,"<?xml version=""1.0""?>\n<Clock xmlns:dt=""urn:schemas-microsoft-com:datatypes""><Description dt:dt=""string"">E-Prime Primary Realtime Clock</Description><StartTime><Timestamp dt:dt=""int"">0</Timestamp><DateUtc dt:dt=""string"">2014-06-07T18:42:19Z</DateUtc></StartTime><FrequencyChanges><FrequencyChange><Frequency dt:dt=""r8"">2793040000</Frequency><Timestamp dt:dt=""r8"">1.01698464777332E+15</Timestamp><Current dt:dt=""r8"">0</Current><DateUtc dt:dt=""string"">2014-06-07T18:42:19Z</DateUtc></FrequencyChange></FrequencyChanges></Clock>\n",60.033,1,1368397645,0,,-999999,10,22952,t,11775,34727,6/7/2014,11:42:19,6:42:19 PM,2,Session2,SessionsList,0,,-999999,2,702993,t,35286,738279,668327,2,1,2,3,,,,,3,1,3,,,,NonCued2,MiniBlocks1,,1055399,,,10,1,b,-999999,12,1208289,b,1011,1209300,Green,Congruent,b,White,0,,0,14,1204291,,0,0,,,,,,,,,,,,,Pictures\white.bmp,3000,2000,Pictures\black.bmp,,,,10,1,10,,,,,,,StimulusPr,Pictures\GreenRight.bmp,NonCuedStim2,Right
POP_2,27035,1,"<?xml version=""1.0""?>\n<Clock xmlns:dt=""urn:schemas-microsoft-com:datatypes""><Description dt:dt=""string"">E-Prime Primary Realtime Clock</Description><StartTime><Timestamp dt:dt=""int"">0</Timestamp><DateUtc dt:dt=""string"">2014-06-07T18:42:19Z</DateUtc></StartTime><FrequencyChanges><FrequencyChange><Frequency dt:dt=""r8"">2793040000</Frequency><Timestamp dt:dt=""r8"">1.01698464777332E+15</Timestamp><Current dt:dt=""r8"">0</Current><DateUtc dt:dt=""string"">2014-06-07T18:42:19Z</DateUtc></FrequencyChange></FrequencyChanges></Clock>\n",60.033,1,1368397645,0,,-999999,10,22952,t,11775,34727,6/7/2014,11:42:19,6:42:19 PM,2,Session2,SessionsList,0,,-999999,2,702993,t,35286,738279,668327,2,1,2,4,,1211321,,,4,1,4,,,,Cued2,MiniBlocks1,,,,,1,1,b,-999999,18,1228296,b,741,1229037,White,Congruent,b,Green,0,,0,5,1221283,,0,0,,,,1,1,1,,,,,,,Pictures\green.bmp,6000,4000,Pictures\black.bmp,,,,,,,,,,,,,StimulusPr,Pictures\right.bmp,CuedStim2,Right
POP_2,27035,1,"<?xml version=""1.0""?>\n<Clock xmlns:dt=""urn:schemas-microsoft-com:datatypes""><Description dt:dt=""string"">E-Prime Primary Realtime Clock</Description><StartTime><Timestamp dt:dt=""int"">0</Timestamp><DateUtc dt:dt=""string"">2014-06-07T18:42:19Z</DateUtc></StartTime><FrequencyChanges><FrequencyChange><Frequency dt:dt=""r8"">2793040000</Frequency><Timestamp dt:dt=""r8"">1.01698464777332E+15</Timestamp><Current dt:dt=""r8"">0</Current><DateUtc dt:dt=""string"">2014-06-07T18:42:19Z</DateUtc></FrequencyChange></FrequencyChanges></Clock>\n",60.033,1,1368397645,0,,-999999,10,22952,t,11775,34727,6/7/2014,11:42:19,6:42:19 PM,2,Session2,SessionsList,0,,-999999,2,702993,t,35286,738279,668327,2,1,2,4,,1211321,,,4,1,4,,,,Cued2,MiniBlocks1,,,,,2,1,b,-999999,11,1244288,b,1433,1245721,White,Congruent,b,Green,0,,0,15,1234293,,0,0,,,,2,1,2,,,,,,,Pictures\green.bmp,9000,10000,Pictures\black.bmp,,,,,,,,,,,,,StimulusPr,Pictures\right.bmp,CuedStim2,Right
POP_2,27035,1,"<?xml version=""1.0""?>\n<Clock xmlns:dt=""urn:schemas-microsoft-com:datatypes""><Description dt:dt=""string"">E-Prime Primary Realtime Clock</Description><StartTime><Timestamp dt:dt=""int"">0</Timestamp><DateUtc dt:dt=""string"">2014-06-07T18:42:19Z</DateUtc></StartTime><FrequencyChanges><FrequencyChange><Frequency dt:dt=""r8"">2793040000</Frequency><Timestamp dt:dt=""r8"">1.01698464777332E+15</Timestamp><Current dt:dt=""r8"">0</Current><DateUtc dt:dt=""string"">2014-06-07T18:42:19Z</DateUtc></FrequencyChange></FrequencyChanges></Clock>\n",60.033,1,1368397645,0,,-999999,10,22952,t,11775,34727,6/7/2014,11:42:19,6:42:19 PM,2,Session2,SessionsList,0,,-999999,2,702993,t,35286,738279,668327,2,1,2,4,,1211321,,,4,1,4,,,,Cued2,MiniBlocks1,,,,,3,1,r,-999999,19,1261296,r,818,1262114,White,Incongruent,r,Red,0,,0,3,1257281,,0,0,,,,3,1,3,,,,,,,Pictures\red.bmp,3000,2000,Pictures\black.bmp,,,,,,,,,,,,,StimulusPr,Pictures\right.bmp,CuedStim2,Right
POP_2,27035,1,"<?xml version=""1.0""?>\n<Clock xmlns:dt=""urn:schemas-microsoft-com:datatypes""><Description dt:dt=""string"">E-Prime Primary Realtime Clock</Description><StartTime><Timestamp dt:dt=""int"">0</Timestamp><DateUtc dt:dt=""string"">2014-06-07T18:42:19Z</DateUtc></StartTime><FrequencyChanges><FrequencyChange><Frequency dt:dt=""r8"">2793040000</Frequency><Timestamp dt:dt=""r8"">1.01698464777332E+15</Timestamp><Current dt:dt=""r8"">0</Current><DateUtc dt:dt=""string"">2014-06-07T18:42:19Z</DateUtc></FrequencyChange></FrequencyChanges></Clock>\n",60.033,1,1368397645,0,,-999999,10,22952,t,11775,34727,6/7/2014,11:42:19,6:42:19 PM,2,Session2,SessionsList,0,,-999999,2,702993,t,35286,738279,668327,2,1,2,4,,1211321,,,4,1,4,,,,Cued2,MiniBlocks1,,,,,4,1,r,-999999,13,1272290,r,1095,1273385,White,Congruent,r,Green,0,,0,16,1265294,,0,0,,,,4,1,4,,,,,,,Pictures\green.bmp,6000,16000,Pictures\left.bmp,,,,,,,,,,,,,StimulusPr,Pictures\black.bmp,CuedStim2,Left
POP_2,27035,1,"<?xml version=""1.0""?>\n<Clock xmlns:dt=""urn:schemas-microsoft-com:datatypes""><Description dt:dt=""string"">E-Prime Primary Realtime Clock</Description><StartTime><Timestamp dt:dt=""int"">0</Timestamp><DateUtc dt:dt=""string"">2014-06-07T18:42:19Z</DateUtc></StartTime><FrequencyChanges><FrequencyChange><Frequency dt:dt=""r8"">2793040000</Frequency><Timestamp dt:dt=""r8"">1.01698464777332E+15</Timestamp><Current dt:dt=""r8"">0</Current><DateUtc dt:dt=""string"">2014-06-07T18:42:19Z</DateUtc></FrequencyChange></FrequencyChanges></Clock>\n",60.033,1,1368397645,0,,-999999,10,22952,t,11775,34727,6/7/2014,11:42:19,6:42:19 PM,2,Session2,SessionsList,0,,-999999,2,702993,t,35286,738279,668327,2,1,2,4,,1211321,,,4,1,4,,,,Cued2,MiniBlocks1,,,,,5,1,b,-999999,18,1295295,b,1244,1296539,White,Congruent,b,Green,0,,0,4,1291281,,0,0,,,,5,1,5,,,,,,,Pictures\green.bmp,3000,2000,Pictures\black.bmp,,,,,,,,,,,,,StimulusPr,Pictures\right.bmp,CuedStim2,Right
POP_2,27035,1,"<?xml version=""1.0""?>\n<Clock xmlns:dt=""urn:schemas-microsoft-com:datatypes""><Description dt:dt=""string"">E-Prime Primary Realtime Clock</Description><StartTime><Timestamp dt:dt=""int"">0</Timestamp><DateUtc dt:dt=""string"">2014-06-07T18:42:19Z</DateUtc></StartTime><FrequencyChanges><FrequencyChange><Frequency dt:dt=""r8"">2793040000</Frequency><Timestamp dt:dt=""r8"">1.01698464777332E+15</Timestamp><Current dt:dt=""r8"">0</Current><DateUtc dt:dt=""string"">2014-06-07T18:42:19Z</DateUtc></FrequencyChange></FrequencyChanges></Clock>\n",60.033,1,1368397645,0,,-999999,10,22952,t,11775,34727,6/7/2014,11:42:19,6:42:19 PM,2,Session2,SessionsList,0,,-999999,2,702993,t,35286,738279,668327,2,1,2,4,,1211321,,,4,1,4,,,,Cued2,MiniBlocks1,,,,,6,1,r,-999999,14,1304291,r,1429,1305720,White,Congruent,r,Green,0,,0,16,1300293,,0,0,,,,6,1,6,,,,,,,Pictures\green.bmp,3000,2000,Pictures\left.bmp,,,,,,,,,,,,,StimulusPr,Pictures\black.bmp,CuedStim2,Left
POP_2,27035,1,"<?xml version=""1.0""?>\n<Clock xmlns:dt=""urn:schemas-microsoft-com:datatypes""><Description dt:dt=""string"">E-Prime Primary Realtime Clock</Description><StartTime><Timestamp dt:dt=""int"">0</Timestamp><DateUtc dt:dt=""string"">2014-06-07T18:42:19Z</DateUtc></StartTime><FrequencyChanges><FrequencyChange><Frequency dt:dt=""r8"">2793040000</Frequency><Timestamp dt:dt=""r8"">1.01698464777332E+15</Timestamp><Current dt:dt=""r8"">0</Current><DateUtc dt:dt=""string"">2014-06-07T18:42:19Z</DateUtc></FrequencyChange></FrequencyChanges></Clock>\n",60.033,1,1368397645,0,,-999999,10,22952,t,11775,34727,6/7/2014,11:42:19,6:42:19 PM,2,Session2,SessionsList,0,,-999999,2,702993,t,35286,738279,668327,2,1,2,4,,1211321,,,4,1,4,,,,Cued2,MiniBlocks1,,,,,7,1,b,-999999,8,1316285,b,478,1316763,White,Incongruent,b,Red,0,,0,10,1309288,,0,0,,,,7,1,7,,,,,,,Pictures\red.bmp,6000,4000,Pictures\left.bmp,,,,,,,,,,,,,StimulusPr,Pictures\black.bmp,CuedStim2,Left
POP_2,27035,1,"<?xml version=""1.0""?>\n<Clock xmlns:dt=""urn:schemas-microsoft-com:datatypes""><Description dt:dt=""string"">E-Prime Primary Realtime Clock</Description><StartTime><Timestamp dt:dt=""int"">0</Timestamp><DateUtc dt:dt=""string"">2014-06-07T18:42:19Z</DateUtc></StartTime><FrequencyChanges><FrequencyChange><Frequency dt:dt=""r8"">2793040000</Frequency><Timestamp dt:dt=""r8"">1.01698464777332E+15</Timestamp><Current dt:dt=""r8"">0</Current><DateUtc dt:dt=""string"">2014-06-07T18:42:19Z</DateUtc></FrequencyChange></FrequencyChanges></Clock>\n",60.033,1,1368397645,0,,-999999,10,22952,t,11775,34727,6/7/2014,11:42:19,6:42:19 PM,2,Session2,SessionsList,0,,-999999,2,702993,t,35286,738279,668327,2,1,2,4,,1211321,,,4,1,4,,,,Cued2,MiniBlocks1,,,,,8,1,b,-999999,3,1327280,b,1045,1328325,White,Congruent,b,Green,0,,0,5,1322282,,0,0,,,,8,1,8,,,,,,,Pictures\green.bmp,4000,4000,Pictures\black.bmp,,,,,,,,,,,,,StimulusPr,Pictures\right.bmp,CuedStim2,Right
POP_2,27035,1,"<?xml version=""1.0""?>\n<Clock xmlns:dt=""urn:schemas-microsoft-com:datatypes""><Description dt:dt=""string"">E-Prime Primary Realtime Clock</Description><StartTime><Timestamp dt:dt=""int"">0</Timestamp><DateUtc dt:dt=""string"">2014-06-07T18:42:19Z</DateUtc></StartTime><FrequencyChanges><FrequencyChange><Frequency dt:dt=""r8"">2793040000</Frequency><Timestamp dt:dt=""r8"">1.01698464777332E+15</Timestamp><Current dt:dt=""r8"">0</Current><DateUtc dt:dt=""string"">2014-06-07T18:42:19Z</DateUtc></FrequencyChange></FrequencyChanges></Clock>\n",60.033,1,1368397645,0,,-999999,10,22952,t,11775,34727,6/7/2014,11:42:19,6:42:19 PM,2,Session2,SessionsList,0,,-999999,2,702993,t,35286,738279,668327,2,1,2,4,,1211321,,,4,1,4,,,,Cued2,MiniBlocks1,,,,,9,1,b,-999999,10,1344287,b,660,1344947,White,Incongruent,b,Red,0,,0,15,1334292,,0,0,,,,9,1,9,,,,,,,Pictures\red.bmp,9000,10000,Pictures\left.bmp,,,,,,,,,,,,,StimulusPr,Pictures\black.bmp,CuedStim2,Left
POP_2,27035,1,"<?xml version=""1.0""?>\n<Clock xmlns:dt=""urn:schemas-microsoft-com:datatypes""><Description dt:dt=""string"">E-Prime Primary Realtime Clock</Description><StartTime><Timestamp dt:dt=""int"">0</Timestamp><DateUtc dt:dt=""string"">2014-06-07T18:42:19Z</DateUtc></StartTime><FrequencyChanges><FrequencyChange><Frequency dt:dt=""r8"">2793040000</Frequency><Timestamp dt:dt=""r8"">1.01698464777332E+15</Timestamp><Current dt:dt=""r8"">0</Current><DateUtc dt:dt=""string"">2014-06-07T18:42:19Z</DateUtc></FrequencyChange></FrequencyChanges></Clock>\n",60.033,1,1368397645,0,,-999999,10,22952,t,11775,34727,6/7/2014,11:42:19,6:42:19 PM,2,Session2,SessionsList,0,,-999999,2,702993,t,35286,738279,668327,2,1,2,4,,1211321,,,4,1,4,,,,Cued2,MiniBlocks1,,,,,10,1,r,-999999,16,1366293,r,608,1366901,White,Congruent,r,Green,0,,0,4,1356281,,0,0,,,,10,1,10,,,,,,,Pictures\green.bmp,9000,10000,Pictures\left.bmp,,,,,,,,,,,,,StimulusPr,Pictures\black.bmp,CuedStim2,Left
