ExperimentName,Subject,Session,Clock.Information,Display.RefreshRate,Group,RandomSeed,Session1Onset.ACC,Session1Onset.CRESP,Session1Onset.DurationError,Session1Onset.OnsetDelay,Session1Onset.OnsetTime,Session1Onset.RESP,Session1Onset.RT,Session1Onset.RTTime,SessionDate,SessionTime,SessionTimeUtc,Block,Procedure[Block],Running[Block],Session2Onset.ACC,Session2Onset.CRESP,Session2Onset.DurationError,Session2Onset.OnsetDelay,Session2Onset.OnsetTime,Session2Onset.RESP,Session2Onset.RT,Session2Onset.RTTime,SessionBreak.OnsetTime,SessionsList,SessionsList.Cycle,SessionsList.Sample,Trial,CuedPrompt1.OnsetTime,CuedPrompt2.OnsetTime,CuedPrompt3.OnsetTime,CuedPrompt4.OnsetTime,MiniBlocks1,MiniBlocks1.Cycle,MiniBlocks1.Sample,MiniBlocks2,MiniBlocks2.Cycle,MiniBlocks2.Sample,Procedure[Trial],Running[Trial],UncuedPrompt1.OnsetTime,UncuedPrompt2.OnsetTime,UncuedPrompt3.OnsetTime,UncuedPrompt4.OnsetTime,SubTrial,Arrow1.ACC,Arrow1.CRESP,Arrow1.DurationError,Arrow1.OnsetDelay,Arrow1.OnsetTime,Arrow1.RESP,Arrow1.RT,Arrow1.RTTime,ArrowColor,Congruence,CorrectResp,Cue,Cue.ACC,Cue.CRESP,Cue.DurationError,Cue.OnsetDelay,Cue.OnsetTime,Cue.RESP,Cue.RT,Cue.RTTime,CuedStim1,CuedStim1.Cycle,CuedStim1.Sample,CuedStim2,CuedStim2.Cycle,CuedStim2.Sample,CuedStim3,CuedStim3.Cycle,CuedStim3.Sample,CuedStim4,CuedStim4.Cycle,CuedStim4.Sample,CueImage,JitterCue,JitterTrial,LeftImage,NonCuedStim1,NonCuedStim1.Cycle,NonCuedStim1.Sample,NonCuedStim2,NonCuedStim2.Cycle,NonCuedStim2.Sample,NonCuedStim3,NonCuedStim3.Cycle,NonCuedStim3.Sample,NonCuedStim4,NonCuedStim4.Cycle,NonCuedStim4.Sample,Procedure[SubTrial],RightImage,Running[SubTrial],Stimulus
POP_2,16051,1,"<?xml version=""1.0""?>\n<Clock xmlns:dt=""urn:schemas-microsoft-com:datatypes""><Description dt:dt=""string"">E-Prime Primary Realtime Clock</Description><StartTime><Timestamp dt:dt=""int"">0</Timestamp><DateUtc dt:dt=""string"">2014-05-09T22:13:32Z</DateUtc></StartTime><FrequencyChanges><FrequencyChange><Frequency dt:dt=""r8"">2793030000</Frequency><Timestamp dt:dt=""r8"">521418444605791</Timestamp><Current dt:dt=""r8"">0</Current><DateUtc dt:dt=""string"">2014-05-09T22:13:32Z</DateUtc></FrequencyChange></FrequencyChanges></Clock>\n",60.03,1,1364947968,0,,-999999,3,70419,t,55087,125506,5/9/2014,15:13:32,,1,Session1,SessionsList,,,,,,,,,,1,1,1,1,,,,,,,,1,1,1,NonCued3,MiniBlocks2,,,125508,,1,1,b,-999999,9,145515,b,570,146085,Green,Congruent,b,White,0,,0,15,135520,,0,0,,,,,,,,,,,,,Pictures\white.bmp,9000,10000,Pictures\black.bmp,,,,,,,1,1,1,,,,StimulusPr,Pictures\GreenRight.bmp,NonCuedStim3,Right
POP_2,16051,1,"<?xml version=""1.0""?>\n<Clock xmlns:dt=""urn:schemas-microsoft-com:datatypes""><Description dt:dt=""string"">E-Prime Primary Realtime Clock</Description><StartTime><Timestamp dt:dt=""int"">0</Timestamp><DateUtc dt:dt=""string"">2014-05-09T22:13:32Z</DateUtc></StartTime><FrequencyChanges><FrequencyChange><Frequency dt:dt=""r8"">2793030000</Frequency><Timestamp dt:dt=""r8"">521418444605791</Timestamp><Current dt:dt=""r8"">0</Current><DateUtc dt:dt=""string"">2014-05-09T22:13:32Z</DateUtc></FrequencyChange></FrequencyChanges></Clock>\n",60.03,1,1364947968,0,,-999999,3,70419,t,55087,125506,5/9/2014,15:13:32,,1,Session1,SessionsList,,,,,,,,,,1,1,1,1,,,,,,,,1,1,1,NonCued3,MiniBlocks2,,,125508,,2,1,r,-999999,18,167521,r,612,168133,Red,Incongruent,r,White,0,,0,3,157509,,0,0,,,,,,,,,,,,,Pictures\white.bmp,9000,10000,Pictures\black.bmp,,,,,,,2,1,2,,,,StimulusPr,Pictures\RedRight.bmp,NonCuedStim3,Right
POP_2,16051,1,"<?xml version=""1.0""?>\n<Clock xmlns:dt=""urn:schemas-microsoft-com:datatypes""><Description dt:dt=""string"">E-Prime Primary Realtime Clock</Description><StartTime><Timestamp dt:dt=""int"">0</Timestamp><DateUtc dt:dt=""string"">2014-05-09T22:13:32Z</DateUtc></StartTime><FrequencyChanges><FrequencyChange><Frequency dt:dt=""r8"">2793030000</Frequency><Timestamp dt:dt=""r8"">521418444605791</Timestamp><Current dt:dt=""r8"">0</Current><DateUtc dt:dt=""string"">2014-05-09T22:13:32Z</DateUtc></FrequencyChange></FrequencyChanges></Clock>\n",60.03,1,1364947968,0,,-999999,3,70419,t,55087,125506,5/9/2014,15:13:32,,1,Session1,SessionsList,,,,,,,,,,1,1,1,1,,,,,,,,1,1,1,NonCued3,MiniBlocks2,,,125508,,3,1,r,-999999,6,184512,r,654,185166,Green,Congruent,r,White,0,,0,10,179515,,0,0,,,,,,,,,,,,,Pictures\white.bmp,4000,4000,Pictures\GreenLeft.bmp,,,,,,,3,1,3,,,,StimulusPr,Pictures\black.bmp,NonCuedStim3,Left
POP_2,16051,1,"<?xml version=""1.0""?>\n<Clock xmlns:dt=""urn:schemas-microsoft-com:datatypes""><Description dt:dt=""string"">E-Prime Primary Realtime Clock</Description><StartTime><Timestamp dt:dt=""int"">0</Timestamp><DateUtc dt:dt=""string"">2014-05-09T22:13:32Z</DateUtc></StartTime><FrequencyChanges><FrequencyChange><Frequency dt:dt=""r8"">2793030000</Frequency><Timestamp dt:dt=""r8"">521418444605791</Timestamp><Current dt:dt=""r8"">0</Current><DateUtc dt:dt=""string"">2014-05-09T22:13:32Z</DateUtc></FrequencyChange></FrequencyChanges></Clock>\n",60.03,1,1364947968,0,,-999999,3,70419,t,55087,125506,5/9/2014,15:13:32,,1,Session1,SessionsList,,,,,,,,,,1,1,1,1,,,,,,,,1,1,1,NonCued3,MiniBlocks2,,,125508,,4,1,b,-999999,17,197522,b,481,198003,Red,Incongruent,b,White,0,,0,4,190509,,0,0,,,,,,,,,,,,,Pictures\white.bmp,6000,4000,Pictures\RedLeft.bmp,,,,,,,4,1,4,,,,StimulusPr,Pictures\black.bmp,NonCuedStim3,Left
POP_2,16051,1,"<?xml version=""1.0""?>\n<Clock xmlns:dt=""urn:schemas-microsoft-com:datatypes""><Description dt:dt=""string"">E-Prime Primary Realtime Clock</Description><StartTime><Timestamp dt:dt=""int"">0</Timestamp><DateUtc dt:dt=""string"">2014-05-09T22:13:32Z</DateUtc></StartTime><FrequencyChanges><FrequencyChange><Frequency dt:dt=""r8"">2793030000</Frequency><Timestamp dt:dt=""r8"">521418444605791</Timestamp><Current dt:dt=""r8"">0</Current><DateUtc dt:dt=""string"">2014-05-09T22:13:32Z</DateUtc></FrequencyChange></FrequencyChanges></Clock>\n",60.03,1,1364947968,0,,-999999,3,70419,t,55087,125506,5/9/2014,15:13:32,,1,Session1,SessionsList,,,,,,,,,,1,1,1,1,,,,,,,,1,1,1,NonCued3,MiniBlocks2,,,125508,,5,1,b,-999999,14,207517,b,352,207869,Green,Congruent,b,White,0,,0,13,203519,,0,0,,,,,,,,,,,,,Pictures\white.bmp,3000,2000,Pictures\black.bmp,,,,,,,5,1,5,,,,StimulusPr,Pictures\GreenRight.bmp,NonCuedStim3,Right
POP_2,16051,1,"<?xml version=""1.0""?>\n<Clock xmlns:dt=""urn:schemas-microsoft-com:datatypes""><Description dt:dt=""string"">E-Prime Primary Realtime Clock</Description><StartTime><Timestamp dt:dt=""int"">0</Timestamp><DateUtc dt:dt=""string"">2014-05-09T22:13:32Z</DateUtc></StartTime><FrequencyChanges><FrequencyChange><Frequency dt:dt=""r8"">2793030000</Frequency><Timestamp dt:dt=""r8"">521418444605791</Timestamp><Current dt:dt=""r8"">0</Current><DateUtc dt:dt=""string"">2014-05-09T22:13:32Z</DateUtc></FrequencyChange></FrequencyChanges></Clock>\n",60.03,1,1364947968,0,,-999999,3,70419,t,55087,125506,5/9/2014,15:13:32,,1,Session1,SessionsList,,,,,,,,,,1,1,1,1,,,,,,,,1,1,1,NonCued3,MiniBlocks2,,,125508,,6,1,r,-999999,8,215513,r,478,215991,Green,Congruent,r,White,0,,0,10,211515,,0,0,,,,,,,,,,,,,Pictures\white.bmp,3000,2000,Pictures\GreenLeft.bmp,,,,,,,6,1,6,,,,StimulusPr,Pictures\black.bmp,NonCuedStim3,Left
POP_2,16051,1,"<?xml version=""1.0""?>\n<Clock xmlns:dt=""urn:schemas-microsoft-com:datatypes""><Description dt:dt=""string"">E-Prime Primary Realtime Clock</Description><StartTime><Timestamp dt:dt=""int"">0</Timestamp><DateUtc dt:dt=""string"">2014-05-09T22:13:32Z</DateUtc></StartTime><FrequencyChanges><FrequencyChange><Frequency dt:dt=""r8"">2793030000</Frequency><Timestamp dt:dt=""r8"">521418444605791</Timestamp><Current dt:dt=""r8"">0</Current><DateUtc dt:dt=""string"">2014-05-09T22:13:32Z</DateUtc></FrequencyChange></FrequencyChanges></Clock>\n",60.03,1,1364947968,0,,-999999,3,70419,t,55087,125506,5/9/2014,15:13:32,,1,Session1,SessionsList,,,,,,,,,,1,1,1,1,,,,,,,,1,1,1,NonCued3,MiniBlocks2,,,125508,,7,1,b,-999999,7,226508,b,372,226880,Green,Congruent,b,White,0,,0,6,219511,,0,0,,,,,,,,,,,,,Pictures\white.bmp,6000,16000,Pictures\black.bmp,,,,,,,7,1,7,,,,StimulusPr,Pictures\GreenRight.bmp,NonCuedStim3,Right
POP_2,16051,1,"<?xml version=""1.0""?>\n<Clock xmlns:dt=""urn:schemas-microsoft-com:datatypes""><Description dt:dt=""string"">E-Prime Primary Realtime Clock</Description><StartTime><Timestamp dt:dt=""int"">0</Timestamp><DateUtc dt:dt=""string"">2014-05-09T22:13:32Z</DateUtc></StartTime><FrequencyChanges><FrequencyChange><Frequency dt:dt=""r8"">2793030000</Frequency><Timestamp dt:dt=""r8"">521418444605791</Timestamp><Current dt:dt=""r8"">0</Current><DateUtc dt:dt=""string"">2014-05-09T22:13:32Z</DateUtc></FrequencyChange></FrequencyChanges></Clock>\n",60.03,1,1364947968,0,,-999999,3,70419,t,55087,125506,5/9/2014,15:13:32,,1,Session1,SessionsList,,,,,,,,,,1,1,1,1,,,,,,,,1,1,1,NonCued3,MiniBlocks2,,,125508,,8,1,r,-999999,9,248514,r,543,249057,Red,Incongruent,r,White,0,,0,11,244516,,0,0,,,,,,,,,,,,,Pictures\white.bmp,3000,2000,Pictures\black.bmp,,,,,,,8,1,8,,,,StimulusPr,Pictures\RedRight.bmp,NonCuedStim3,Right
POP_2,16051,1,"<?xml version=""1.0""?>\n<Clock xmlns:dt=""urn:schemas-microsoft-com:datatypes""><Description dt:dt=""string"">E-Prime Primary Realtime Clock</Description><StartTime><Timestamp dt:dt=""int"">0</Timestamp><DateUtc dt:dt=""string"">2014-05-09T22:13:32Z</DateUtc></StartTime><FrequencyChanges><FrequencyChange><Frequency dt:dt=""r8"">2793030000</Frequency><Timestamp dt:dt=""r8"">521418444605791</Timestamp><Current dt:dt=""r8"">0</Current><DateUtc dt:dt=""string"">2014-05-09T22:13:32Z</DateUtc></FrequencyChange></FrequencyChanges></Clock>\n",60.03,1,1364947968,0,,-999999,3,70419,t,55087,125506,5/9/2014,15:13:32,,1,Session1,SessionsList,,,,,,,,,,1,1,1,1,,,,,,,,1,1,1,NonCued3,MiniBlocks2,,,125508,,9,1,r,-999999,18,262523,r,344,262867,Green,Congruent,r,White,0,,0,7,252512,,0,0,,,,,,,,,,,,,Pictures\white.bmp,9000,10000,Pictures\GreenLeft.bmp,,,,,,,9,1,9,,,,StimulusPr,Pictures\black.bmp,NonCuedStim3,Left
POP_2,16051,1,"<?xml version=""1.0""?>\n<Clock xmlns:dt=""urn:schemas-microsoft-com:datatypes""><Description dt:dt=""string"">E-Prime Primary Realtime Clock</Description><StartTime><Timestamp dt:dt=""int"">0</Timestamp><DateUtc dt:dt=""string"">2014-05-09T22:13:32Z</DateUtc></StartTime><FrequencyChanges><FrequencyChange><Frequency dt:dt=""r8"">2793030000</Frequency><Timestamp dt:dt=""r8"">521418444605791</Timestamp><Current dt:dt=""r8"">0</Current><DateUtc dt:dt=""string"">2014-05-09T22:13:32Z</DateUtc></FrequencyChange></FrequencyChanges></Clock>\n",60.03,1,1364947968,0,,-999999,3,70419,t,55087,125506,5/9/2014,15:13:32,,1,Session1,SessionsList,,,,,,,,,,1,1,1,1,,,,,,,,1,1,1,NonCued3,MiniBlocks2,,,125508,,10,1,r,-999999,9,281514,r,470,281984,Green,Congruent,r,White,0,,0,12,274517,,0,0,,,,,,,,,,,,,Pictures\white.bmp,6000,4000,Pictures\GreenLeft.bmp,,,,,,,10,1,10,,,,StimulusPr,Pictures\black.bmp,NonCuedStim3,Left
POP_2,16051,1,"<?xml version=""1.0""?>\n<Clock xmlns:dt=""urn:schemas-microsoft-com:datatypes""><Description dt:dt=""string"">E-Prime Primary Realtime Clock</Description><StartTime><Timestamp dt:dt=""int"">0</Timestamp><DateUtc dt:dt=""string"">2014-05-09T22:13:32Z</DateUtc></StartTime><FrequencyChanges><FrequencyChange><Frequency dt:dt=""r8"">2793030000</Frequency><Timestamp dt:dt=""r8"">521418444605791</Timestamp><Current dt:dt=""r8"">0</Current><DateUtc dt:dt=""string"">2014-05-09T22:13:32Z</DateUtc></FrequencyChange></FrequencyChanges></Clock>\n",60.03,1,1364947968,0,,-999999,3,70419,t,55087,125506,5/9/2014,15:13:32,,1,Session1,SessionsList,,,,,,,,,,1,1,1,2,,,286012,,,,,2,1,2,Cued3,MiniBlocks2,,,,,1,1,b,-999999,16,300521,b,394,300915,White,Congruent,b,Green,0,,0,18,296523,,0,0,,,,,,,1,1,1,,,,Pictures\green.bmp,3000,2000,Pictures\black.bmp,,,,,,,,,,,,,StimulusPr,Pictures\right.bmp,CuedStim3,Right
POP_2,16051,1,"<?xml version=""1.0""?>\n<Clock xmlns:dt=""urn:schemas-microsoft-com:datatypes""><Description dt:dt=""string"">E-Prime Primary Realtime Clock</Description><StartTime><Timestamp dt:dt=""int"">0</Timestamp><DateUtc dt:dt=""string"">2014-05-09T22:13:32Z</DateUtc></StartTime><FrequencyChanges><FrequencyChange><Frequency dt:dt=""r8"">2793030000</Frequency><Timestamp dt:dt=""r8"">521418444605791</Timestamp><Current dt:dt=""r8"">0</Current><DateUtc dt:dt=""string"">2014-05-09T22:13:32Z</DateUtc></FrequencyChange></FrequencyChanges></Clock>\n",60.03,1,1364947968,0,,-999999,3,70419,t,55087,125506,5/9/2014,15:13:32,,1,Session1,SessionsList,,,,,,,,,,1,1,1,2,,,286012,,,,,2,1,2,Cued3,MiniBlocks2,,,,,2,1,b,-999999,12,308517,b,326,308843,White,Congruent,b,Green,0,,0,14,304519,,0,0,,,,,,,2,1,2,,,,Pictures\green.bmp,3000,10000,Pictures\black.bmp,,,,,,,,,,,,,StimulusPr,Pictures\right.bmp,CuedStim3,Right
POP_2,16051,1,"<?xml version=""1.0""?>\n<Clock xmlns:dt=""urn:schemas-microsoft-com:datatypes""><Description dt:dt=""string"">E-Prime Primary Realtime Clock</Description><StartTime><Timestamp dt:dt=""int"">0</Timestamp><DateUtc dt:dt=""string"">2014-05-09T22:13:32Z</DateUtc></StartTime><FrequencyChanges><FrequencyChange><Frequency dt:dt=""r8"">2793030000</Frequency><Timestamp dt:dt=""r8"">521418444605791</Timestamp><Current dt:dt=""r8"">0</Current><DateUtc dt:dt=""string"">2014-05-09T22:13:32Z</DateUtc></FrequencyChange></FrequencyChanges></Clock>\n",60.03,1,1364947968,0,,-999999,3,70419,t,55087,125506,5/9/2014,15:13:32,,1,Session1,SessionsList,,,,,,,,,,1,1,1,2,,,286012,,,,,2,1,2,Cued3,MiniBlocks2,,,,,3,1,r,-999999,18,330523,r,370,330893,White,Congruent,r,Green,0,,0,6,320511,,0,0,,,,,,,3,1,3,,,,Pictures\green.bmp,9000,2000,Pictures\left.bmp,,,,,,,,,,,,,StimulusPr,Pictures\black.bmp,CuedStim3,Left
POP_2,16051,1,"<?xml version=""1.0""?>\n<Clock xmlns:dt=""urn:schemas-microsoft-com:datatypes""><Description dt:dt=""string"">E-Prime Primary Realtime Clock</Description><StartTime><Timestamp dt:dt=""int"">0</Timestamp><DateUtc dt:dt=""string"">2014-05-09T22:13:32Z</DateUtc></StartTime><FrequencyChanges><FrequencyChange><Frequency dt:dt=""r8"">2793030000</Frequency><Timestamp dt:dt=""r8"">521418444605791</Timestamp><Current dt:dt=""r8"">0</Current><DateUtc dt:dt=""string"">2014-05-09T22:13:32Z</DateUtc></FrequencyChange></FrequencyChanges></Clock>\n",60.03,1,1364947968,0,,-999999,3,70419,t,55087,125506,5/9/2014,15:13:32,,1,Session1,SessionsList,,,,,,,,,,1,1,1,2,,,286012,,,,,2,1,2,Cued3,MiniBlocks2,,,,,4,1,r,-999999,13,339518,r,385,339903,White,Congruent,r,Green,0,,0,16,334521,,0,0,,,,,,,4,1,4,,,,Pictures\green.bmp,4000,16000,Pictures\left.bmp,,,,,,,,,,,,,StimulusPr,Pictures\black.bmp,CuedStim3,Left
POP_2,16051,1,"<?xml version=""1.0""?>\n<Clock xmlns:dt=""urn:schemas-microsoft-com:datatypes""><Description dt:dt=""string"">E-Prime Primary Realtime Clock</Description><StartTime><Timestamp dt:dt=""int"">0</Timestamp><DateUtc dt:dt=""string"">2014-05-09T22:13:32Z</DateUtc></StartTime><FrequencyChanges><FrequencyChange><Frequency dt:dt=""r8"">2793030000</Frequency><Timestamp dt:dt=""r8"">521418444605791</Timestamp><Current dt:dt=""r8"">0</Current><DateUtc dt:dt=""string"">2014-05-09T22:13:32Z</DateUtc></FrequencyChange></FrequencyChanges></Clock>\n",60.03,1,1364947968,0,,-999999,3,70419,t,55087,125506,5/9/2014,15:13:32,,1,Session1,SessionsList,,,,,,,,,,1,1,1,2,,,286012,,,,,2,1,2,Cued3,MiniBlocks2,,,,,5,1,r,-999999,3,361508,r,334,361842,White,Incongruent,r,Red,0,,0,4,357509,,0,0,,,,,,,5,1,5,,,,Pictures\red.bmp,3000,4000,Pictures\black.bmp,,,,,,,,,,,,,StimulusPr,Pictures\right.bmp,CuedStim3,Right
POP_2,16051,1,"<?xml version=""1.0""?>\n<Clock xmlns:dt=""urn:schemas-microsoft-com:datatypes""><Description dt:dt=""string"">E-Prime Primary Realtime Clock</Description><StartTime><Timestamp dt:dt=""int"">0</Timestamp><DateUtc dt:dt=""string"">2014-05-09T22:13:32Z</DateUtc></StartTime><FrequencyChanges><FrequencyChange><Frequency dt:dt=""r8"">2793030000</Frequency><Timestamp dt:dt=""r8"">521418444605791</Timestamp><Current dt:dt=""r8"">0</Current><DateUtc dt:dt=""string"">2014-05-09T22:13:32Z</DateUtc></FrequencyChange></FrequencyChanges></Clock>\n",60.03,1,1364947968,0,,-999999,3,70419,t,55087,125506,5/9/2014,15:13:32,,1,Session1,SessionsList,,,,,,,,,,1,1,1,2,,,286012,,,,,2,1,2,Cued3,MiniBlocks2,,,,,6,1,b,-999999,12,374517,b,348,374865,White,Congruent,b,Green,0,,0,15,367537,,0,0,,,,,,,6,1,6,,,,Pictures\green.bmp,6000,4000,Pictures\black.bmp,,,,,,,,,,,,,StimulusPr,Pictures\right.bmp,CuedStim3,Right
POP_2,16051,1,"<?xml version=""1.0""?>\n<Clock xmlns:dt=""urn:schemas-microsoft-com:datatypes""><Description dt:dt=""string"">E-Prime Primary Realtime Clock</Description><StartTime><Timestamp dt:dt=""int"">0</Timestamp><DateUtc dt:dt=""string"">2014-05-09T22:13:32Z</DateUtc></StartTime><FrequencyChanges><FrequencyChange><Frequency dt:dt=""r8"">2793030000</Frequency><Timestamp dt:dt=""r8"">521418444605791</Timestamp><Current dt:dt=""r8"">0</Current><DateUtc dt:dt=""string"">2014-05-09T22:13:32Z</DateUtc></FrequencyChange></FrequencyChanges></Clock>\n",60.03,1,1364947968,0,,-999999,3,70419,t,55087,125506,5/9/2014,15:13:32,,1,Session1,SessionsList,,,,,,,,,,1,1,1,2,,,286012,,,,,2,1,2,Cued3,MiniBlocks2,,,,,7,1,r,-999999,7,385512,r,295,385807,White,Congruent,r,Green,0,,0,9,380514,,0,0,,,,,,,7,1,7,,,,Pictures\green.bmp,4000,16000,Pictures\left.bmp,,,,,,,,,,,,,StimulusPr,Pictures\black.bmp,CuedStim3,Left
POP_2,16051,1,"<?xml version=""1.0""?>\n<Clock xmlns:dt=""urn:schemas-microsoft-com:datatypes""><Description dt:dt=""string"">E-Prime Primary Realtime Clock</Description><StartTime><Timestamp dt:dt=""int"">0</Timestamp><DateUtc dt:dt=""string"">2014-05-09T22:13:32Z</DateUtc></StartTime><FrequencyChanges><FrequencyChange><Frequency dt:dt=""r8"">2793030000</Frequency><Timestamp dt:dt=""r8"">521418444605791</Timestamp><Current dt:dt=""r8"">0</Current><DateUtc dt:dt=""string"">2014-05-09T22:13:32Z</DateUtc></FrequencyChange></FrequencyChanges></Clock>\n",60.03,1,1364947968,0,,-999999,3,70419,t,55087,125506,5/9/2014,15:13:32,,1,Session1,SessionsList,,,,,,,,,,1,1,1,2,,,286012,,,,,2,1,2,Cued3,MiniBlocks2,,,,,8,1,b,-999999,13,407518,b,378,407896,White,Incongruent,b,Red,0,,0,15,403520,,0,0,,,,,,,8,1,8,,,,Pictures\red.bmp,3000,2000,Pictures\left.bmp,,,,,,,,,,,,,StimulusPr,Pictures\black.bmp,CuedStim3,Left
POP_2,16051,1,"<?xml version=""1.0""?>\n<Clock xmlns:dt=""urn:schemas-microsoft-com:datatypes""><Description dt:dt=""string"">E-Prime Primary Realtime Clock</Description><StartTime><Timestamp dt:dt=""int"">0</Timestamp><DateUtc dt:dt=""string"">2014-05-09T22:13:32Z</DateUtc></StartTime><FrequencyChanges><FrequencyChange><Frequency dt:dt=""r8"">2793030000</Frequency><Timestamp dt:dt=""r8"">521418444605791</Timestamp><Current dt:dt=""r8"">0</Current><DateUtc dt:dt=""string"">2014-05-09T22:13:32Z</DateUtc></FrequencyChange></FrequencyChanges></Clock>\n",60.03,1,1364947968,0,,-999999,3,70419,t,55087,125506,5/9/2014,15:13:32,,1,Session1,SessionsList,,,,,,,,,,1,1,1,2,,,286012,,,,,2,1,2,Cued3,MiniBlocks2,,,,,9,1,r,-999999,9,415514,r,358,415872,White,Congruent,r,Green,0,,0,11,411516,,0,0,,,,,,,9,1,9,,,,Pictures\green.bmp,3000,2000,Pictures\left.bmp,,,,,,,,,,,,,StimulusPr,Pictures\black.bmp,CuedStim3,Left
POP_2,16051,1,"<?xml version=""1.0""?>\n<Clock xmlns:dt=""urn:schemas-microsoft-com:datatypes""><Description dt:dt=""string"">E-Prime Primary Realtime Clock</Description><StartTime><Timestamp dt:dt=""int"">0</Timestamp><DateUtc dt:dt=""string"">2014-05-09T22:13:32Z</DateUtc></StartTime><FrequencyChanges><FrequencyChange><Frequency dt:dt=""r8"">2793030000</Frequency><Timestamp dt:dt=""r8"">521418444605791</Timestamp><Current dt:dt=""r8"">0</Current><DateUtc dt:dt=""string"">2014-05-09T22:13:32Z</DateUtc></FrequencyChange></FrequencyChanges></Clock>\n",60.03,1,1364947968,0,,-999999,3,70419,t,55087,125506,5/9/2014,15:13:32,,1,Session1,SessionsList,,,,,,,,,,1,1,1,2,,,286012,,,,,2,1,2,Cued3,MiniBlocks2,,,,,10,1,b,-999999,4,429507,b,338,429845,White,Congruent,b,Green,0,,0,7,419512,,0,0,,,,,,,10,1,10,,,,Pictures\green.bmp,9000,10000,Pictures\black.bmp,,,,,,,,,,,,,StimulusPr,Pictures\right.bmp,CuedStim3,Right
POP_2,16051,1,"<?xml version=""1.0""?>\n<Clock xmlns:dt=""urn:schemas-microsoft-com:datatypes""><Description dt:dt=""string"">E-Prime Primary Realtime Clock</Description><StartTime><Timestamp dt:dt=""int"">0</Timestamp><DateUtc dt:dt=""string"">2014-05-09T22:13:32Z</DateUtc></StartTime><FrequencyChanges><FrequencyChange><Frequency dt:dt=""r8"">2793030000</Frequency><Timestamp dt:dt=""r8"">521418444605791</Timestamp><Current dt:dt=""r8"">0</Current><DateUtc dt:dt=""string"">2014-05-09T22:13:32Z</DateUtc></FrequencyChange></FrequencyChanges></Clock>\n",60.03,1,1364947968,0,,-999999,3,70419,t,55087,125506,5/9/2014,15:13:32,,1,Session1,SessionsList,,,,,,,,,,1,1,1,3,,,,439868,,,,3,1,3,Cued4,MiniBlocks2,,,,,1,1,b,-999999,5,456510,b,322,456832,White,Congruent,b,Green,0,,0,8,449513,,0,0,,,,,,,,,,1,1,1,Pictures\green.bmp,6000,2000,Pictures\black.bmp,,,,,,,,,,,,,StimulusPr,Pictures\right.bmp,CuedStim4,Right
POP_2,16051,1,"<?xml version=""1.0""?>\n<Clock xmlns:dt=""urn:schemas-microsoft-com:datatypes""><Description dt:dt=""string"">E-Prime Primary Realtime Clock</Description><StartTime><Timestamp dt:dt=""int"">0</Timestamp><DateUtc dt:dt=""string"">2014-05-09T22:13:32Z</DateUtc></StartTime><FrequencyChanges><FrequencyChange><Frequency dt:dt=""r8"">2793030000</Frequency><Timestamp dt:dt=""r8"">521418444605791</Timestamp><Current dt:dt=""r8"">0</Current><DateUtc dt:dt=""string"">2014-05-09T22:13:32Z</DateUtc></FrequencyChange></FrequencyChanges></Clock>\n",60.03,1,1364947968,0,,-999999,3,70419,t,55087,125506,5/9/2014,15:13:32,,1,Session1,SessionsList,,,,,,,,,,1,1,1,3,,,,439868,,,,3,1,3,Cued4,MiniBlocks2,,,,,2,1,r,-999999,14,470519,r,368,470887,White,Incongruent,r,Red,0,,0,3,460508,,0,0,,,,,,,,,,2,1,2,Pictures\red.bmp,9000,2000,Pictures\black.bmp,,,,,,,,,,,,,StimulusPr,Pictures\right.bmp,CuedStim4,Right
POP_2,16051,1,"<?xml version=""1.0""?>\n<Clock xmlns:dt=""urn:schemas-microsoft-com:datatypes""><Description dt:dt=""string"">E-Prime Primary Realtime Clock</Description><StartTime><Timestamp dt:dt=""int"">0</Timestamp><DateUtc dt:dt=""string"">2014-05-09T22:13:32Z</DateUtc></StartTime><FrequencyChanges><FrequencyChange><Frequency dt:dt=""r8"">2793030000</Frequency><Timestamp dt:dt=""r8"">521418444605791</Timestamp><Current dt:dt=""r8"">0</Current><DateUtc dt:dt=""string"">2014-05-09T22:13:32Z</DateUtc></FrequencyChange></FrequencyChanges></Clock>\n",60.03,1,1364947968,0,,-999999,3,70419,t,55087,125506,5/9/2014,15:13:32,,1,Session1,SessionsList,,,,,,,,,,1,1,1,3,,,,439868,,,,3,1,3,Cued4,MiniBlocks2,,,,,3,1,b,-999999,10,478515,b,373,478888,White,Congruent,b,Green,0,,0,12,474517,,0,0,,,,,,,,,,3,1,3,Pictures\green.bmp,3000,4000,Pictures\black.bmp,,,,,,,,,,,,,StimulusPr,Pictures\right.bmp,CuedStim4,Right
POP_2,16051,1,"<?xml version=""1.0""?>\n<Clock xmlns:dt=""urn:schemas-microsoft-com:datatypes""><Description dt:dt=""string"">E-Prime Primary Realtime Clock</Description><StartTime><Timestamp dt:dt=""int"">0</Timestamp><DateUtc dt:dt=""string"">2014-05-09T22:13:32Z</DateUtc></StartTime><FrequencyChanges><FrequencyChange><Frequency dt:dt=""r8"">2793030000</Frequency><Timestamp dt:dt=""r8"">521418444605791</Timestamp><Current dt:dt=""r8"">0</Current><DateUtc dt:dt=""string"">2014-05-09T22:13:32Z</DateUtc></FrequencyChange></FrequencyChanges></Clock>\n",60.03,1,1364947968,0,,-999999,3,70419,t,55087,125506,5/9/2014,15:13:32,,1,Session1,SessionsList,,,,,,,,,,1,1,1,3,,,,439868,,,,3,1,3,Cued4,MiniBlocks2,,,,,4,1,r,-999999,5,488510,r,261,488771,White,Congruent,r,Green,0,,0,7,484512,,0,0,,,,,,,,,,4,1,4,Pictures\green.bmp,3000,4000,Pictures\left.bmp,,,,,,,,,,,,,StimulusPr,Pictures\black.bmp,CuedStim4,Left
POP_2,16051,1,"<?xml version=""1.0""?>\n<Clock xmlns:dt=""urn:schemas-microsoft-com:datatypes""><Description dt:dt=""string"">E-Prime Primary Realtime Clock</Description><StartTime><Timestamp dt:dt=""int"">0</Timestamp><DateUtc dt:dt=""string"">2014-05-09T22:13:32Z</DateUtc></StartTime><FrequencyChanges><FrequencyChange><Frequency dt:dt=""r8"">2793030000</Frequency><Timestamp dt:dt=""r8"">521418444605791</Timestamp><Current dt:dt=""r8"">0</Current><DateUtc dt:dt=""string"">2014-05-09T22:13:32Z</DateUtc></FrequencyChange></FrequencyChanges></Clock>\n",60.03,1,1364947968,0,,-999999,3,70419,t,55087,125506,5/9/2014,15:13:32,,1,Session1,SessionsList,,,,,,,,,,1,1,1,3,,,,439868,,,,3,1,3,Cued4,MiniBlocks2,,,,,5,1,b,-999999,17,499522,b,339,499861,White,Incongruent,b,Red,0,,0,2,494507,,0,0,,,,,,,,,,5,1,5,Pictures\red.bmp,4000,16000,Pictures\left.bmp,,,,,,,,,,,,,StimulusPr,Pictures\black.bmp,CuedStim4,Left
POP_2,16051,1,"<?xml version=""1.0""?>\n<Clock xmlns:dt=""urn:schemas-microsoft-com:datatypes""><Description dt:dt=""string"">E-Prime Primary Realtime Clock</Description><StartTime><Timestamp dt:dt=""int"">0</Timestamp><DateUtc dt:dt=""string"">2014-05-09T22:13:32Z</DateUtc></StartTime><FrequencyChanges><FrequencyChange><Frequency dt:dt=""r8"">2793030000</Frequency><Timestamp dt:dt=""r8"">521418444605791</Timestamp><Current dt:dt=""r8"">0</Current><DateUtc dt:dt=""string"">2014-05-09T22:13:32Z</DateUtc></FrequencyChange></FrequencyChanges></Clock>\n",60.03,1,1364947968,0,,-999999,3,70419,t,55087,125506,5/9/2014,15:13:32,,1,Session1,SessionsList,,,,,,,,,,1,1,1,3,,,,439868,,,,3,1,3,Cued4,MiniBlocks2,,,,,6,1,b,-999999,6,521511,b,290,521801,White,Congruent,b,Green,0,,0,8,517513,,0,0,,,,,,,,,,6,1,6,Pictures\green.bmp,3000,2000,Pictures\black.bmp,,,,,,,,,,,,,StimulusPr,Pictures\right.bmp,CuedStim4,Right
POP_2,16051,1,"<?xml version=""1.0""?>\n<Clock xmlns:dt=""urn:schemas-microsoft-com:datatypes""><Description dt:dt=""string"">E-Prime Primary Realtime Clock</Description><StartTime><Timestamp dt:dt=""int"">0</Timestamp><DateUtc dt:dt=""string"">2014-05-09T22:13:32Z</DateUtc></StartTime><FrequencyChanges><FrequencyChange><Frequency dt:dt=""r8"">2793030000</Frequency><Timestamp dt:dt=""r8"">521418444605791</Timestamp><Current dt:dt=""r8"">0</Current><DateUtc dt:dt=""string"">2014-05-09T22:13:32Z</DateUtc></FrequencyChange></FrequencyChanges></Clock>\n",60.03,1,1364947968,0,,-999999,3,70419,t,55087,125506,5/9/2014,15:13:32,,1,Session1,SessionsList,,,,,,,,,,1,1,1,3,,,,439868,,,,3,1,3,Cued4,MiniBlocks2,,,,,7,1,b,-999999,15,535520,b,393,535913,White,Congruent,b,Green,0,,0,4,525509,,0,0,,,,,,,,,,7,1,7,Pictures\green.bmp,9000,10000,Pictures\black.bmp,,,,,,,,,,,,,StimulusPr,Pictures\right.bmp,CuedStim4,Right
POP_2,16051,1,"<?xml version=""1.0""?>\n<Clock xmlns:dt=""urn:schemas-microsoft-com:datatypes""><Description dt:dt=""string"">E-Prime Primary Realtime Clock</Description><StartTime><Timestamp dt:dt=""int"">0</Timestamp><DateUtc dt:dt=""string"">2014-05-09T22:13:32Z</DateUtc></StartTime><FrequencyChanges><FrequencyChange><Frequency dt:dt=""r8"">2793030000</Frequency><Timestamp dt:dt=""r8"">521418444605791</Timestamp><Current dt:dt=""r8"">0</Current><DateUtc dt:dt=""string"">2014-05-09T22:13:32Z</DateUtc></FrequencyChange></FrequencyChanges></Clock>\n",60.03,1,1364947968,0,,-999999,3,70419,t,55087,125506,5/9/2014,15:13:32,,1,Session1,SessionsList,,,,,,,,,,1,1,1,3,,,,439868,,,,3,1,3,Cued4,MiniBlocks2,,,,,8,1,b,-999999,6,554511,b,307,554818,White,Incongruent,b,Red,0,,0,9,547514,,0,0,,,,,,,,,,8,1,8,Pictures\red.bmp,6000,10000,Pictures\left.bmp,,,,,,,,,,,,,StimulusPr,Pictures\black.bmp,CuedStim4,Left
POP_2,16051,1,"<?xml version=""1.0""?>\n<Clock xmlns:dt=""urn:schemas-microsoft-com:datatypes""><Description dt:dt=""string"">E-Prime Primary Realtime Clock</Description><StartTime><Timestamp dt:dt=""int"">0</Timestamp><DateUtc dt:dt=""string"">2014-05-09T22:13:32Z</DateUtc></StartTime><FrequencyChanges><FrequencyChange><Frequency dt:dt=""r8"">2793030000</Frequency><Timestamp dt:dt=""r8"">521418444605791</Timestamp><Current dt:dt=""r8"">0</Current><DateUtc dt:dt=""string"">2014-05-09T22:13:32Z</DateUtc></FrequencyChange></FrequencyChanges></Clock>\n",60.03,1,1364947968,0,,-999999,3,70419,t,55087,125506,5/9/2014,15:13:32,,1,Session1,SessionsList,,,,,,,,,,1,1,1,3,,,,439868,,,,3,1,3,Cued4,MiniBlocks2,,,,,9,1,r,-999999,13,573518,r,346,573864,White,Congruent,r,Green,0,,0,16,566521,,0,0,,,,,,,,,,9,1,9,Pictures\green.bmp,6000,16000,Pictures\left.bmp,,,,,,,,,,,,,StimulusPr,Pictures\black.bmp,CuedStim4,Left
POP_2,16051,1,"<?xml version=""1.0""?>\n<Clock xmlns:dt=""urn:schemas-microsoft-com:datatypes""><Description dt:dt=""string"">E-Prime Primary Realtime Clock</Description><StartTime><Timestamp dt:dt=""int"">0</Timestamp><DateUtc dt:dt=""string"">2014-05-09T22:13:32Z</DateUtc></StartTime><FrequencyChanges><FrequencyChange><Frequency dt:dt=""r8"">2793030000</Frequency><Timestamp dt:dt=""r8"">521418444605791</Timestamp><Current dt:dt=""r8"">0</Current><DateUtc dt:dt=""string"">2014-05-09T22:13:32Z</DateUtc></FrequencyChange></FrequencyChanges></Clock>\n",60.03,1,1364947968,0,,-999999,3,70419,t,55087,125506,5/9/2014,15:13:32,,1,Session1,SessionsList,,,,,,,,,,1,1,1,3,,,,439868,,,,3,1,3,Cued4,MiniBlocks2,,,,,10,1,r,-999999,18,596523,r,309,596832,White,Congruent,r,Green,0,,0,13,591526,,0,0,,,,,,,,,,10,1,10,Pictures\green.bmp,4000,2000,Pictures\left.bmp,,,,,,,,,,,,,StimulusPr,Pictures\black.bmp,CuedStim4,Left
POP_2,16051,1,"<?xml version=""1.0""?>\n<Clock xmlns:dt=""urn:schemas-microsoft-com:datatypes""><Description dt:dt=""string"">E-Prime Primary Realtime Clock</Description><StartTime><Timestamp dt:dt=""int"">0</Timestamp><DateUtc dt:dt=""string"">2014-05-09T22:13:32Z</DateUtc></StartTime><FrequencyChanges><FrequencyChange><Frequency dt:dt=""r8"">2793030000</Frequency><Timestamp dt:dt=""r8"">521418444605791</Timestamp><Current dt:dt=""r8"">0</Current><DateUtc dt:dt=""string"">2014-05-09T22:13:32Z</DateUtc></FrequencyChange></FrequencyChanges></Clock>\n",60.03,1,1364947968,0,,-999999,3,70419,t,55087,125506,5/9/2014,15:13:32,,1,Session1,SessionsList,,,,,,,,,,1,1,1,4,,,,,,,,4,1,4,NonCued4,MiniBlocks2,,,,598855,1,1,r,-999999,10,612515,r,478,612993,Green,Congruent,r,White,0,,0,13,608534,,0,0,,,,,,,,,,,,,Pictures\white.bmp,3000,2000,Pictures\GreenLeft.bmp,,,,,,,,,,1,1,1,StimulusPr,Pictures\black.bmp,NonCuedStim4,Left
POP_2,16051,1,"<?xml version=""1.0""?>\n<Clock xmlns:dt=""urn:schemas-microsoft-com:datatypes""><Description dt:dt=""string"">E-Prime Primary Realtime Clock</Description><StartTime><Timestamp dt:dt=""int"">0</Timestamp><DateUtc dt:dt=""string"">2014-05-09T22:13:32Z</DateUtc></StartTime><FrequencyChanges><FrequencyChange><Frequency dt:dt=""r8"">2793030000</Frequency><Timestamp dt:dt=""r8"">521418444605791</Timestamp><Current dt:dt=""r8"">0</Current><DateUtc dt:dt=""string"">2014-05-09T22:13:32Z</DateUtc></FrequencyChange></FrequencyChanges></Clock>\n",60.03,1,1364947968,0,,-999999,3,70419,t,55087,125506,5/9/2014,15:13:32,,1,Session1,SessionsList,,,,,,,,,,1,1,1,4,,,,,,,,4,1,4,NonCued4,MiniBlocks2,,,,598855,2,1,r,-999999,6,621511,r,378,621889,Green,Congruent,r,White,0,,0,8,616513,,0,0,,,,,,,,,,,,,Pictures\white.bmp,4000,2000,Pictures\GreenLeft.bmp,,,,,,,,,,2,1,2,StimulusPr,Pictures\black.bmp,NonCuedStim4,Left
POP_2,16051,1,"<?xml version=""1.0""?>\n<Clock xmlns:dt=""urn:schemas-microsoft-com:datatypes""><Description dt:dt=""string"">E-Prime Primary Realtime Clock</Description><StartTime><Timestamp dt:dt=""int"">0</Timestamp><DateUtc dt:dt=""string"">2014-05-09T22:13:32Z</DateUtc></StartTime><FrequencyChanges><FrequencyChange><Frequency dt:dt=""r8"">2793030000</Frequency><Timestamp dt:dt=""r8"">521418444605791</Timestamp><Current dt:dt=""r8"">0</Current><DateUtc dt:dt=""string"">2014-05-09T22:13:32Z</DateUtc></FrequencyChange></FrequencyChanges></Clock>\n",60.03,1,1364947968,0,,-999999,3,70419,t,55087,125506,5/9/2014,15:13:32,,1,Session1,SessionsList,,,,,,,,,,1,1,1,4,,,,,,,,4,1,4,NonCued4,MiniBlocks2,,,,598855,3,1,r,-999999,18,630523,r,331,630854,Red,Incongruent,r,White,0,,0,4,625509,,0,0,,,,,,,,,,,,,Pictures\white.bmp,4000,2000,Pictures\black.bmp,,,,,,,,,,3,1,3,StimulusPr,Pictures\RedRight.bmp,NonCuedStim4,Right
POP_2,16051,1,"<?xml version=""1.0""?>\n<Clock xmlns:dt=""urn:schemas-microsoft-com:datatypes""><Description dt:dt=""string"">E-Prime Primary Realtime Clock</Description><StartTime><Timestamp dt:dt=""int"">0</Timestamp><DateUtc dt:dt=""string"">2014-05-09T22:13:32Z</DateUtc></StartTime><FrequencyChanges><FrequencyChange><Frequency dt:dt=""r8"">2793030000</Frequency><Timestamp dt:dt=""r8"">521418444605791</Timestamp><Current dt:dt=""r8"">0</Current><DateUtc dt:dt=""string"">2014-05-09T22:13:32Z</DateUtc></FrequencyChange></FrequencyChanges></Clock>\n",60.03,1,1364947968,0,,-999999,3,70419,t,55087,125506,5/9/2014,15:13:32,,1,Session1,SessionsList,,,,,,,,,,1,1,1,4,,,,,,,,4,1,4,NonCued4,MiniBlocks2,,,,598855,4,1,b,-999999,14,638519,b,485,639004,Green,Congruent,b,White,0,,0,16,634521,,0,0,,,,,,,,,,,,,Pictures\white.bmp,3000,16000,Pictures\black.bmp,,,,,,,,,,4,1,4,StimulusPr,Pictures\GreenRight.bmp,NonCuedStim4,Right
POP_2,16051,1,"<?xml version=""1.0""?>\n<Clock xmlns:dt=""urn:schemas-microsoft-com:datatypes""><Description dt:dt=""string"">E-Prime Primary Realtime Clock</Description><StartTime><Timestamp dt:dt=""int"">0</Timestamp><DateUtc dt:dt=""string"">2014-05-09T22:13:32Z</DateUtc></StartTime><FrequencyChanges><FrequencyChange><Frequency dt:dt=""r8"">2793030000</Frequency><Timestamp dt:dt=""r8"">521418444605791</Timestamp><Current dt:dt=""r8"">0</Current><DateUtc dt:dt=""string"">2014-05-09T22:13:32Z</DateUtc></FrequencyChange></FrequencyChanges></Clock>\n",60.03,1,1364947968,0,,-999999,3,70419,t,55087,125506,5/9/2014,15:13:32,,1,Session1,SessionsList,,,,,,,,,,1,1,1,4,,,,,,,,4,1,4,NonCued4,MiniBlocks2,,,,598855,5,1,r,-999999,17,666538,r,425,666963,Green,Congruent,r,White,0,,0,6,656527,,0,0,,,,,,,,,,,,,Pictures\white.bmp,9000,10000,Pictures\GreenLeft.bmp,,,,,,,,,,5,1,5,StimulusPr,Pictures\black.bmp,NonCuedStim4,Left
POP_2,16051,1,"<?xml version=""1.0""?>\n<Clock xmlns:dt=""urn:schemas-microsoft-com:datatypes""><Description dt:dt=""string"">E-Prime Primary Realtime Clock</Description><StartTime><Timestamp dt:dt=""int"">0</Timestamp><DateUtc dt:dt=""string"">2014-05-09T22:13:32Z</DateUtc></StartTime><FrequencyChanges><FrequencyChange><Frequency dt:dt=""r8"">2793030000</Frequency><Timestamp dt:dt=""r8"">521418444605791</Timestamp><Current dt:dt=""r8"">0</Current><DateUtc dt:dt=""string"">2014-05-09T22:13:32Z</DateUtc></FrequencyChange></FrequencyChanges></Clock>\n",60.03,1,1364947968,0,,-999999,3,70419,t,55087,125506,5/9/2014,15:13:32,,1,Session1,SessionsList,,,,,,,,,,1,1,1,4,,,,,,,,4,1,4,NonCued4,MiniBlocks2,,,,598855,6,1,b,-999999,9,682514,b,547,683061,Green,Congruent,b,White,0,,0,11,678532,,0,0,,,,,,,,,,,,,Pictures\white.bmp,3000,16000,Pictures\black.bmp,,,,,,,,,,6,1,6,StimulusPr,Pictures\GreenRight.bmp,NonCuedStim4,Right
POP_2,16051,1,"<?xml version=""1.0""?>\n<Clock xmlns:dt=""urn:schemas-microsoft-com:datatypes""><Description dt:dt=""string"">E-Prime Primary Realtime Clock</Description><StartTime><Timestamp dt:dt=""int"">0</Timestamp><DateUtc dt:dt=""string"">2014-05-09T22:13:32Z</DateUtc></StartTime><FrequencyChanges><FrequencyChange><Frequency dt:dt=""r8"">2793030000</Frequency><Timestamp dt:dt=""r8"">521418444605791</Timestamp><Current dt:dt=""r8"">0</Current><DateUtc dt:dt=""string"">2014-05-09T22:13:32Z</DateUtc></FrequencyChange></FrequencyChanges></Clock>\n",60.03,1,1364947968,0,,-999999,3,70419,t,55087,125506,5/9/2014,15:13:32,,1,Session1,SessionsList,,,,,,,,,,1,1,1,4,,,,,,,,4,1,4,NonCued4,MiniBlocks2,,,,598855,7,1,b,-999999,15,704536,b,581,705117,Red,Incongruent,b,White,0,,0,16,700521,,0,0,,,,,,,,,,,,,Pictures\white.bmp,3000,16000,Pictures\RedLeft.bmp,,,,,,,,,,7,1,7,StimulusPr,Pictures\black.bmp,NonCuedStim4,Left
POP_2,16051,1,"<?xml version=""1.0""?>\n<Clock xmlns:dt=""urn:schemas-microsoft-com:datatypes""><Description dt:dt=""string"">E-Prime Primary Realtime Clock</Description><StartTime><Timestamp dt:dt=""int"">0</Timestamp><DateUtc dt:dt=""string"">2014-05-09T22:13:32Z</DateUtc></StartTime><FrequencyChanges><FrequencyChange><Frequency dt:dt=""r8"">2793030000</Frequency><Timestamp dt:dt=""r8"">521418444605791</Timestamp><Current dt:dt=""r8"">0</Current><DateUtc dt:dt=""string"">2014-05-09T22:13:32Z</DateUtc></FrequencyChange></FrequencyChanges></Clock>\n",60.03,1,1364947968,0,,-999999,3,70419,t,55087,125506,5/9/2014,15:13:32,,1,Session1,SessionsList,,,,,,,,,,1,1,1,4,,,,,,,,4,1,4,NonCued4,MiniBlocks2,,,,598855,8,1,r,-999999,3,726508,r,362,726870,Green,Congruent,r,White,0,,0,5,722510,,0,0,,,,,,,,,,,,,Pictures\white.bmp,3000,2000,Pictures\GreenLeft.bmp,,,,,,,,,,8,1,8,StimulusPr,Pictures\black.bmp,NonCuedStim4,Left
POP_2,16051,1,"<?xml version=""1.0""?>\n<Clock xmlns:dt=""urn:schemas-microsoft-com:datatypes""><Description dt:dt=""string"">E-Prime Primary Realtime Clock</Description><StartTime><Timestamp dt:dt=""int"">0</Timestamp><DateUtc dt:dt=""string"">2014-05-09T22:13:32Z</DateUtc></StartTime><FrequencyChanges><FrequencyChange><Frequency dt:dt=""r8"">2793030000</Frequency><Timestamp dt:dt=""r8"">521418444605791</Timestamp><Current dt:dt=""r8"">0</Current><DateUtc dt:dt=""string"">2014-05-09T22:13:32Z</DateUtc></FrequencyChange></FrequencyChanges></Clock>\n",60.03,1,1364947968,0,,-999999,3,70419,t,55087,125506,5/9/2014,15:13:32,,1,Session1,SessionsList,,,,,,,,,,1,1,1,4,,,,,,,,4,1,4,NonCued4,MiniBlocks2,,,,598855,9,1,b,-999999,14,737519,b,478,737997,Green,Congruent,b,White,0,,0,2,730507,,0,0,,,,,,,,,,,,,Pictures\white.bmp,6000,2000,Pictures\black.bmp,,,,,,,,,,9,1,9,StimulusPr,Pictures\GreenRight.bmp,NonCuedStim4,Right
POP_2,16051,1,"<?xml version=""1.0""?>\n<Clock xmlns:dt=""urn:schemas-microsoft-com:datatypes""><Description dt:dt=""string"">E-Prime Primary Realtime Clock</Description><StartTime><Timestamp dt:dt=""int"">0</Timestamp><DateUtc dt:dt=""string"">2014-05-09T22:13:32Z</DateUtc></StartTime><FrequencyChanges><FrequencyChange><Frequency dt:dt=""r8"">2793030000</Frequency><Timestamp dt:dt=""r8"">521418444605791</Timestamp><Current dt:dt=""r8"">0</Current><DateUtc dt:dt=""string"">2014-05-09T22:13:32Z</DateUtc></FrequencyChange></FrequencyChanges></Clock>\n",60.03,1,1364947968,0,,-999999,3,70419,t,55087,125506,5/9/2014,15:13:32,,1,Session1,SessionsList,,,,,,,,,,1,1,1,4,,,,,,,,4,1,4,NonCued4,MiniBlocks2,,,,598855,10,1,b,-999999,11,746532,b,388,746920,Green,Congruent,b,White,0,,0,12,741517,,0,0,,,,,,,,,,,,,Pictures\white.bmp,4000,4000,Pictures\black.bmp,,,,,,,,,,10,1,10,StimulusPr,Pictures\GreenRight.bmp,NonCuedStim4,Right
POP_2,16051,1,"<?xml version=""1.0""?>\n<Clock xmlns:dt=""urn:schemas-microsoft-com:datatypes""><Description dt:dt=""string"">E-Prime Primary Realtime Clock</Description><StartTime><Timestamp dt:dt=""int"">0</Timestamp><DateUtc dt:dt=""string"">2014-05-09T22:13:32Z</DateUtc></StartTime><FrequencyChanges><FrequencyChange><Frequency dt:dt=""r8"">2793030000</Frequency><Timestamp dt:dt=""r8"">521418444605791</Timestamp><Current dt:dt=""r8"">0</Current><DateUtc dt:dt=""string"">2014-05-09T22:13:32Z</DateUtc></FrequencyChange></FrequencyChanges></Clock>\n",60.03,1,1364947968,0,,-999999,3,70419,t,55087,125506,5/9/2014,15:13:32,,2,Session2,SessionsList,0,,-999999,3,770586,t,37204,807790,750946,2,1,2,1,807801,,,,1,1,1,,,,Cued1,MiniBlocks1,,,,,1,1,r,-999999,8,821794,r,301,822095,White,Congruent,r,Green,0,,0,12,816813,,0,0,1,1,1,,,,,,,,,,Pictures\green.bmp,4000,4000,Pictures\left.bmp,,,,,,,,,,,,,StimulusPr,Pictures\black.bmp,CuedStim1,Left
POP_2,16051,1,"<?xml version=""1.0""?>\n<Clock xmlns:dt=""urn:schemas-microsoft-com:datatypes""><Description dt:dt=""string"">E-Prime Primary Realtime Clock</Description><StartTime><Timestamp dt:dt=""int"">0</Timestamp><DateUtc dt:dt=""string"">2014-05-09T22:13:32Z</DateUtc></StartTime><FrequencyChanges><FrequencyChange><Frequency dt:dt=""r8"">2793030000</Frequency><Timestamp dt:dt=""r8"">521418444605791</Timestamp><Current dt:dt=""r8"">0</Current><DateUtc dt:dt=""string"">2014-05-09T22:13:32Z</DateUtc></FrequencyChange></FrequencyChanges></Clock>\n",60.03,1,1364947968,0,,-999999,3,70419,t,55087,125506,5/9/2014,15:13:32,,2,Session2,SessionsList,0,,-999999,3,770586,t,37204,807790,750946,2,1,2,1,807801,,,,1,1,1,,,,Cued1,MiniBlocks1,,,,,2,1,b,-999999,18,834804,b,273,835077,White,Congruent,b,Green,0,,0,6,827808,,0,0,2,1,2,,,,,,,,,,Pictures\green.bmp,6000,2000,Pictures\black.bmp,,,,,,,,,,,,,StimulusPr,Pictures\right.bmp,CuedStim1,Right
POP_2,16051,1,"<?xml version=""1.0""?>\n<Clock xmlns:dt=""urn:schemas-microsoft-com:datatypes""><Description dt:dt=""string"">E-Prime Primary Realtime Clock</Description><StartTime><Timestamp dt:dt=""int"">0</Timestamp><DateUtc dt:dt=""string"">2014-05-09T22:13:32Z</DateUtc></StartTime><FrequencyChanges><FrequencyChange><Frequency dt:dt=""r8"">2793030000</Frequency><Timestamp dt:dt=""r8"">521418444605791</Timestamp><Current dt:dt=""r8"">0</Current><DateUtc dt:dt=""string"">2014-05-09T22:13:32Z</DateUtc></FrequencyChange></FrequencyChanges></Clock>\n",60.03,1,1364947968,0,,-999999,3,70419,t,55087,125506,5/9/2014,15:13:32,,2,Session2,SessionsList,0,,-999999,3,770586,t,37204,807790,750946,2,1,2,1,807801,,,,1,1,1,,,,Cued1,MiniBlocks1,,,,,3,1,b,-999999,15,842817,b,315,843132,White,Congruent,b,Green,0,,0,18,838819,,0,0,3,1,3,,,,,,,,,,Pictures\green.bmp,3000,2000,Pictures\black.bmp,,,,,,,,,,,,,StimulusPr,Pictures\right.bmp,CuedStim1,Right
POP_2,16051,1,"<?xml version=""1.0""?>\n<Clock xmlns:dt=""urn:schemas-microsoft-com:datatypes""><Description dt:dt=""string"">E-Prime Primary Realtime Clock</Description><StartTime><Timestamp dt:dt=""int"">0</Timestamp><DateUtc dt:dt=""string"">2014-05-09T22:13:32Z</DateUtc></StartTime><FrequencyChanges><FrequencyChange><Frequency dt:dt=""r8"">2793030000</Frequency><Timestamp dt:dt=""r8"">521418444605791</Timestamp><Current dt:dt=""r8"">0</Current><DateUtc dt:dt=""string"">2014-05-09T22:13:32Z</DateUtc></FrequencyChange></FrequencyChanges></Clock>\n",60.03,1,1364947968,0,,-999999,3,70419,t,55087,125506,5/9/2014,15:13:32,,2,Session2,SessionsList,0,,-999999,3,770586,t,37204,807790,750946,2,1,2,1,807801,,,,1,1,1,,,,Cued1,MiniBlocks1,,,,,4,1,b,-999999,11,850813,b,331,851144,White,Incongruent,b,Red,0,,0,12,846798,,0,0,4,1,4,,,,,,,,,,Pictures\red.bmp,3000,16000,Pictures\left.bmp,,,,,,,,,,,,,StimulusPr,Pictures\black.bmp,CuedStim1,Left
POP_2,16051,1,"<?xml version=""1.0""?>\n<Clock xmlns:dt=""urn:schemas-microsoft-com:datatypes""><Description dt:dt=""string"">E-Prime Primary Realtime Clock</Description><StartTime><Timestamp dt:dt=""int"">0</Timestamp><DateUtc dt:dt=""string"">2014-05-09T22:13:32Z</DateUtc></StartTime><FrequencyChanges><FrequencyChange><Frequency dt:dt=""r8"">2793030000</Frequency><Timestamp dt:dt=""r8"">521418444605791</Timestamp><Current dt:dt=""r8"">0</Current><DateUtc dt:dt=""string"">2014-05-09T22:13:32Z</DateUtc></FrequencyChange></FrequencyChanges></Clock>\n",60.03,1,1364947968,0,,-999999,3,70419,t,55087,125506,5/9/2014,15:13:32,,2,Session2,SessionsList,0,,-999999,3,770586,t,37204,807790,750946,2,1,2,1,807801,,,,1,1,1,,,,Cued1,MiniBlocks1,,,,,5,1,r,-999999,18,872819,r,293,873112,White,Congruent,r,Green,0,,0,4,868804,,0,0,5,1,5,,,,,,,,,,Pictures\green.bmp,3000,16000,Pictures\left.bmp,,,,,,,,,,,,,StimulusPr,Pictures\black.bmp,CuedStim1,Left
POP_2,16051,1,"<?xml version=""1.0""?>\n<Clock xmlns:dt=""urn:schemas-microsoft-com:datatypes""><Description dt:dt=""string"">E-Prime Primary Realtime Clock</Description><StartTime><Timestamp dt:dt=""int"">0</Timestamp><DateUtc dt:dt=""string"">2014-05-09T22:13:32Z</DateUtc></StartTime><FrequencyChanges><FrequencyChange><Frequency dt:dt=""r8"">2793030000</Frequency><Timestamp dt:dt=""r8"">521418444605791</Timestamp><Current dt:dt=""r8"">0</Current><DateUtc dt:dt=""string"">2014-05-09T22:13:32Z</DateUtc></FrequencyChange></FrequencyChanges></Clock>\n",60.03,1,1364947968,0,,-999999,3,70419,t,55087,125506,5/9/2014,15:13:32,,2,Session2,SessionsList,0,,-999999,3,770586,t,37204,807790,750946,2,1,2,1,807801,,,,1,1,1,,,,Cued1,MiniBlocks1,,,,,6,1,r,-999999,4,900805,r,328,901133,White,Congruent,r,Green,0,,0,2,890793,,0,0,6,1,6,,,,,,,,,,Pictures\green.bmp,9000,10000,Pictures\left.bmp,,,,,,,,,,,,,StimulusPr,Pictures\black.bmp,CuedStim1,Left
POP_2,16051,1,"<?xml version=""1.0""?>\n<Clock xmlns:dt=""urn:schemas-microsoft-com:datatypes""><Description dt:dt=""string"">E-Prime Primary Realtime Clock</Description><StartTime><Timestamp dt:dt=""int"">0</Timestamp><DateUtc dt:dt=""string"">2014-05-09T22:13:32Z</DateUtc></StartTime><FrequencyChanges><FrequencyChange><Frequency dt:dt=""r8"">2793030000</Frequency><Timestamp dt:dt=""r8"">521418444605791</Timestamp><Current dt:dt=""r8"">0</Current><DateUtc dt:dt=""string"">2014-05-09T22:13:32Z</DateUtc></FrequencyChange></FrequencyChanges></Clock>\n",60.03,1,1364947968,0,,-999999,3,70419,t,55087,125506,5/9/2014,15:13:32,,2,Session2,SessionsList,0,,-999999,3,770586,t,37204,807790,750946,2,1,2,1,807801,,,,1,1,1,,,,Cued1,MiniBlocks1,,,,,7,1,b,-999999,11,916813,b,273,917086,White,Congruent,b,Green,0,,0,14,912815,,0,0,7,1,7,,,,,,,,,,Pictures\green.bmp,3000,16000,Pictures\black.bmp,,,,,,,,,,,,,StimulusPr,Pictures\right.bmp,CuedStim1,Right
POP_2,16051,1,"<?xml version=""1.0""?>\n<Clock xmlns:dt=""urn:schemas-microsoft-com:datatypes""><Description dt:dt=""string"">E-Prime Primary Realtime Clock</Description><StartTime><Timestamp dt:dt=""int"">0</Timestamp><DateUtc dt:dt=""string"">2014-05-09T22:13:32Z</DateUtc></StartTime><FrequencyChanges><FrequencyChange><Frequency dt:dt=""r8"">2793030000</Frequency><Timestamp dt:dt=""r8"">521418444605791</Timestamp><Current dt:dt=""r8"">0</Current><DateUtc dt:dt=""string"">2014-05-09T22:13:32Z</DateUtc></FrequencyChange></FrequencyChanges></Clock>\n",60.03,1,1364947968,0,,-999999,3,70419,t,55087,125506,5/9/2014,15:13:32,,2,Session2,SessionsList,0,,-999999,3,770586,t,37204,807790,750946,2,1,2,1,807801,,,,1,1,1,,,,Cued1,MiniBlocks1,,,,,8,1,r,-999999,8,939802,r,375,940177,White,Incongruent,r,Red,0,,0,2,934788,,0,0,8,1,8,,,,,,,,,,Pictures\red.bmp,4000,2000,Pictures\black.bmp,,,,,,,,,,,,,StimulusPr,Pictures\right.bmp,CuedStim1,Right
POP_2,16051,1,"<?xml version=""1.0""?>\n<Clock xmlns:dt=""urn:schemas-microsoft-com:datatypes""><Description dt:dt=""string"">E-Prime Primary Realtime Clock</Description><StartTime><Timestamp dt:dt=""int"">0</Timestamp><DateUtc dt:dt=""string"">2014-05-09T22:13:32Z</DateUtc></StartTime><FrequencyChanges><FrequencyChange><Frequency dt:dt=""r8"">2793030000</Frequency><Timestamp dt:dt=""r8"">521418444605791</Timestamp><Current dt:dt=""r8"">0</Current><DateUtc dt:dt=""string"">2014-05-09T22:13:32Z</DateUtc></FrequencyChange></FrequencyChanges></Clock>\n",60.03,1,1364947968,0,,-999999,3,70419,t,55087,125506,5/9/2014,15:13:32,,2,Session2,SessionsList,0,,-999999,3,770586,t,37204,807790,750946,2,1,2,1,807801,,,,1,1,1,,,,Cued1,MiniBlocks1,,,,,9,1,b,-999999,14,948814,b,308,949122,White,Congruent,b,Green,0,,0,11,943800,,0,0,9,1,9,,,,,,,,,,Pictures\green.bmp,4000,2000,Pictures\black.bmp,,,,,,,,,,,,,StimulusPr,Pictures\right.bmp,CuedStim1,Right
POP_2,16051,1,"<?xml version=""1.0""?>\n<Clock xmlns:dt=""urn:schemas-microsoft-com:datatypes""><Description dt:dt=""string"">E-Prime Primary Realtime Clock</Description><StartTime><Timestamp dt:dt=""int"">0</Timestamp><DateUtc dt:dt=""string"">2014-05-09T22:13:32Z</DateUtc></StartTime><FrequencyChanges><FrequencyChange><Frequency dt:dt=""r8"">2793030000</Frequency><Timestamp dt:dt=""r8"">521418444605791</Timestamp><Current dt:dt=""r8"">0</Current><DateUtc dt:dt=""string"">2014-05-09T22:13:32Z</DateUtc></FrequencyChange></FrequencyChanges></Clock>\n",60.03,1,1364947968,0,,-999999,3,70419,t,55087,125506,5/9/2014,15:13:32,,2,Session2,SessionsList,0,,-999999,3,770586,t,37204,807790,750946,2,1,2,1,807801,,,,1,1,1,,,,Cued1,MiniBlocks1,,,,,10,1,r,-999999,9,956810,r,267,957077,White,Congruent,r,Green,0,,0,9,952795,,0,0,10,1,10,,,,,,,,,,Pictures\green.bmp,3000,2000,Pictures\left.bmp,,,,,,,,,,,,,StimulusPr,Pictures\black.bmp,CuedStim1,Left
POP_2,16051,1,"<?xml version=""1.0""?>\n<Clock xmlns:dt=""urn:schemas-microsoft-com:datatypes""><Description dt:dt=""string"">E-Prime Primary Realtime Clock</Description><StartTime><Timestamp dt:dt=""int"">0</Timestamp><DateUtc dt:dt=""string"">2014-05-09T22:13:32Z</DateUtc></StartTime><FrequencyChanges><FrequencyChange><Frequency dt:dt=""r8"">2793030000</Frequency><Timestamp dt:dt=""r8"">521418444605791</Timestamp><Current dt:dt=""r8"">0</Current><DateUtc dt:dt=""string"">2014-05-09T22:13:32Z</DateUtc></FrequencyChange></FrequencyChanges></Clock>\n",60.03,1,1364947968,0,,-999999,3,70419,t,55087,125506,5/9/2014,15:13:32,,2,Session2,SessionsList,0,,-999999,3,770586,t,37204,807790,750946,2,1,2,2,,,,,2,1,2,,,,NonCued1,MiniBlocks1,959109,,,,1,1,r,-999999,16,973818,r,370,974188,Green,Congruent,r,White,0,,0,13,968804,,0,0,,,,,,,,,,,,,Pictures\white.bmp,4000,2000,Pictures\GreenLeft.bmp,1,1,1,,,,,,,,,,StimulusPr,Pictures\black.bmp,NonCuedStim1,Left
POP_2,16051,1,"<?xml version=""1.0""?>\n<Clock xmlns:dt=""urn:schemas-microsoft-com:datatypes""><Description dt:dt=""string"">E-Prime Primary Realtime Clock</Description><StartTime><Timestamp dt:dt=""int"">0</Timestamp><DateUtc dt:dt=""string"">2014-05-09T22:13:32Z</DateUtc></StartTime><FrequencyChanges><FrequencyChange><Frequency dt:dt=""r8"">2793030000</Frequency><Timestamp dt:dt=""r8"">521418444605791</Timestamp><Current dt:dt=""r8"">0</Current><DateUtc dt:dt=""string"">2014-05-09T22:13:32Z</DateUtc></FrequencyChange></FrequencyChanges></Clock>\n",60.03,1,1364947968,0,,-999999,3,70419,t,55087,125506,5/9/2014,15:13:32,,2,Session2,SessionsList,0,,-999999,3,770586,t,37204,807790,750946,2,1,2,2,,,,,2,1,2,,,,NonCued1,MiniBlocks1,959109,,,,2,0,b,-999999,12,984813,r,374,985187,Green,Congruent,b,White,0,,0,15,977816,,0,0,,,,,,,,,,,,,Pictures\white.bmp,6000,16000,Pictures\black.bmp,2,1,2,,,,,,,,,,StimulusPr,Pictures\GreenRight.bmp,NonCuedStim1,Right
POP_2,16051,1,"<?xml version=""1.0""?>\n<Clock xmlns:dt=""urn:schemas-microsoft-com:datatypes""><Description dt:dt=""string"">E-Prime Primary Realtime Clock</Description><StartTime><Timestamp dt:dt=""int"">0</Timestamp><DateUtc dt:dt=""string"">2014-05-09T22:13:32Z</DateUtc></StartTime><FrequencyChanges><FrequencyChange><Frequency dt:dt=""r8"">2793030000</Frequency><Timestamp dt:dt=""r8"">521418444605791</Timestamp><Current dt:dt=""r8"">0</Current><DateUtc dt:dt=""string"">2014-05-09T22:13:32Z</DateUtc></FrequencyChange></FrequencyChanges></Clock>\n",60.03,1,1364947968,0,,-999999,3,70419,t,55087,125506,5/9/2014,15:13:32,,2,Session2,SessionsList,0,,-999999,3,770586,t,37204,807790,750946,2,1,2,2,,,,,2,1,2,,,,NonCued1,MiniBlocks1,959109,,,,3,1,r,-999999,16,1009817,r,428,1010245,Red,Incongruent,r,White,0,,0,2,1002804,,0,0,,,,,,,,,,,,,Pictures\white.bmp,6000,10000,Pictures\black.bmp,3,1,3,,,,,,,,,,StimulusPr,Pictures\RedRight.bmp,NonCuedStim1,Right
POP_2,16051,1,"<?xml version=""1.0""?>\n<Clock xmlns:dt=""urn:schemas-microsoft-com:datatypes""><Description dt:dt=""string"">E-Prime Primary Realtime Clock</Description><StartTime><Timestamp dt:dt=""int"">0</Timestamp><DateUtc dt:dt=""string"">2014-05-09T22:13:32Z</DateUtc></StartTime><FrequencyChanges><FrequencyChange><Frequency dt:dt=""r8"">2793030000</Frequency><Timestamp dt:dt=""r8"">521418444605791</Timestamp><Current dt:dt=""r8"">0</Current><DateUtc dt:dt=""string"">2014-05-09T22:13:32Z</DateUtc></FrequencyChange></FrequencyChanges></Clock>\n",60.03,1,1364947968,0,,-999999,3,70419,t,55087,125506,5/9/2014,15:13:32,,2,Session2,SessionsList,0,,-999999,3,770586,t,37204,807790,750946,2,1,2,2,,,,,2,1,2,,,,NonCued1,MiniBlocks1,959109,,,,4,1,r,-999999,3,1031789,r,359,1032148,Green,Congruent,r,White,0,,0,15,1021811,,0,0,,,,,,,,,,,,,Pictures\white.bmp,9000,10000,Pictures\GreenLeft.bmp,4,1,4,,,,,,,,,,StimulusPr,Pictures\black.bmp,NonCuedStim1,Left
POP_2,16051,1,"<?xml version=""1.0""?>\n<Clock xmlns:dt=""urn:schemas-microsoft-com:datatypes""><Description dt:dt=""string"">E-Prime Primary Realtime Clock</Description><StartTime><Timestamp dt:dt=""int"">0</Timestamp><DateUtc dt:dt=""string"">2014-05-09T22:13:32Z</DateUtc></StartTime><FrequencyChanges><FrequencyChange><Frequency dt:dt=""r8"">2793030000</Frequency><Timestamp dt:dt=""r8"">521418444605791</Timestamp><Current dt:dt=""r8"">0</Current><DateUtc dt:dt=""string"">2014-05-09T22:13:32Z</DateUtc></FrequencyChange></FrequencyChanges></Clock>\n",60.03,1,1364947968,0,,-999999,3,70419,t,55087,125506,5/9/2014,15:13:32,,2,Session2,SessionsList,0,,-999999,3,770586,t,37204,807790,750946,2,1,2,2,,,,,2,1,2,,,,NonCued1,MiniBlocks1,959109,,,,5,1,b,-999999,12,1047814,b,455,1048269,Green,Congruent,b,White,0,,0,15,1043816,,0,0,,,,,,,,,,,,,Pictures\white.bmp,3000,2000,Pictures\black.bmp,5,1,5,,,,,,,,,,StimulusPr,Pictures\GreenRight.bmp,NonCuedStim1,Right
POP_2,16051,1,"<?xml version=""1.0""?>\n<Clock xmlns:dt=""urn:schemas-microsoft-com:datatypes""><Description dt:dt=""string"">E-Prime Primary Realtime Clock</Description><StartTime><Timestamp dt:dt=""int"">0</Timestamp><DateUtc dt:dt=""string"">2014-05-09T22:13:32Z</DateUtc></StartTime><FrequencyChanges><FrequencyChange><Frequency dt:dt=""r8"">2793030000</Frequency><Timestamp dt:dt=""r8"">521418444605791</Timestamp><Current dt:dt=""r8"">0</Current><DateUtc dt:dt=""string"">2014-05-09T22:13:32Z</DateUtc></FrequencyChange></FrequencyChanges></Clock>\n",60.03,1,1364947968,0,,-999999,3,70419,t,55087,125506,5/9/2014,15:13:32,,2,Session2,SessionsList,0,,-999999,3,770586,t,37204,807790,750946,2,1,2,2,,,,,2,1,2,,,,NonCued1,MiniBlocks1,959109,,,,6,1,b,-999999,7,1056793,b,477,1057270,Red,Incongruent,b,White,0,,0,10,1051796,,0,0,,,,,,,,,,,,,Pictures\white.bmp,4000,16000,Pictures\RedLeft.bmp,6,1,6,,,,,,,,,,StimulusPr,Pictures\black.bmp,NonCuedStim1,Left
POP_2,16051,1,"<?xml version=""1.0""?>\n<Clock xmlns:dt=""urn:schemas-microsoft-com:datatypes""><Description dt:dt=""string"">E-Prime Primary Realtime Clock</Description><StartTime><Timestamp dt:dt=""int"">0</Timestamp><DateUtc dt:dt=""string"">2014-05-09T22:13:32Z</DateUtc></StartTime><FrequencyChanges><FrequencyChange><Frequency dt:dt=""r8"">2793030000</Frequency><Timestamp dt:dt=""r8"">521418444605791</Timestamp><Current dt:dt=""r8"">0</Current><DateUtc dt:dt=""string"">2014-05-09T22:13:32Z</DateUtc></FrequencyChange></FrequencyChanges></Clock>\n",60.03,1,1364947968,0,,-999999,3,70419,t,55087,125506,5/9/2014,15:13:32,,2,Session2,SessionsList,0,,-999999,3,770586,t,37204,807790,750946,2,1,2,2,,,,,2,1,2,,,,NonCued1,MiniBlocks1,959109,,,,7,1,b,-999999,15,1078816,b,350,1079166,Green,Congruent,b,White,0,,0,17,1074818,,0,0,,,,,,,,,,,,,Pictures\white.bmp,3000,4000,Pictures\black.bmp,7,1,7,,,,,,,,,,StimulusPr,Pictures\GreenRight.bmp,NonCuedStim1,Right
POP_2,16051,1,"<?xml version=""1.0""?>\n<Clock xmlns:dt=""urn:schemas-microsoft-com:datatypes""><Description dt:dt=""string"">E-Prime Primary Realtime Clock</Description><StartTime><Timestamp dt:dt=""int"">0</Timestamp><DateUtc dt:dt=""string"">2014-05-09T22:13:32Z</DateUtc></StartTime><FrequencyChanges><FrequencyChange><Frequency dt:dt=""r8"">2793030000</Frequency><Timestamp dt:dt=""r8"">521418444605791</Timestamp><Current dt:dt=""r8"">0</Current><DateUtc dt:dt=""string"">2014-05-09T22:13:32Z</DateUtc></FrequencyChange></FrequencyChanges></Clock>\n",60.03,1,1364947968,0,,-999999,3,70419,t,55087,125506,5/9/2014,15:13:32,,2,Session2,SessionsList,0,,-999999,3,770586,t,37204,807790,750946,2,1,2,2,,,,,2,1,2,,,,NonCued1,MiniBlocks1,959109,,,,8,1,b,-999999,10,1088811,b,294,1089105,Green,Congruent,b,White,0,,0,12,1084813,,0,0,,,,,,,,,,,,,Pictures\white.bmp,3000,4000,Pictures\black.bmp,8,1,8,,,,,,,,,,StimulusPr,Pictures\GreenRight.bmp,NonCuedStim1,Right
POP_2,16051,1,"<?xml version=""1.0""?>\n<Clock xmlns:dt=""urn:schemas-microsoft-com:datatypes""><Description dt:dt=""string"">E-Prime Primary Realtime Clock</Description><StartTime><Timestamp dt:dt=""int"">0</Timestamp><DateUtc dt:dt=""string"">2014-05-09T22:13:32Z</DateUtc></StartTime><FrequencyChanges><FrequencyChange><Frequency dt:dt=""r8"">2793030000</Frequency><Timestamp dt:dt=""r8"">521418444605791</Timestamp><Current dt:dt=""r8"">0</Current><DateUtc dt:dt=""string"">2014-05-09T22:13:32Z</DateUtc></FrequencyChange></FrequencyChanges></Clock>\n",60.03,1,1364947968,0,,-999999,3,70419,t,55087,125506,5/9/2014,15:13:32,,2,Session2,SessionsList,0,,-999999,3,770586,t,37204,807790,750946,2,1,2,2,,,,,2,1,2,,,,NonCued1,MiniBlocks1,959109,,,,9,1,b,-999999,18,1104819,b,383,1105202,Red,Incongruent,b,White,0,,0,4,1094791,,0,0,,,,,,,,,,,,,Pictures\white.bmp,9000,2000,Pictures\RedLeft.bmp,9,1,9,,,,,,,,,,StimulusPr,Pictures\black.bmp,NonCuedStim1,Left
POP_2,16051,1,"<?xml version=""1.0""?>\n<Clock xmlns:dt=""urn:schemas-microsoft-com:datatypes""><Description dt:dt=""string"">E-Prime Primary Realtime Clock</Description><StartTime><Timestamp dt:dt=""int"">0</Timestamp><DateUtc dt:dt=""string"">2014-05-09T22:13:32Z</DateUtc></StartTime><FrequencyChanges><FrequencyChange><Frequency dt:dt=""r8"">2793030000</Frequency><Timestamp dt:dt=""r8"">521418444605791</Timestamp><Current dt:dt=""r8"">0</Current><DateUtc dt:dt=""string"">2014-05-09T22:13:32Z</DateUtc></FrequencyChange></FrequencyChanges></Clock>\n",60.03,1,1364947968,0,,-999999,3,70419,t,55087,125506,5/9/2014,15:13:32,,2,Session2,SessionsList,0,,-999999,3,770586,t,37204,807790,750946,2,1,2,2,,,,,2,1,2,,,,NonCued1,MiniBlocks1,959109,,,,10,0,r,-999999,13,1115814,b,498,1116312,Green,Congruent,r,White,0,,0,17,1108801,,0,0,,,,,,,,,,,,,Pictures\white.bmp,6000,2000,Pictures\GreenLeft.bmp,10,1,10,,,,,,,,,,StimulusPr,Pictures\black.bmp,NonCuedStim1,Left
POP_2,16051,1,"<?xml version=""1.0""?>\n<Clock xmlns:dt=""urn:schemas-microsoft-com:datatypes""><Description dt:dt=""string"">E-Prime Primary Realtime Clock</Description><StartTime><Timestamp dt:dt=""int"">0</Timestamp><DateUtc dt:dt=""string"">2014-05-09T22:13:32Z</DateUtc></StartTime><FrequencyChanges><FrequencyChange><Frequency dt:dt=""r8"">2793030000</Frequency><Timestamp dt:dt=""r8"">521418444605791</Timestamp><Current dt:dt=""r8"">0</Current><DateUtc dt:dt=""string"">2014-05-09T22:13:32Z</DateUtc></FrequencyChange></FrequencyChanges></Clock>\n",60.03,1,1364947968,0,,-999999,3,70419,t,55087,125506,5/9/2014,15:13:32,,2,Session2,SessionsList,0,,-999999,3,770586,t,37204,807790,750946,2,1,2,3,,,,,3,1,3,,,,NonCued2,MiniBlocks1,,1118329,,,1,1,b,-999999,18,1138819,b,425,1139244,Green,Congruent,b,White,0,,0,6,1128807,,0,0,,,,,,,,,,,,,Pictures\white.bmp,9000,10000,Pictures\black.bmp,,,,1,1,1,,,,,,,StimulusPr,Pictures\GreenRight.bmp,NonCuedStim2,Right
POP_2,16051,1,"<?xml version=""1.0""?>\n<Clock xmlns:dt=""urn:schemas-microsoft-com:datatypes""><Description dt:dt=""string"">E-Prime Primary Realtime Clock</Description><StartTime><Timestamp dt:dt=""int"">0</Timestamp><DateUtc dt:dt=""string"">2014-05-09T22:13:32Z</DateUtc></StartTime><FrequencyChanges><FrequencyChange><Frequency dt:dt=""r8"">2793030000</Frequency><Timestamp dt:dt=""r8"">521418444605791</Timestamp><Current dt:dt=""r8"">0</Current><DateUtc dt:dt=""string"">2014-05-09T22:13:32Z</DateUtc></FrequencyChange></FrequencyChanges></Clock>\n",60.03,1,1364947968,0,,-999999,3,70419,t,55087,125506,5/9/2014,15:13:32,,2,Session2,SessionsList,0,,-999999,3,770586,t,37204,807790,750946,2,1,2,3,,,,,3,1,3,,,,NonCued2,MiniBlocks1,,1118329,,,2,1,r,-999999,10,1154811,r,378,1155189,Green,Congruent,r,White,0,,0,11,1150813,,0,0,,,,,,,,,,,,,Pictures\white.bmp,3000,2000,Pictures\GreenLeft.bmp,,,,2,1,2,,,,,,,StimulusPr,Pictures\black.bmp,NonCuedStim2,Left
POP_2,16051,1,"<?xml version=""1.0""?>\n<Clock xmlns:dt=""urn:schemas-microsoft-com:datatypes""><Description dt:dt=""string"">E-Prime Primary Realtime Clock</Description><StartTime><Timestamp dt:dt=""int"">0</Timestamp><DateUtc dt:dt=""string"">2014-05-09T22:13:32Z</DateUtc></StartTime><FrequencyChanges><FrequencyChange><Frequency dt:dt=""r8"">2793030000</Frequency><Timestamp dt:dt=""r8"">521418444605791</Timestamp><Current dt:dt=""r8"">0</Current><DateUtc dt:dt=""string"">2014-05-09T22:13:32Z</DateUtc></FrequencyChange></FrequencyChanges></Clock>\n",60.03,1,1364947968,0,,-999999,3,70419,t,55087,125506,5/9/2014,15:13:32,,2,Session2,SessionsList,0,,-999999,3,770586,t,37204,807790,750946,2,1,2,3,,,,,3,1,3,,,,NonCued2,MiniBlocks1,,1118329,,,3,1,r,-999999,14,1162807,r,506,1163313,Red,Incongruent,r,White,0,,0,8,1158809,,0,0,,,,,,,,,,,,,Pictures\white.bmp,3000,2000,Pictures\black.bmp,,,,3,1,3,,,,,,,StimulusPr,Pictures\RedRight.bmp,NonCuedStim2,Right
POP_2,16051,1,"<?xml version=""1.0""?>\n<Clock xmlns:dt=""urn:schemas-microsoft-com:datatypes""><Description dt:dt=""string"">E-Prime Primary Realtime Clock</Description><StartTime><Timestamp dt:dt=""int"">0</Timestamp><DateUtc dt:dt=""string"">2014-05-09T22:13:32Z</DateUtc></StartTime><FrequencyChanges><FrequencyChange><Frequency dt:dt=""r8"">2793030000</Frequency><Timestamp dt:dt=""r8"">521418444605791</Timestamp><Current dt:dt=""r8"">0</Current><DateUtc dt:dt=""string"">2014-05-09T22:13:32Z</DateUtc></FrequencyChange></FrequencyChanges></Clock>\n",60.03,1,1364947968,0,,-999999,3,70419,t,55087,125506,5/9/2014,15:13:32,,2,Session2,SessionsList,0,,-999999,3,770586,t,37204,807790,750946,2,1,2,3,,,,,3,1,3,,,,NonCued2,MiniBlocks1,,1118329,,,4,1,r,-999999,17,1171803,r,491,1172294,Green,Congruent,r,White,0,,0,4,1166805,,0,0,,,,,,,,,,,,,Pictures\white.bmp,4000,16000,Pictures\GreenLeft.bmp,,,,4,1,4,,,,,,,StimulusPr,Pictures\black.bmp,NonCuedStim2,Left
POP_2,16051,1,"<?xml version=""1.0""?>\n<Clock xmlns:dt=""urn:schemas-microsoft-com:datatypes""><Description dt:dt=""string"">E-Prime Primary Realtime Clock</Description><StartTime><Timestamp dt:dt=""int"">0</Timestamp><DateUtc dt:dt=""string"">2014-05-09T22:13:32Z</DateUtc></StartTime><FrequencyChanges><FrequencyChange><Frequency dt:dt=""r8"">2793030000</Frequency><Timestamp dt:dt=""r8"">521418444605791</Timestamp><Current dt:dt=""r8"">0</Current><DateUtc dt:dt=""string"">2014-05-09T22:13:32Z</DateUtc></FrequencyChange></FrequencyChanges></Clock>\n",60.03,1,1364947968,0,,-999999,3,70419,t,55087,125506,5/9/2014,15:13:32,,2,Session2,SessionsList,0,,-999999,3,770586,t,37204,807790,750946,2,1,2,3,,,,,3,1,3,,,,NonCued2,MiniBlocks1,,1118329,,,5,1,r,-999999,5,1196807,r,396,1197203,Green,Congruent,r,White,0,,0,9,1189810,,0,0,,,,,,,,,,,,,Pictures\white.bmp,6000,4000,Pictures\GreenLeft.bmp,,,,5,1,5,,,,,,,StimulusPr,Pictures\black.bmp,NonCuedStim2,Left
POP_2,16051,1,"<?xml version=""1.0""?>\n<Clock xmlns:dt=""urn:schemas-microsoft-com:datatypes""><Description dt:dt=""string"">E-Prime Primary Realtime Clock</Description><StartTime><Timestamp dt:dt=""int"">0</Timestamp><DateUtc dt:dt=""string"">2014-05-09T22:13:32Z</DateUtc></StartTime><FrequencyChanges><FrequencyChange><Frequency dt:dt=""r8"">2793030000</Frequency><Timestamp dt:dt=""r8"">521418444605791</Timestamp><Current dt:dt=""r8"">0</Current><DateUtc dt:dt=""string"">2014-05-09T22:13:32Z</DateUtc></FrequencyChange></FrequencyChanges></Clock>\n",60.03,1,1364947968,0,,-999999,3,70419,t,55087,125506,5/9/2014,15:13:32,,2,Session2,SessionsList,0,,-999999,3,770586,t,37204,807790,750946,2,1,2,3,,,,,3,1,3,,,,NonCued2,MiniBlocks1,,1118329,,,6,1,b,-999999,17,1206802,b,501,1207303,Red,Incongruent,b,White,0,,0,3,1202804,,0,0,,,,,,,,,,,,,Pictures\white.bmp,3000,4000,Pictures\RedLeft.bmp,,,,6,1,6,,,,,,,StimulusPr,Pictures\black.bmp,NonCuedStim2,Left
POP_2,16051,1,"<?xml version=""1.0""?>\n<Clock xmlns:dt=""urn:schemas-microsoft-com:datatypes""><Description dt:dt=""string"">E-Prime Primary Realtime Clock</Description><StartTime><Timestamp dt:dt=""int"">0</Timestamp><DateUtc dt:dt=""string"">2014-05-09T22:13:32Z</DateUtc></StartTime><FrequencyChanges><FrequencyChange><Frequency dt:dt=""r8"">2793030000</Frequency><Timestamp dt:dt=""r8"">521418444605791</Timestamp><Current dt:dt=""r8"">0</Current><DateUtc dt:dt=""string"">2014-05-09T22:13:32Z</DateUtc></FrequencyChange></FrequencyChanges></Clock>\n",60.03,1,1364947968,0,,-999999,3,70419,t,55087,125506,5/9/2014,15:13:32,,2,Session2,SessionsList,0,,-999999,3,770586,t,37204,807790,750946,2,1,2,3,,,,,3,1,3,,,,NonCued2,MiniBlocks1,,1118329,,,7,1,b,-999999,12,1217813,b,530,1218343,Green,Congruent,b,White,0,,0,14,1212815,,0,0,,,,,,,,,,,,,Pictures\white.bmp,4000,16000,Pictures\black.bmp,,,,7,1,7,,,,,,,StimulusPr,Pictures\GreenRight.bmp,NonCuedStim2,Right
POP_2,16051,1,"<?xml version=""1.0""?>\n<Clock xmlns:dt=""urn:schemas-microsoft-com:datatypes""><Description dt:dt=""string"">E-Prime Primary Realtime Clock</Description><StartTime><Timestamp dt:dt=""int"">0</Timestamp><DateUtc dt:dt=""string"">2014-05-09T22:13:32Z</DateUtc></StartTime><FrequencyChanges><FrequencyChange><Frequency dt:dt=""r8"">2793030000</Frequency><Timestamp dt:dt=""r8"">521418444605791</Timestamp><Current dt:dt=""r8"">0</Current><DateUtc dt:dt=""string"">2014-05-09T22:13:32Z</DateUtc></FrequencyChange></FrequencyChanges></Clock>\n",60.03,1,1364947968,0,,-999999,3,70419,t,55087,125506,5/9/2014,15:13:32,,2,Session2,SessionsList,0,,-999999,3,770586,t,37204,807790,750946,2,1,2,3,,,,,3,1,3,,,,NonCued2,MiniBlocks1,,1118329,,,8,1,r,-999999,15,1245816,r,488,1246304,Green,Congruent,r,White,0,,0,2,1235788,,0,0,,,,,,,,,,,,,Pictures\white.bmp,9000,2000,Pictures\GreenLeft.bmp,,,,8,1,8,,,,,,,StimulusPr,Pictures\black.bmp,NonCuedStim2,Left
POP_2,16051,1,"<?xml version=""1.0""?>\n<Clock xmlns:dt=""urn:schemas-microsoft-com:datatypes""><Description dt:dt=""string"">E-Prime Primary Realtime Clock</Description><StartTime><Timestamp dt:dt=""int"">0</Timestamp><DateUtc dt:dt=""string"">2014-05-09T22:13:32Z</DateUtc></StartTime><FrequencyChanges><FrequencyChange><Frequency dt:dt=""r8"">2793030000</Frequency><Timestamp dt:dt=""r8"">521418444605791</Timestamp><Current dt:dt=""r8"">0</Current><DateUtc dt:dt=""string"">2014-05-09T22:13:32Z</DateUtc></FrequencyChange></FrequencyChanges></Clock>\n",60.03,1,1364947968,0,,-999999,3,70419,t,55087,125506,5/9/2014,15:13:32,,2,Session2,SessionsList,0,,-999999,3,770586,t,37204,807790,750946,2,1,2,3,,,,,3,1,3,,,,NonCued2,MiniBlocks1,,1118329,,,9,1,b,-999999,10,1253795,b,484,1254279,Green,Congruent,b,White,0,,0,13,1249814,,0,0,,,,,,,,,,,,,Pictures\white.bmp,3000,10000,Pictures\black.bmp,,,,9,1,9,,,,,,,StimulusPr,Pictures\GreenRight.bmp,NonCuedStim2,Right
POP_2,16051,1,"<?xml version=""1.0""?>\n<Clock xmlns:dt=""urn:schemas-microsoft-com:datatypes""><Description dt:dt=""string"">E-Prime Primary Realtime Clock</Description><StartTime><Timestamp dt:dt=""int"">0</Timestamp><DateUtc dt:dt=""string"">2014-05-09T22:13:32Z</DateUtc></StartTime><FrequencyChanges><FrequencyChange><Frequency dt:dt=""r8"">2793030000</Frequency><Timestamp dt:dt=""r8"">521418444605791</Timestamp><Current dt:dt=""r8"">0</Current><DateUtc dt:dt=""string"">2014-05-09T22:13:32Z</DateUtc></FrequencyChange></FrequencyChanges></Clock>\n",60.03,1,1364947968,0,,-999999,3,70419,t,55087,125506,5/9/2014,15:13:32,,2,Session2,SessionsList,0,,-999999,3,770586,t,37204,807790,750946,2,1,2,3,,,,,3,1,3,,,,NonCued2,MiniBlocks1,,1118329,,,10,1,b,-999999,3,1269804,b,644,1270448,Green,Congruent,b,White,0,,0,4,1265789,,0,0,,,,,,,,,,,,,Pictures\white.bmp,3000,2000,Pictures\black.bmp,,,,10,1,10,,,,,,,StimulusPr,Pictures\GreenRight.bmp,NonCuedStim2,Right
POP_2,16051,1,"<?xml version=""1.0""?>\n<Clock xmlns:dt=""urn:schemas-microsoft-com:datatypes""><Description dt:dt=""string"">E-Prime Primary Realtime Clock</Description><StartTime><Timestamp dt:dt=""int"">0</Timestamp><DateUtc dt:dt=""string"">2014-05-09T22:13:32Z</DateUtc></StartTime><FrequencyChanges><FrequencyChange><Frequency dt:dt=""r8"">2793030000</Frequency><Timestamp dt:dt=""r8"">521418444605791</Timestamp><Current dt:dt=""r8"">0</Current><DateUtc dt:dt=""string"">2014-05-09T22:13:32Z</DateUtc></FrequencyChange></FrequencyChanges></Clock>\n",60.03,1,1364947968,0,,-999999,3,70419,t,55087,125506,5/9/2014,15:13:32,,2,Session2,SessionsList,0,,-999999,3,770586,t,37204,807790,750946,2,1,2,4,,1272469,,,4,1,4,,,,Cued2,MiniBlocks1,,,,,1,1,b,-999999,9,1289810,b,283,1290093,White,Congruent,b,Green,0,,0,5,1282797,,0,0,,,,1,1,1,,,,,,,Pictures\green.bmp,6000,4000,Pictures\black.bmp,,,,,,,,,,,,,StimulusPr,Pictures\right.bmp,CuedStim2,Right
POP_2,16051,1,"<?xml version=""1.0""?>\n<Clock xmlns:dt=""urn:schemas-microsoft-com:datatypes""><Description dt:dt=""string"">E-Prime Primary Realtime Clock</Description><StartTime><Timestamp dt:dt=""int"">0</Timestamp><DateUtc dt:dt=""string"">2014-05-09T22:13:32Z</DateUtc></StartTime><FrequencyChanges><FrequencyChange><Frequency dt:dt=""r8"">2793030000</Frequency><Timestamp dt:dt=""r8"">521418444605791</Timestamp><Current dt:dt=""r8"">0</Current><DateUtc dt:dt=""string"">2014-05-09T22:13:32Z</DateUtc></FrequencyChange></FrequencyChanges></Clock>\n",60.03,1,1364947968,0,,-999999,3,70419,t,55087,125506,5/9/2014,15:13:32,,2,Session2,SessionsList,0,,-999999,3,770586,t,37204,807790,750946,2,1,2,4,,1272469,,,4,1,4,,,,Cued2,MiniBlocks1,,,,,2,1,b,-999999,4,1305802,b,331,1306133,White,Congruent,b,Green,0,,0,7,1295807,,0,0,,,,2,1,2,,,,,,,Pictures\green.bmp,9000,10000,Pictures\black.bmp,,,,,,,,,,,,,StimulusPr,Pictures\right.bmp,CuedStim2,Right
POP_2,16051,1,"<?xml version=""1.0""?>\n<Clock xmlns:dt=""urn:schemas-microsoft-com:datatypes""><Description dt:dt=""string"">E-Prime Primary Realtime Clock</Description><StartTime><Timestamp dt:dt=""int"">0</Timestamp><DateUtc dt:dt=""string"">2014-05-09T22:13:32Z</DateUtc></StartTime><FrequencyChanges><FrequencyChange><Frequency dt:dt=""r8"">2793030000</Frequency><Timestamp dt:dt=""r8"">521418444605791</Timestamp><Current dt:dt=""r8"">0</Current><DateUtc dt:dt=""string"">2014-05-09T22:13:32Z</DateUtc></FrequencyChange></FrequencyChanges></Clock>\n",60.03,1,1364947968,0,,-999999,3,70419,t,55087,125506,5/9/2014,15:13:32,,2,Session2,SessionsList,0,,-999999,3,770586,t,37204,807790,750946,2,1,2,4,,1272469,,,4,1,4,,,,Cued2,MiniBlocks1,,,,,3,1,r,-999999,9,1321794,r,446,1322240,White,Incongruent,r,Red,0,,0,16,1317813,,0,0,,,,3,1,3,,,,,,,Pictures\red.bmp,3000,2000,Pictures\black.bmp,,,,,,,,,,,,,StimulusPr,Pictures\right.bmp,CuedStim2,Right
POP_2,16051,1,"<?xml version=""1.0""?>\n<Clock xmlns:dt=""urn:schemas-microsoft-com:datatypes""><Description dt:dt=""string"">E-Prime Primary Realtime Clock</Description><StartTime><Timestamp dt:dt=""int"">0</Timestamp><DateUtc dt:dt=""string"">2014-05-09T22:13:32Z</DateUtc></StartTime><FrequencyChanges><FrequencyChange><Frequency dt:dt=""r8"">2793030000</Frequency><Timestamp dt:dt=""r8"">521418444605791</Timestamp><Current dt:dt=""r8"">0</Current><DateUtc dt:dt=""string"">2014-05-09T22:13:32Z</DateUtc></FrequencyChange></FrequencyChanges></Clock>\n",60.03,1,1364947968,0,,-999999,3,70419,t,55087,125506,5/9/2014,15:13:32,,2,Session2,SessionsList,0,,-999999,3,770586,t,37204,807790,750946,2,1,2,4,,1272469,,,4,1,4,,,,Cued2,MiniBlocks1,,,,,4,1,r,-999999,9,1332805,r,357,1333162,White,Congruent,r,Green,0,,0,8,1325809,,0,0,,,,4,1,4,,,,,,,Pictures\green.bmp,6000,16000,Pictures\left.bmp,,,,,,,,,,,,,StimulusPr,Pictures\black.bmp,CuedStim2,Left
POP_2,16051,1,"<?xml version=""1.0""?>\n<Clock xmlns:dt=""urn:schemas-microsoft-com:datatypes""><Description dt:dt=""string"">E-Prime Primary Realtime Clock</Description><StartTime><Timestamp dt:dt=""int"">0</Timestamp><DateUtc dt:dt=""string"">2014-05-09T22:13:32Z</DateUtc></StartTime><FrequencyChanges><FrequencyChange><Frequency dt:dt=""r8"">2793030000</Frequency><Timestamp dt:dt=""r8"">521418444605791</Timestamp><Current dt:dt=""r8"">0</Current><DateUtc dt:dt=""string"">2014-05-09T22:13:32Z</DateUtc></FrequencyChange></FrequencyChanges></Clock>\n",60.03,1,1364947968,0,,-999999,3,70419,t,55087,125506,5/9/2014,15:13:32,,2,Session2,SessionsList,0,,-999999,3,770586,t,37204,807790,750946,2,1,2,4,,1272469,,,4,1,4,,,,Cued2,MiniBlocks1,,,,,5,1,b,-999999,10,1354811,b,331,1355142,White,Congruent,b,Green,0,,0,3,1350796,,0,0,,,,5,1,5,,,,,,,Pictures\green.bmp,3000,2000,Pictures\black.bmp,,,,,,,,,,,,,StimulusPr,Pictures\right.bmp,CuedStim2,Right
POP_2,16051,1,"<?xml version=""1.0""?>\n<Clock xmlns:dt=""urn:schemas-microsoft-com:datatypes""><Description dt:dt=""string"">E-Prime Primary Realtime Clock</Description><StartTime><Timestamp dt:dt=""int"">0</Timestamp><DateUtc dt:dt=""string"">2014-05-09T22:13:32Z</DateUtc></StartTime><FrequencyChanges><FrequencyChange><Frequency dt:dt=""r8"">2793030000</Frequency><Timestamp dt:dt=""r8"">521418444605791</Timestamp><Current dt:dt=""r8"">0</Current><DateUtc dt:dt=""string"">2014-05-09T22:13:32Z</DateUtc></FrequencyChange></FrequencyChanges></Clock>\n",60.03,1,1364947968,0,,-999999,3,70419,t,55087,125506,5/9/2014,15:13:32,,2,Session2,SessionsList,0,,-999999,3,770586,t,37204,807790,750946,2,1,2,4,,1272469,,,4,1,4,,,,Cued2,MiniBlocks1,,,,,6,1,r,-999999,11,1362807,r,276,1363083,White,Congruent,r,Green,0,,0,8,1358809,,0,0,,,,6,1,6,,,,,,,Pictures\green.bmp,3000,2000,Pictures\left.bmp,,,,,,,,,,,,,StimulusPr,Pictures\black.bmp,CuedStim2,Left
POP_2,16051,1,"<?xml version=""1.0""?>\n<Clock xmlns:dt=""urn:schemas-microsoft-com:datatypes""><Description dt:dt=""string"">E-Prime Primary Realtime Clock</Description><StartTime><Timestamp dt:dt=""int"">0</Timestamp><DateUtc dt:dt=""string"">2014-05-09T22:13:32Z</DateUtc></StartTime><FrequencyChanges><FrequencyChange><Frequency dt:dt=""r8"">2793030000</Frequency><Timestamp dt:dt=""r8"">521418444605791</Timestamp><Current dt:dt=""r8"">0</Current><DateUtc dt:dt=""string"">2014-05-09T22:13:32Z</DateUtc></FrequencyChange></FrequencyChanges></Clock>\n",60.03,1,1364947968,0,,-999999,3,70419,t,55087,125506,5/9/2014,15:13:32,,2,Session2,SessionsList,0,,-999999,3,770586,t,37204,807790,750946,2,1,2,4,,1272469,,,4,1,4,,,,Cued2,MiniBlocks1,,,,,7,1,b,-999999,5,1373802,b,420,1374222,White,Incongruent,b,Red,0,,0,4,1366805,,0,0,,,,7,1,7,,,,,,,Pictures\red.bmp,6000,4000,Pictures\left.bmp,,,,,,,,,,,,,StimulusPr,Pictures\black.bmp,CuedStim2,Left
POP_2,16051,1,"<?xml version=""1.0""?>\n<Clock xmlns:dt=""urn:schemas-microsoft-com:datatypes""><Description dt:dt=""string"">E-Prime Primary Realtime Clock</Description><StartTime><Timestamp dt:dt=""int"">0</Timestamp><DateUtc dt:dt=""string"">2014-05-09T22:13:32Z</DateUtc></StartTime><FrequencyChanges><FrequencyChange><Frequency dt:dt=""r8"">2793030000</Frequency><Timestamp dt:dt=""r8"">521418444605791</Timestamp><Current dt:dt=""r8"">0</Current><DateUtc dt:dt=""string"">2014-05-09T22:13:32Z</DateUtc></FrequencyChange></FrequencyChanges></Clock>\n",60.03,1,1364947968,0,,-999999,3,70419,t,55087,125506,5/9/2014,15:13:32,,2,Session2,SessionsList,0,,-999999,3,770586,t,37204,807790,750946,2,1,2,4,,1272469,,,4,1,4,,,,Cued2,MiniBlocks1,,,,,8,1,b,-999999,12,1384813,b,286,1385099,White,Congruent,b,Green,0,,0,14,1379799,,0,0,,,,8,1,8,,,,,,,Pictures\green.bmp,4000,4000,Pictures\black.bmp,,,,,,,,,,,,,StimulusPr,Pictures\right.bmp,CuedStim2,Right
POP_2,16051,1,"<?xml version=""1.0""?>\n<Clock xmlns:dt=""urn:schemas-microsoft-com:datatypes""><Description dt:dt=""string"">E-Prime Primary Realtime Clock</Description><StartTime><Timestamp dt:dt=""int"">0</Timestamp><DateUtc dt:dt=""string"">2014-05-09T22:13:32Z</DateUtc></StartTime><FrequencyChanges><FrequencyChange><Frequency dt:dt=""r8"">2793030000</Frequency><Timestamp dt:dt=""r8"">521418444605791</Timestamp><Current dt:dt=""r8"">0</Current><DateUtc dt:dt=""string"">2014-05-09T22:13:32Z</DateUtc></FrequencyChange></FrequencyChanges></Clock>\n",60.03,1,1364947968,0,,-999999,3,70419,t,55087,125506,5/9/2014,15:13:32,,2,Session2,SessionsList,0,,-999999,3,770586,t,37204,807790,750946,2,1,2,4,,1272469,,,4,1,4,,,,Cued2,MiniBlocks1,,,,,9,1,b,-999999,4,1400805,b,325,1401130,White,Incongruent,b,Red,0,,0,9,1390810,,0,0,,,,9,1,9,,,,,,,Pictures\red.bmp,9000,10000,Pictures\left.bmp,,,,,,,,,,,,,StimulusPr,Pictures\black.bmp,CuedStim2,Left
POP_2,16051,1,"<?xml version=""1.0""?>\n<Clock xmlns:dt=""urn:schemas-microsoft-com:datatypes""><Description dt:dt=""string"">E-Prime Primary Realtime Clock</Description><StartTime><Timestamp dt:dt=""int"">0</Timestamp><DateUtc dt:dt=""string"">2014-05-09T22:13:32Z</DateUtc></StartTime><FrequencyChanges><FrequencyChange><Frequency dt:dt=""r8"">2793030000</Frequency><Timestamp dt:dt=""r8"">521418444605791</Timestamp><Current dt:dt=""r8"">0</Current><DateUtc dt:dt=""string"">2014-05-09T22:13:32Z</DateUtc></FrequencyChange></FrequencyChanges></Clock>\n",60.03,1,1364947968,0,,-999999,3,70419,t,55087,125506,5/9/2014,15:13:32,,2,Session2,SessionsList,0,,-999999,3,770586,t,37204,807790,750946,2,1,2,4,,1272469,,,4,1,4,,,,Cued2,MiniBlocks1,,,,,10,1,r,-999999,10,1422811,r,351,1423162,White,Congruent,r,Green,0,,0,9,1412799,,0,0,,,,10,1,10,,,,,,,Pictures\green.bmp,9000,10000,Pictures\left.bmp,,,,,,,,,,,,,StimulusPr,Pictures\black.bmp,CuedStim2,Left
