ExperimentName,Subject,Session,Clock.Information,Display.RefreshRate,Group,RandomSeed,Session1Onset.ACC,Session1Onset.CRESP,Session1Onset.DurationError,Session1Onset.OnsetDelay,Session1Onset.OnsetTime,Session1Onset.RESP,Session1Onset.RT,Session1Onset.RTTime,SessionDate,SessionTime,SessionTimeUtc,Block,Procedure[Block],Running[Block],Session2Onset.ACC,Session2Onset.CRESP,Session2Onset.DurationError,Session2Onset.OnsetDelay,Session2Onset.OnsetTime,Session2Onset.RESP,Session2Onset.RT,Session2Onset.RTTime,SessionBreak.OnsetTime,SessionsList,SessionsList.Cycle,SessionsList.Sample,Trial,CuedPrompt1.OnsetTime,CuedPrompt2.OnsetTime,CuedPrompt3.OnsetTime,CuedPrompt4.OnsetTime,MiniBlocks1,MiniBlocks1.Cycle,MiniBlocks1.Sample,MiniBlocks2,MiniBlocks2.Cycle,MiniBlocks2.Sample,Procedure[Trial],Running[Trial],UncuedPrompt1.OnsetTime,UncuedPrompt2.OnsetTime,UncuedPrompt3.OnsetTime,UncuedPrompt4.OnsetTime,SubTrial,Arrow1.ACC,Arrow1.CRESP,Arrow1.DurationError,Arrow1.OnsetDelay,Arrow1.OnsetTime,Arrow1.RESP,Arrow1.RT,Arrow1.RTTime,ArrowColor,Congruence,CorrectResp,Cue,Cue.ACC,Cue.CRESP,Cue.DurationError,Cue.OnsetDelay,Cue.OnsetTime,Cue.RESP,Cue.RT,Cue.RTTime,CuedStim1,CuedStim1.Cycle,CuedStim1.Sample,CuedStim2,CuedStim2.Cycle,CuedStim2.Sample,CuedStim3,CuedStim3.Cycle,CuedStim3.Sample,CuedStim4,CuedStim4.Cycle,CuedStim4.Sample,CueImage,JitterCue,JitterTrial,LeftImage,NonCuedStim1,NonCuedStim1.Cycle,NonCuedStim1.Sample,NonCuedStim2,NonCuedStim2.Cycle,NonCuedStim2.Sample,NonCuedStim3,NonCuedStim3.Cycle,NonCuedStim3.Sample,NonCuedStim4,NonCuedStim4.Cycle,NonCuedStim4.Sample,Procedure[SubTrial],RightImage,Running[SubTrial],Stimulus
POP_2,16065,1,"<?xml version=""1.0""?>\n<Clock xmlns:dt=""urn:schemas-microsoft-com:datatypes""><Description dt:dt=""string"">E-Prime Primary Realtime Clock</Description><StartTime><Timestamp dt:dt=""int"">0</Timestamp><DateUtc dt:dt=""string"">2014-05-15T20:36:03Z</DateUtc></StartTime><FrequencyChanges><FrequencyChange><Frequency dt:dt=""r8"">2793030000</Frequency><Timestamp dt:dt=""r8"">1.95314828942843E+15</Timestamp><Current dt:dt=""r8"">0</Current><DateUtc dt:dt=""string"">2014-05-15T20:36:03Z</DateUtc></FrequencyChange></FrequencyChanges></Clock>\n",60.03,1,-422057317,0,,-999999,4,87036,t,58037,145073,5/15/2014,13:36:03,8:36:03 PM,1,Session1,SessionsList,,,,,,,,,,1,1,1,1,,,,,,,,1,1,1,NonCued3,MiniBlocks2,,,145090,,1,1,b,-999999,7,165064,b,594,165658,Green,Congruent,b,White,0,,0,13,155069,,0,0,,,,,,,,,,,,,Pictures\white.bmp,9000,10000,Pictures\black.bmp,,,,,,,1,1,1,,,,StimulusPr,Pictures\GreenRight.bmp,NonCuedStim3,Right
POP_2,16065,1,"<?xml version=""1.0""?>\n<Clock xmlns:dt=""urn:schemas-microsoft-com:datatypes""><Description dt:dt=""string"">E-Prime Primary Realtime Clock</Description><StartTime><Timestamp dt:dt=""int"">0</Timestamp><DateUtc dt:dt=""string"">2014-05-15T20:36:03Z</DateUtc></StartTime><FrequencyChanges><FrequencyChange><Frequency dt:dt=""r8"">2793030000</Frequency><Timestamp dt:dt=""r8"">1.95314828942843E+15</Timestamp><Current dt:dt=""r8"">0</Current><DateUtc dt:dt=""string"">2014-05-15T20:36:03Z</DateUtc></FrequencyChange></FrequencyChanges></Clock>\n",60.03,1,-422057317,0,,-999999,4,87036,t,58037,145073,5/15/2014,13:36:03,8:36:03 PM,1,Session1,SessionsList,,,,,,,,,,1,1,1,1,,,,,,,,1,1,1,NonCued3,MiniBlocks2,,,145090,,2,1,r,-999999,14,187086,r,775,187861,Red,Incongruent,r,White,0,,0,2,177074,,0,0,,,,,,,,,,,,,Pictures\white.bmp,9000,10000,Pictures\black.bmp,,,,,,,2,1,2,,,,StimulusPr,Pictures\RedRight.bmp,NonCuedStim3,Right
POP_2,16065,1,"<?xml version=""1.0""?>\n<Clock xmlns:dt=""urn:schemas-microsoft-com:datatypes""><Description dt:dt=""string"">E-Prime Primary Realtime Clock</Description><StartTime><Timestamp dt:dt=""int"">0</Timestamp><DateUtc dt:dt=""string"">2014-05-15T20:36:03Z</DateUtc></StartTime><FrequencyChanges><FrequencyChange><Frequency dt:dt=""r8"">2793030000</Frequency><Timestamp dt:dt=""r8"">1.95314828942843E+15</Timestamp><Current dt:dt=""r8"">0</Current><DateUtc dt:dt=""string"">2014-05-15T20:36:03Z</DateUtc></FrequencyChange></FrequencyChanges></Clock>\n",60.03,1,-422057317,0,,-999999,4,87036,t,58037,145073,5/15/2014,13:36:03,8:36:03 PM,1,Session1,SessionsList,,,,,,,,,,1,1,1,1,,,,,,,,1,1,1,NonCued3,MiniBlocks2,,,145090,,3,1,r,-999999,4,204061,r,473,204534,Green,Congruent,r,White,0,,0,15,199080,,0,0,,,,,,,,,,,,,Pictures\white.bmp,4000,4000,Pictures\GreenLeft.bmp,,,,,,,3,1,3,,,,StimulusPr,Pictures\black.bmp,NonCuedStim3,Left
POP_2,16065,1,"<?xml version=""1.0""?>\n<Clock xmlns:dt=""urn:schemas-microsoft-com:datatypes""><Description dt:dt=""string"">E-Prime Primary Realtime Clock</Description><StartTime><Timestamp dt:dt=""int"">0</Timestamp><DateUtc dt:dt=""string"">2014-05-15T20:36:03Z</DateUtc></StartTime><FrequencyChanges><FrequencyChange><Frequency dt:dt=""r8"">2793030000</Frequency><Timestamp dt:dt=""r8"">1.95314828942843E+15</Timestamp><Current dt:dt=""r8"">0</Current><DateUtc dt:dt=""string"">2014-05-15T20:36:03Z</DateUtc></FrequencyChange></FrequencyChanges></Clock>\n",60.03,1,-422057317,0,,-999999,4,87036,t,58037,145073,5/15/2014,13:36:03,8:36:03 PM,1,Session1,SessionsList,,,,,,,,,,1,1,1,1,,,,,,,,1,1,1,NonCued3,MiniBlocks2,,,145090,,4,1,b,-999999,16,217088,b,586,217674,Red,Incongruent,b,White,0,,0,9,210075,,0,0,,,,,,,,,,,,,Pictures\white.bmp,6000,4000,Pictures\RedLeft.bmp,,,,,,,4,1,4,,,,StimulusPr,Pictures\black.bmp,NonCuedStim3,Left
POP_2,16065,1,"<?xml version=""1.0""?>\n<Clock xmlns:dt=""urn:schemas-microsoft-com:datatypes""><Description dt:dt=""string"">E-Prime Primary Realtime Clock</Description><StartTime><Timestamp dt:dt=""int"">0</Timestamp><DateUtc dt:dt=""string"">2014-05-15T20:36:03Z</DateUtc></StartTime><FrequencyChanges><FrequencyChange><Frequency dt:dt=""r8"">2793030000</Frequency><Timestamp dt:dt=""r8"">1.95314828942843E+15</Timestamp><Current dt:dt=""r8"">0</Current><DateUtc dt:dt=""string"">2014-05-15T20:36:03Z</DateUtc></FrequencyChange></FrequencyChanges></Clock>\n",60.03,1,-422057317,0,,-999999,4,87036,t,58037,145073,5/15/2014,13:36:03,8:36:03 PM,1,Session1,SessionsList,,,,,,,,,,1,1,1,1,,,,,,,,1,1,1,NonCued3,MiniBlocks2,,,145090,,5,1,b,-999999,11,227083,b,657,227740,Green,Congruent,b,White,0,,0,13,223085,,0,0,,,,,,,,,,,,,Pictures\white.bmp,3000,2000,Pictures\black.bmp,,,,,,,5,1,5,,,,StimulusPr,Pictures\GreenRight.bmp,NonCuedStim3,Right
POP_2,16065,1,"<?xml version=""1.0""?>\n<Clock xmlns:dt=""urn:schemas-microsoft-com:datatypes""><Description dt:dt=""string"">E-Prime Primary Realtime Clock</Description><StartTime><Timestamp dt:dt=""int"">0</Timestamp><DateUtc dt:dt=""string"">2014-05-15T20:36:03Z</DateUtc></StartTime><FrequencyChanges><FrequencyChange><Frequency dt:dt=""r8"">2793030000</Frequency><Timestamp dt:dt=""r8"">1.95314828942843E+15</Timestamp><Current dt:dt=""r8"">0</Current><DateUtc dt:dt=""string"">2014-05-15T20:36:03Z</DateUtc></FrequencyChange></FrequencyChanges></Clock>\n",60.03,1,-422057317,0,,-999999,4,87036,t,58037,145073,5/15/2014,13:36:03,8:36:03 PM,1,Session1,SessionsList,,,,,,,,,,1,1,1,1,,,,,,,,1,1,1,NonCued3,MiniBlocks2,,,145090,,6,1,r,-999999,12,235079,r,745,235824,Green,Congruent,r,White,0,,0,15,231081,,0,0,,,,,,,,,,,,,Pictures\white.bmp,3000,2000,Pictures\GreenLeft.bmp,,,,,,,6,1,6,,,,StimulusPr,Pictures\black.bmp,NonCuedStim3,Left
POP_2,16065,1,"<?xml version=""1.0""?>\n<Clock xmlns:dt=""urn:schemas-microsoft-com:datatypes""><Description dt:dt=""string"">E-Prime Primary Realtime Clock</Description><StartTime><Timestamp dt:dt=""int"">0</Timestamp><DateUtc dt:dt=""string"">2014-05-15T20:36:03Z</DateUtc></StartTime><FrequencyChanges><FrequencyChange><Frequency dt:dt=""r8"">2793030000</Frequency><Timestamp dt:dt=""r8"">1.95314828942843E+15</Timestamp><Current dt:dt=""r8"">0</Current><DateUtc dt:dt=""string"">2014-05-15T20:36:03Z</DateUtc></FrequencyChange></FrequencyChanges></Clock>\n",60.03,1,-422057317,0,,-999999,4,87036,t,58037,145073,5/15/2014,13:36:03,8:36:03 PM,1,Session1,SessionsList,,,,,,,,,,1,1,1,1,,,,,,,,1,1,1,NonCued3,MiniBlocks2,,,145090,,7,1,b,-999999,17,246090,b,503,246593,Green,Congruent,b,White,0,,0,5,239077,,0,0,,,,,,,,,,,,,Pictures\white.bmp,6000,16000,Pictures\black.bmp,,,,,,,7,1,7,,,,StimulusPr,Pictures\GreenRight.bmp,NonCuedStim3,Right
POP_2,16065,1,"<?xml version=""1.0""?>\n<Clock xmlns:dt=""urn:schemas-microsoft-com:datatypes""><Description dt:dt=""string"">E-Prime Primary Realtime Clock</Description><StartTime><Timestamp dt:dt=""int"">0</Timestamp><DateUtc dt:dt=""string"">2014-05-15T20:36:03Z</DateUtc></StartTime><FrequencyChanges><FrequencyChange><Frequency dt:dt=""r8"">2793030000</Frequency><Timestamp dt:dt=""r8"">1.95314828942843E+15</Timestamp><Current dt:dt=""r8"">0</Current><DateUtc dt:dt=""string"">2014-05-15T20:36:03Z</DateUtc></FrequencyChange></FrequencyChanges></Clock>\n",60.03,1,-422057317,0,,-999999,4,87036,t,58037,145073,5/15/2014,13:36:03,8:36:03 PM,1,Session1,SessionsList,,,,,,,,,,1,1,1,1,,,,,,,,1,1,1,NonCued3,MiniBlocks2,,,145090,,8,1,r,-999999,7,268079,r,753,268832,Red,Incongruent,r,White,0,,0,9,264081,,0,0,,,,,,,,,,,,,Pictures\white.bmp,3000,2000,Pictures\black.bmp,,,,,,,8,1,8,,,,StimulusPr,Pictures\RedRight.bmp,NonCuedStim3,Right
POP_2,16065,1,"<?xml version=""1.0""?>\n<Clock xmlns:dt=""urn:schemas-microsoft-com:datatypes""><Description dt:dt=""string"">E-Prime Primary Realtime Clock</Description><StartTime><Timestamp dt:dt=""int"">0</Timestamp><DateUtc dt:dt=""string"">2014-05-15T20:36:03Z</DateUtc></StartTime><FrequencyChanges><FrequencyChange><Frequency dt:dt=""r8"">2793030000</Frequency><Timestamp dt:dt=""r8"">1.95314828942843E+15</Timestamp><Current dt:dt=""r8"">0</Current><DateUtc dt:dt=""string"">2014-05-15T20:36:03Z</DateUtc></FrequencyChange></FrequencyChanges></Clock>\n",60.03,1,-422057317,0,,-999999,4,87036,t,58037,145073,5/15/2014,13:36:03,8:36:03 PM,1,Session1,SessionsList,,,,,,,,,,1,1,1,1,,,,,,,,1,1,1,NonCued3,MiniBlocks2,,,145090,,9,1,r,-999999,10,282072,r,460,282532,Green,Congruent,r,White,0,,0,5,272077,,0,0,,,,,,,,,,,,,Pictures\white.bmp,9000,10000,Pictures\GreenLeft.bmp,,,,,,,9,1,9,,,,StimulusPr,Pictures\black.bmp,NonCuedStim3,Left
POP_2,16065,1,"<?xml version=""1.0""?>\n<Clock xmlns:dt=""urn:schemas-microsoft-com:datatypes""><Description dt:dt=""string"">E-Prime Primary Realtime Clock</Description><StartTime><Timestamp dt:dt=""int"">0</Timestamp><DateUtc dt:dt=""string"">2014-05-15T20:36:03Z</DateUtc></StartTime><FrequencyChanges><FrequencyChange><Frequency dt:dt=""r8"">2793030000</Frequency><Timestamp dt:dt=""r8"">1.95314828942843E+15</Timestamp><Current dt:dt=""r8"">0</Current><DateUtc dt:dt=""string"">2014-05-15T20:36:03Z</DateUtc></FrequencyChange></FrequencyChanges></Clock>\n",60.03,1,-422057317,0,,-999999,4,87036,t,58037,145073,5/15/2014,13:36:03,8:36:03 PM,1,Session1,SessionsList,,,,,,,,,,1,1,1,1,,,,,,,,1,1,1,NonCued3,MiniBlocks2,,,145090,,10,1,r,-999999,7,301079,r,544,301623,Green,Congruent,r,White,0,,0,11,294083,,0,0,,,,,,,,,,,,,Pictures\white.bmp,6000,4000,Pictures\GreenLeft.bmp,,,,,,,10,1,10,,,,StimulusPr,Pictures\black.bmp,NonCuedStim3,Left
POP_2,16065,1,"<?xml version=""1.0""?>\n<Clock xmlns:dt=""urn:schemas-microsoft-com:datatypes""><Description dt:dt=""string"">E-Prime Primary Realtime Clock</Description><StartTime><Timestamp dt:dt=""int"">0</Timestamp><DateUtc dt:dt=""string"">2014-05-15T20:36:03Z</DateUtc></StartTime><FrequencyChanges><FrequencyChange><Frequency dt:dt=""r8"">2793030000</Frequency><Timestamp dt:dt=""r8"">1.95314828942843E+15</Timestamp><Current dt:dt=""r8"">0</Current><DateUtc dt:dt=""string"">2014-05-15T20:36:03Z</DateUtc></FrequencyChange></FrequencyChanges></Clock>\n",60.03,1,-422057317,0,,-999999,4,87036,t,58037,145073,5/15/2014,13:36:03,8:36:03 PM,1,Session1,SessionsList,,,,,,,,,,1,1,1,2,,,305643,,,,,2,1,2,Cued3,MiniBlocks2,,,,,1,1,b,-999999,14,320086,b,381,320467,White,Congruent,b,Green,0,,0,16,316072,,0,0,,,,,,,1,1,1,,,,Pictures\green.bmp,3000,2000,Pictures\black.bmp,,,,,,,,,,,,,StimulusPr,Pictures\right.bmp,CuedStim3,Right
POP_2,16065,1,"<?xml version=""1.0""?>\n<Clock xmlns:dt=""urn:schemas-microsoft-com:datatypes""><Description dt:dt=""string"">E-Prime Primary Realtime Clock</Description><StartTime><Timestamp dt:dt=""int"">0</Timestamp><DateUtc dt:dt=""string"">2014-05-15T20:36:03Z</DateUtc></StartTime><FrequencyChanges><FrequencyChange><Frequency dt:dt=""r8"">2793030000</Frequency><Timestamp dt:dt=""r8"">1.95314828942843E+15</Timestamp><Current dt:dt=""r8"">0</Current><DateUtc dt:dt=""string"">2014-05-15T20:36:03Z</DateUtc></FrequencyChange></FrequencyChanges></Clock>\n",60.03,1,-422057317,0,,-999999,4,87036,t,58037,145073,5/15/2014,13:36:03,8:36:03 PM,1,Session1,SessionsList,,,,,,,,,,1,1,1,2,,,305643,,,,,2,1,2,Cued3,MiniBlocks2,,,,,2,1,b,-999999,10,328082,b,331,328413,White,Congruent,b,Green,0,,0,9,324068,,0,0,,,,,,,2,1,2,,,,Pictures\green.bmp,3000,10000,Pictures\black.bmp,,,,,,,,,,,,,StimulusPr,Pictures\right.bmp,CuedStim3,Right
POP_2,16065,1,"<?xml version=""1.0""?>\n<Clock xmlns:dt=""urn:schemas-microsoft-com:datatypes""><Description dt:dt=""string"">E-Prime Primary Realtime Clock</Description><StartTime><Timestamp dt:dt=""int"">0</Timestamp><DateUtc dt:dt=""string"">2014-05-15T20:36:03Z</DateUtc></StartTime><FrequencyChanges><FrequencyChange><Frequency dt:dt=""r8"">2793030000</Frequency><Timestamp dt:dt=""r8"">1.95314828942843E+15</Timestamp><Current dt:dt=""r8"">0</Current><DateUtc dt:dt=""string"">2014-05-15T20:36:03Z</DateUtc></FrequencyChange></FrequencyChanges></Clock>\n",60.03,1,-422057317,0,,-999999,4,87036,t,58037,145073,5/15/2014,13:36:03,8:36:03 PM,1,Session1,SessionsList,,,,,,,,,,1,1,1,2,,,305643,,,,,2,1,2,Cued3,MiniBlocks2,,,,,3,1,r,-999999,15,350071,r,469,350540,White,Congruent,r,Green,0,,0,7,340060,,0,0,,,,,,,3,1,3,,,,Pictures\green.bmp,9000,2000,Pictures\left.bmp,,,,,,,,,,,,,StimulusPr,Pictures\black.bmp,CuedStim3,Left
POP_2,16065,1,"<?xml version=""1.0""?>\n<Clock xmlns:dt=""urn:schemas-microsoft-com:datatypes""><Description dt:dt=""string"">E-Prime Primary Realtime Clock</Description><StartTime><Timestamp dt:dt=""int"">0</Timestamp><DateUtc dt:dt=""string"">2014-05-15T20:36:03Z</DateUtc></StartTime><FrequencyChanges><FrequencyChange><Frequency dt:dt=""r8"">2793030000</Frequency><Timestamp dt:dt=""r8"">1.95314828942843E+15</Timestamp><Current dt:dt=""r8"">0</Current><DateUtc dt:dt=""string"">2014-05-15T20:36:03Z</DateUtc></FrequencyChange></FrequencyChanges></Clock>\n",60.03,1,-422057317,0,,-999999,4,87036,t,58037,145073,5/15/2014,13:36:03,8:36:03 PM,1,Session1,SessionsList,,,,,,,,,,1,1,1,2,,,305643,,,,,2,1,2,Cued3,MiniBlocks2,,,,,4,1,r,-999999,5,359067,r,396,359463,White,Congruent,r,Green,0,,0,6,354069,,0,0,,,,,,,4,1,4,,,,Pictures\green.bmp,4000,16000,Pictures\left.bmp,,,,,,,,,,,,,StimulusPr,Pictures\black.bmp,CuedStim3,Left
POP_2,16065,1,"<?xml version=""1.0""?>\n<Clock xmlns:dt=""urn:schemas-microsoft-com:datatypes""><Description dt:dt=""string"">E-Prime Primary Realtime Clock</Description><StartTime><Timestamp dt:dt=""int"">0</Timestamp><DateUtc dt:dt=""string"">2014-05-15T20:36:03Z</DateUtc></StartTime><FrequencyChanges><FrequencyChange><Frequency dt:dt=""r8"">2793030000</Frequency><Timestamp dt:dt=""r8"">1.95314828942843E+15</Timestamp><Current dt:dt=""r8"">0</Current><DateUtc dt:dt=""string"">2014-05-15T20:36:03Z</DateUtc></FrequencyChange></FrequencyChanges></Clock>\n",60.03,1,-422057317,0,,-999999,4,87036,t,58037,145073,5/15/2014,13:36:03,8:36:03 PM,1,Session1,SessionsList,,,,,,,,,,1,1,1,2,,,305643,,,,,2,1,2,Cued3,MiniBlocks2,,,,,5,1,r,-999999,17,381073,r,828,381901,White,Incongruent,r,Red,0,,0,17,377075,,0,0,,,,,,,5,1,5,,,,Pictures\red.bmp,3000,4000,Pictures\black.bmp,,,,,,,,,,,,,StimulusPr,Pictures\right.bmp,CuedStim3,Right
POP_2,16065,1,"<?xml version=""1.0""?>\n<Clock xmlns:dt=""urn:schemas-microsoft-com:datatypes""><Description dt:dt=""string"">E-Prime Primary Realtime Clock</Description><StartTime><Timestamp dt:dt=""int"">0</Timestamp><DateUtc dt:dt=""string"">2014-05-15T20:36:03Z</DateUtc></StartTime><FrequencyChanges><FrequencyChange><Frequency dt:dt=""r8"">2793030000</Frequency><Timestamp dt:dt=""r8"">1.95314828942843E+15</Timestamp><Current dt:dt=""r8"">0</Current><DateUtc dt:dt=""string"">2014-05-15T20:36:03Z</DateUtc></FrequencyChange></FrequencyChanges></Clock>\n",60.03,1,-422057317,0,,-999999,4,87036,t,58037,145073,5/15/2014,13:36:03,8:36:03 PM,1,Session1,SessionsList,,,,,,,,,,1,1,1,2,,,305643,,,,,2,1,2,Cued3,MiniBlocks2,,,,,6,1,b,-999999,6,394066,b,304,394370,White,Congruent,b,Green,0,,0,14,387086,,0,0,,,,,,,6,1,6,,,,Pictures\green.bmp,6000,4000,Pictures\black.bmp,,,,,,,,,,,,,StimulusPr,Pictures\right.bmp,CuedStim3,Right
POP_2,16065,1,"<?xml version=""1.0""?>\n<Clock xmlns:dt=""urn:schemas-microsoft-com:datatypes""><Description dt:dt=""string"">E-Prime Primary Realtime Clock</Description><StartTime><Timestamp dt:dt=""int"">0</Timestamp><DateUtc dt:dt=""string"">2014-05-15T20:36:03Z</DateUtc></StartTime><FrequencyChanges><FrequencyChange><Frequency dt:dt=""r8"">2793030000</Frequency><Timestamp dt:dt=""r8"">1.95314828942843E+15</Timestamp><Current dt:dt=""r8"">0</Current><DateUtc dt:dt=""string"">2014-05-15T20:36:03Z</DateUtc></FrequencyChange></FrequencyChanges></Clock>\n",60.03,1,-422057317,0,,-999999,4,87036,t,58037,145073,5/15/2014,13:36:03,8:36:03 PM,1,Session1,SessionsList,,,,,,,,,,1,1,1,2,,,305643,,,,,2,1,2,Cued3,MiniBlocks2,,,,,7,1,r,-999999,6,405077,r,387,405464,White,Congruent,r,Green,0,,0,8,400063,,0,0,,,,,,,7,1,7,,,,Pictures\green.bmp,4000,16000,Pictures\left.bmp,,,,,,,,,,,,,StimulusPr,Pictures\black.bmp,CuedStim3,Left
POP_2,16065,1,"<?xml version=""1.0""?>\n<Clock xmlns:dt=""urn:schemas-microsoft-com:datatypes""><Description dt:dt=""string"">E-Prime Primary Realtime Clock</Description><StartTime><Timestamp dt:dt=""int"">0</Timestamp><DateUtc dt:dt=""string"">2014-05-15T20:36:03Z</DateUtc></StartTime><FrequencyChanges><FrequencyChange><Frequency dt:dt=""r8"">2793030000</Frequency><Timestamp dt:dt=""r8"">1.95314828942843E+15</Timestamp><Current dt:dt=""r8"">0</Current><DateUtc dt:dt=""string"">2014-05-15T20:36:03Z</DateUtc></FrequencyChange></FrequencyChanges></Clock>\n",60.03,1,-422057317,0,,-999999,4,87036,t,58037,145073,5/15/2014,13:36:03,8:36:03 PM,1,Session1,SessionsList,,,,,,,,,,1,1,1,2,,,305643,,,,,2,1,2,Cued3,MiniBlocks2,,,,,8,0,b,-999999,11,427083,r,465,427548,White,Incongruent,b,Red,0,,0,2,423069,,0,0,,,,,,,8,1,8,,,,Pictures\red.bmp,3000,2000,Pictures\left.bmp,,,,,,,,,,,,,StimulusPr,Pictures\black.bmp,CuedStim3,Left
POP_2,16065,1,"<?xml version=""1.0""?>\n<Clock xmlns:dt=""urn:schemas-microsoft-com:datatypes""><Description dt:dt=""string"">E-Prime Primary Realtime Clock</Description><StartTime><Timestamp dt:dt=""int"">0</Timestamp><DateUtc dt:dt=""string"">2014-05-15T20:36:03Z</DateUtc></StartTime><FrequencyChanges><FrequencyChange><Frequency dt:dt=""r8"">2793030000</Frequency><Timestamp dt:dt=""r8"">1.95314828942843E+15</Timestamp><Current dt:dt=""r8"">0</Current><DateUtc dt:dt=""string"">2014-05-15T20:36:03Z</DateUtc></FrequencyChange></FrequencyChanges></Clock>\n",60.03,1,-422057317,0,,-999999,4,87036,t,58037,145073,5/15/2014,13:36:03,8:36:03 PM,1,Session1,SessionsList,,,,,,,,,,1,1,1,2,,,305643,,,,,2,1,2,Cued3,MiniBlocks2,,,,,9,1,r,-999999,7,435079,r,419,435498,White,Congruent,r,Green,0,,0,9,431081,,0,0,,,,,,,9,1,9,,,,Pictures\green.bmp,3000,2000,Pictures\left.bmp,,,,,,,,,,,,,StimulusPr,Pictures\black.bmp,CuedStim3,Left
POP_2,16065,1,"<?xml version=""1.0""?>\n<Clock xmlns:dt=""urn:schemas-microsoft-com:datatypes""><Description dt:dt=""string"">E-Prime Primary Realtime Clock</Description><StartTime><Timestamp dt:dt=""int"">0</Timestamp><DateUtc dt:dt=""string"">2014-05-15T20:36:03Z</DateUtc></StartTime><FrequencyChanges><FrequencyChange><Frequency dt:dt=""r8"">2793030000</Frequency><Timestamp dt:dt=""r8"">1.95314828942843E+15</Timestamp><Current dt:dt=""r8"">0</Current><DateUtc dt:dt=""string"">2014-05-15T20:36:03Z</DateUtc></FrequencyChange></FrequencyChanges></Clock>\n",60.03,1,-422057317,0,,-999999,4,87036,t,58037,145073,5/15/2014,13:36:03,8:36:03 PM,1,Session1,SessionsList,,,,,,,,,,1,1,1,2,,,305643,,,,,2,1,2,Cued3,MiniBlocks2,,,,,10,1,b,-999999,19,449089,b,309,449398,White,Congruent,b,Green,0,,0,5,439077,,0,0,,,,,,,10,1,10,,,,Pictures\green.bmp,9000,10000,Pictures\black.bmp,,,,,,,,,,,,,StimulusPr,Pictures\right.bmp,CuedStim3,Right
POP_2,16065,1,"<?xml version=""1.0""?>\n<Clock xmlns:dt=""urn:schemas-microsoft-com:datatypes""><Description dt:dt=""string"">E-Prime Primary Realtime Clock</Description><StartTime><Timestamp dt:dt=""int"">0</Timestamp><DateUtc dt:dt=""string"">2014-05-15T20:36:03Z</DateUtc></StartTime><FrequencyChanges><FrequencyChange><Frequency dt:dt=""r8"">2793030000</Frequency><Timestamp dt:dt=""r8"">1.95314828942843E+15</Timestamp><Current dt:dt=""r8"">0</Current><DateUtc dt:dt=""string"">2014-05-15T20:36:03Z</DateUtc></FrequencyChange></FrequencyChanges></Clock>\n",60.03,1,-422057317,0,,-999999,4,87036,t,58037,145073,5/15/2014,13:36:03,8:36:03 PM,1,Session1,SessionsList,,,,,,,,,,1,1,1,3,,,,459417,,,,3,1,3,Cued4,MiniBlocks2,,,,,1,1,b,-999999,3,476075,b,506,476581,White,Congruent,b,Green,0,,0,7,469079,,0,0,,,,,,,,,,1,1,1,Pictures\green.bmp,6000,2000,Pictures\black.bmp,,,,,,,,,,,,,StimulusPr,Pictures\right.bmp,CuedStim4,Right
POP_2,16065,1,"<?xml version=""1.0""?>\n<Clock xmlns:dt=""urn:schemas-microsoft-com:datatypes""><Description dt:dt=""string"">E-Prime Primary Realtime Clock</Description><StartTime><Timestamp dt:dt=""int"">0</Timestamp><DateUtc dt:dt=""string"">2014-05-15T20:36:03Z</DateUtc></StartTime><FrequencyChanges><FrequencyChange><Frequency dt:dt=""r8"">2793030000</Frequency><Timestamp dt:dt=""r8"">1.95314828942843E+15</Timestamp><Current dt:dt=""r8"">0</Current><DateUtc dt:dt=""string"">2014-05-15T20:36:03Z</DateUtc></FrequencyChange></FrequencyChanges></Clock>\n",60.03,1,-422057317,0,,-999999,4,87036,t,58037,145073,5/15/2014,13:36:03,8:36:03 PM,1,Session1,SessionsList,,,,,,,,,,1,1,1,3,,,,459417,,,,3,1,3,Cued4,MiniBlocks2,,,,,2,1,r,-999999,6,490068,r,633,490701,White,Incongruent,r,Red,0,,0,18,480090,,0,0,,,,,,,,,,2,1,2,Pictures\red.bmp,9000,2000,Pictures\black.bmp,,,,,,,,,,,,,StimulusPr,Pictures\right.bmp,CuedStim4,Right
POP_2,16065,1,"<?xml version=""1.0""?>\n<Clock xmlns:dt=""urn:schemas-microsoft-com:datatypes""><Description dt:dt=""string"">E-Prime Primary Realtime Clock</Description><StartTime><Timestamp dt:dt=""int"">0</Timestamp><DateUtc dt:dt=""string"">2014-05-15T20:36:03Z</DateUtc></StartTime><FrequencyChanges><FrequencyChange><Frequency dt:dt=""r8"">2793030000</Frequency><Timestamp dt:dt=""r8"">1.95314828942843E+15</Timestamp><Current dt:dt=""r8"">0</Current><DateUtc dt:dt=""string"">2014-05-15T20:36:03Z</DateUtc></FrequencyChange></FrequencyChanges></Clock>\n",60.03,1,-422057317,0,,-999999,4,87036,t,58037,145073,5/15/2014,13:36:03,8:36:03 PM,1,Session1,SessionsList,,,,,,,,,,1,1,1,3,,,,459417,,,,3,1,3,Cued4,MiniBlocks2,,,,,3,1,b,-999999,9,498081,b,564,498645,White,Congruent,b,Green,0,,0,13,494066,,0,0,,,,,,,,,,3,1,3,Pictures\green.bmp,3000,4000,Pictures\black.bmp,,,,,,,,,,,,,StimulusPr,Pictures\right.bmp,CuedStim4,Right
POP_2,16065,1,"<?xml version=""1.0""?>\n<Clock xmlns:dt=""urn:schemas-microsoft-com:datatypes""><Description dt:dt=""string"">E-Prime Primary Realtime Clock</Description><StartTime><Timestamp dt:dt=""int"">0</Timestamp><DateUtc dt:dt=""string"">2014-05-15T20:36:03Z</DateUtc></StartTime><FrequencyChanges><FrequencyChange><Frequency dt:dt=""r8"">2793030000</Frequency><Timestamp dt:dt=""r8"">1.95314828942843E+15</Timestamp><Current dt:dt=""r8"">0</Current><DateUtc dt:dt=""string"">2014-05-15T20:36:03Z</DateUtc></FrequencyChange></FrequencyChanges></Clock>\n",60.03,1,-422057317,0,,-999999,4,87036,t,58037,145073,5/15/2014,13:36:03,8:36:03 PM,1,Session1,SessionsList,,,,,,,,,,1,1,1,3,,,,459417,,,,3,1,3,Cued4,MiniBlocks2,,,,,4,1,r,-999999,4,508076,r,475,508551,White,Congruent,r,Green,0,,0,15,504078,,0,0,,,,,,,,,,4,1,4,Pictures\green.bmp,3000,4000,Pictures\left.bmp,,,,,,,,,,,,,StimulusPr,Pictures\black.bmp,CuedStim4,Left
POP_2,16065,1,"<?xml version=""1.0""?>\n<Clock xmlns:dt=""urn:schemas-microsoft-com:datatypes""><Description dt:dt=""string"">E-Prime Primary Realtime Clock</Description><StartTime><Timestamp dt:dt=""int"">0</Timestamp><DateUtc dt:dt=""string"">2014-05-15T20:36:03Z</DateUtc></StartTime><FrequencyChanges><FrequencyChange><Frequency dt:dt=""r8"">2793030000</Frequency><Timestamp dt:dt=""r8"">1.95314828942843E+15</Timestamp><Current dt:dt=""r8"">0</Current><DateUtc dt:dt=""string"">2014-05-15T20:36:03Z</DateUtc></FrequencyChange></FrequencyChanges></Clock>\n",60.03,1,-422057317,0,,-999999,4,87036,t,58037,145073,5/15/2014,13:36:03,8:36:03 PM,1,Session1,SessionsList,,,,,,,,,,1,1,1,3,,,,459417,,,,3,1,3,Cued4,MiniBlocks2,,,,,5,1,b,-999999,15,519087,b,533,519620,White,Incongruent,b,Red,0,,0,6,514073,,0,0,,,,,,,,,,5,1,5,Pictures\red.bmp,4000,16000,Pictures\left.bmp,,,,,,,,,,,,,StimulusPr,Pictures\black.bmp,CuedStim4,Left
POP_2,16065,1,"<?xml version=""1.0""?>\n<Clock xmlns:dt=""urn:schemas-microsoft-com:datatypes""><Description dt:dt=""string"">E-Prime Primary Realtime Clock</Description><StartTime><Timestamp dt:dt=""int"">0</Timestamp><DateUtc dt:dt=""string"">2014-05-15T20:36:03Z</DateUtc></StartTime><FrequencyChanges><FrequencyChange><Frequency dt:dt=""r8"">2793030000</Frequency><Timestamp dt:dt=""r8"">1.95314828942843E+15</Timestamp><Current dt:dt=""r8"">0</Current><DateUtc dt:dt=""string"">2014-05-15T20:36:03Z</DateUtc></FrequencyChange></FrequencyChanges></Clock>\n",60.03,1,-422057317,0,,-999999,4,87036,t,58037,145073,5/15/2014,13:36:03,8:36:03 PM,1,Session1,SessionsList,,,,,,,,,,1,1,1,3,,,,459417,,,,3,1,3,Cued4,MiniBlocks2,,,,,6,1,b,-999999,4,541076,b,801,541877,White,Congruent,b,Green,0,,0,5,537061,,0,0,,,,,,,,,,6,1,6,Pictures\green.bmp,3000,2000,Pictures\black.bmp,,,,,,,,,,,,,StimulusPr,Pictures\right.bmp,CuedStim4,Right
POP_2,16065,1,"<?xml version=""1.0""?>\n<Clock xmlns:dt=""urn:schemas-microsoft-com:datatypes""><Description dt:dt=""string"">E-Prime Primary Realtime Clock</Description><StartTime><Timestamp dt:dt=""int"">0</Timestamp><DateUtc dt:dt=""string"">2014-05-15T20:36:03Z</DateUtc></StartTime><FrequencyChanges><FrequencyChange><Frequency dt:dt=""r8"">2793030000</Frequency><Timestamp dt:dt=""r8"">1.95314828942843E+15</Timestamp><Current dt:dt=""r8"">0</Current><DateUtc dt:dt=""string"">2014-05-15T20:36:03Z</DateUtc></FrequencyChange></FrequencyChanges></Clock>\n",60.03,1,-422057317,0,,-999999,4,87036,t,58037,145073,5/15/2014,13:36:03,8:36:03 PM,1,Session1,SessionsList,,,,,,,,,,1,1,1,3,,,,459417,,,,3,1,3,Cued4,MiniBlocks2,,,,,7,1,b,-999999,14,555086,b,375,555461,White,Congruent,b,Green,0,,0,7,545074,,0,0,,,,,,,,,,7,1,7,Pictures\green.bmp,9000,10000,Pictures\black.bmp,,,,,,,,,,,,,StimulusPr,Pictures\right.bmp,CuedStim4,Right
POP_2,16065,1,"<?xml version=""1.0""?>\n<Clock xmlns:dt=""urn:schemas-microsoft-com:datatypes""><Description dt:dt=""string"">E-Prime Primary Realtime Clock</Description><StartTime><Timestamp dt:dt=""int"">0</Timestamp><DateUtc dt:dt=""string"">2014-05-15T20:36:03Z</DateUtc></StartTime><FrequencyChanges><FrequencyChange><Frequency dt:dt=""r8"">2793030000</Frequency><Timestamp dt:dt=""r8"">1.95314828942843E+15</Timestamp><Current dt:dt=""r8"">0</Current><DateUtc dt:dt=""string"">2014-05-15T20:36:03Z</DateUtc></FrequencyChange></FrequencyChanges></Clock>\n",60.03,1,-422057317,0,,-999999,4,87036,t,58037,145073,5/15/2014,13:36:03,8:36:03 PM,1,Session1,SessionsList,,,,,,,,,,1,1,1,3,,,,459417,,,,3,1,3,Cued4,MiniBlocks2,,,,,8,0,b,-999999,4,574076,r,673,574749,White,Incongruent,b,Red,0,,0,8,567080,,0,0,,,,,,,,,,8,1,8,Pictures\red.bmp,6000,10000,Pictures\left.bmp,,,,,,,,,,,,,StimulusPr,Pictures\black.bmp,CuedStim4,Left
POP_2,16065,1,"<?xml version=""1.0""?>\n<Clock xmlns:dt=""urn:schemas-microsoft-com:datatypes""><Description dt:dt=""string"">E-Prime Primary Realtime Clock</Description><StartTime><Timestamp dt:dt=""int"">0</Timestamp><DateUtc dt:dt=""string"">2014-05-15T20:36:03Z</DateUtc></StartTime><FrequencyChanges><FrequencyChange><Frequency dt:dt=""r8"">2793030000</Frequency><Timestamp dt:dt=""r8"">1.95314828942843E+15</Timestamp><Current dt:dt=""r8"">0</Current><DateUtc dt:dt=""string"">2014-05-15T20:36:03Z</DateUtc></FrequencyChange></FrequencyChanges></Clock>\n",60.03,1,-422057317,0,,-999999,4,87036,t,58037,145073,5/15/2014,13:36:03,8:36:03 PM,1,Session1,SessionsList,,,,,,,,,,1,1,1,3,,,,459417,,,,3,1,3,Cued4,MiniBlocks2,,,,,9,1,r,-999999,11,593083,r,617,593700,White,Congruent,r,Green,0,,0,15,586087,,0,0,,,,,,,,,,9,1,9,Pictures\green.bmp,6000,16000,Pictures\left.bmp,,,,,,,,,,,,,StimulusPr,Pictures\black.bmp,CuedStim4,Left
POP_2,16065,1,"<?xml version=""1.0""?>\n<Clock xmlns:dt=""urn:schemas-microsoft-com:datatypes""><Description dt:dt=""string"">E-Prime Primary Realtime Clock</Description><StartTime><Timestamp dt:dt=""int"">0</Timestamp><DateUtc dt:dt=""string"">2014-05-15T20:36:03Z</DateUtc></StartTime><FrequencyChanges><FrequencyChange><Frequency dt:dt=""r8"">2793030000</Frequency><Timestamp dt:dt=""r8"">1.95314828942843E+15</Timestamp><Current dt:dt=""r8"">0</Current><DateUtc dt:dt=""string"">2014-05-15T20:36:03Z</DateUtc></FrequencyChange></FrequencyChanges></Clock>\n",60.03,1,-422057317,0,,-999999,4,87036,t,58037,145073,5/15/2014,13:36:03,8:36:03 PM,1,Session1,SessionsList,,,,,,,,,,1,1,1,3,,,,459417,,,,3,1,3,Cued4,MiniBlocks2,,,,,10,1,r,-999999,17,616089,r,889,616978,White,Congruent,r,Green,0,,0,2,611074,,0,0,,,,,,,,,,10,1,10,Pictures\green.bmp,4000,2000,Pictures\left.bmp,,,,,,,,,,,,,StimulusPr,Pictures\black.bmp,CuedStim4,Left
POP_2,16065,1,"<?xml version=""1.0""?>\n<Clock xmlns:dt=""urn:schemas-microsoft-com:datatypes""><Description dt:dt=""string"">E-Prime Primary Realtime Clock</Description><StartTime><Timestamp dt:dt=""int"">0</Timestamp><DateUtc dt:dt=""string"">2014-05-15T20:36:03Z</DateUtc></StartTime><FrequencyChanges><FrequencyChange><Frequency dt:dt=""r8"">2793030000</Frequency><Timestamp dt:dt=""r8"">1.95314828942843E+15</Timestamp><Current dt:dt=""r8"">0</Current><DateUtc dt:dt=""string"">2014-05-15T20:36:03Z</DateUtc></FrequencyChange></FrequencyChanges></Clock>\n",60.03,1,-422057317,0,,-999999,4,87036,t,58037,145073,5/15/2014,13:36:03,8:36:03 PM,1,Session1,SessionsList,,,,,,,,,,1,1,1,4,,,,,,,,4,1,4,NonCued4,MiniBlocks2,,,,619004,1,1,r,-999999,8,633080,r,490,633570,Green,Congruent,r,White,0,,0,11,629082,,0,0,,,,,,,,,,,,,Pictures\white.bmp,3000,2000,Pictures\GreenLeft.bmp,,,,,,,,,,1,1,1,StimulusPr,Pictures\black.bmp,NonCuedStim4,Left
POP_2,16065,1,"<?xml version=""1.0""?>\n<Clock xmlns:dt=""urn:schemas-microsoft-com:datatypes""><Description dt:dt=""string"">E-Prime Primary Realtime Clock</Description><StartTime><Timestamp dt:dt=""int"">0</Timestamp><DateUtc dt:dt=""string"">2014-05-15T20:36:03Z</DateUtc></StartTime><FrequencyChanges><FrequencyChange><Frequency dt:dt=""r8"">2793030000</Frequency><Timestamp dt:dt=""r8"">1.95314828942843E+15</Timestamp><Current dt:dt=""r8"">0</Current><DateUtc dt:dt=""string"">2014-05-15T20:36:03Z</DateUtc></FrequencyChange></FrequencyChanges></Clock>\n",60.03,1,-422057317,0,,-999999,4,87036,t,58037,145073,5/15/2014,13:36:03,8:36:03 PM,1,Session1,SessionsList,,,,,,,,,,1,1,1,4,,,,,,,,4,1,4,NonCued4,MiniBlocks2,,,,619004,2,1,r,-999999,4,642076,r,435,642511,Green,Congruent,r,White,0,,0,6,637078,,0,0,,,,,,,,,,,,,Pictures\white.bmp,4000,2000,Pictures\GreenLeft.bmp,,,,,,,,,,2,1,2,StimulusPr,Pictures\black.bmp,NonCuedStim4,Left
POP_2,16065,1,"<?xml version=""1.0""?>\n<Clock xmlns:dt=""urn:schemas-microsoft-com:datatypes""><Description dt:dt=""string"">E-Prime Primary Realtime Clock</Description><StartTime><Timestamp dt:dt=""int"">0</Timestamp><DateUtc dt:dt=""string"">2014-05-15T20:36:03Z</DateUtc></StartTime><FrequencyChanges><FrequencyChange><Frequency dt:dt=""r8"">2793030000</Frequency><Timestamp dt:dt=""r8"">1.95314828942843E+15</Timestamp><Current dt:dt=""r8"">0</Current><DateUtc dt:dt=""string"">2014-05-15T20:36:03Z</DateUtc></FrequencyChange></FrequencyChanges></Clock>\n",60.03,1,-422057317,0,,-999999,4,87036,t,58037,145073,5/15/2014,13:36:03,8:36:03 PM,1,Session1,SessionsList,,,,,,,,,,1,1,1,4,,,,,,,,4,1,4,NonCued4,MiniBlocks2,,,,619004,3,1,r,-999999,16,651088,r,794,651882,Red,Incongruent,r,White,0,,0,2,646074,,0,0,,,,,,,,,,,,,Pictures\white.bmp,4000,2000,Pictures\black.bmp,,,,,,,,,,3,1,3,StimulusPr,Pictures\RedRight.bmp,NonCuedStim4,Right
POP_2,16065,1,"<?xml version=""1.0""?>\n<Clock xmlns:dt=""urn:schemas-microsoft-com:datatypes""><Description dt:dt=""string"">E-Prime Primary Realtime Clock</Description><StartTime><Timestamp dt:dt=""int"">0</Timestamp><DateUtc dt:dt=""string"">2014-05-15T20:36:03Z</DateUtc></StartTime><FrequencyChanges><FrequencyChange><Frequency dt:dt=""r8"">2793030000</Frequency><Timestamp dt:dt=""r8"">1.95314828942843E+15</Timestamp><Current dt:dt=""r8"">0</Current><DateUtc dt:dt=""string"">2014-05-15T20:36:03Z</DateUtc></FrequencyChange></FrequencyChanges></Clock>\n",60.03,1,-422057317,0,,-999999,4,87036,t,58037,145073,5/15/2014,13:36:03,8:36:03 PM,1,Session1,SessionsList,,,,,,,,,,1,1,1,4,,,,,,,,4,1,4,NonCued4,MiniBlocks2,,,,619004,4,1,b,-999999,11,659067,b,422,659489,Green,Congruent,b,White,0,,0,14,655086,,0,0,,,,,,,,,,,,,Pictures\white.bmp,3000,16000,Pictures\black.bmp,,,,,,,,,,4,1,4,StimulusPr,Pictures\GreenRight.bmp,NonCuedStim4,Right
POP_2,16065,1,"<?xml version=""1.0""?>\n<Clock xmlns:dt=""urn:schemas-microsoft-com:datatypes""><Description dt:dt=""string"">E-Prime Primary Realtime Clock</Description><StartTime><Timestamp dt:dt=""int"">0</Timestamp><DateUtc dt:dt=""string"">2014-05-15T20:36:03Z</DateUtc></StartTime><FrequencyChanges><FrequencyChange><Frequency dt:dt=""r8"">2793030000</Frequency><Timestamp dt:dt=""r8"">1.95314828942843E+15</Timestamp><Current dt:dt=""r8"">0</Current><DateUtc dt:dt=""string"">2014-05-15T20:36:03Z</DateUtc></FrequencyChange></FrequencyChanges></Clock>\n",60.03,1,-422057317,0,,-999999,4,87036,t,58037,145073,5/15/2014,13:36:03,8:36:03 PM,1,Session1,SessionsList,,,,,,,,,,1,1,1,4,,,,,,,,4,1,4,NonCued4,MiniBlocks2,,,,619004,5,1,r,-999999,14,687086,r,564,687650,Green,Congruent,r,White,0,,0,3,677075,,0,0,,,,,,,,,,,,,Pictures\white.bmp,9000,10000,Pictures\GreenLeft.bmp,,,,,,,,,,5,1,5,StimulusPr,Pictures\black.bmp,NonCuedStim4,Left
POP_2,16065,1,"<?xml version=""1.0""?>\n<Clock xmlns:dt=""urn:schemas-microsoft-com:datatypes""><Description dt:dt=""string"">E-Prime Primary Realtime Clock</Description><StartTime><Timestamp dt:dt=""int"">0</Timestamp><DateUtc dt:dt=""string"">2014-05-15T20:36:03Z</DateUtc></StartTime><FrequencyChanges><FrequencyChange><Frequency dt:dt=""r8"">2793030000</Frequency><Timestamp dt:dt=""r8"">1.95314828942843E+15</Timestamp><Current dt:dt=""r8"">0</Current><DateUtc dt:dt=""string"">2014-05-15T20:36:03Z</DateUtc></FrequencyChange></FrequencyChanges></Clock>\n",60.03,1,-422057317,0,,-999999,4,87036,t,58037,145073,5/15/2014,13:36:03,8:36:03 PM,1,Session1,SessionsList,,,,,,,,,,1,1,1,4,,,,,,,,4,1,4,NonCued4,MiniBlocks2,,,,619004,6,1,b,-999999,6,703078,b,400,703478,Green,Congruent,b,White,0,,0,9,699081,,0,0,,,,,,,,,,,,,Pictures\white.bmp,3000,16000,Pictures\black.bmp,,,,,,,,,,6,1,6,StimulusPr,Pictures\GreenRight.bmp,NonCuedStim4,Right
POP_2,16065,1,"<?xml version=""1.0""?>\n<Clock xmlns:dt=""urn:schemas-microsoft-com:datatypes""><Description dt:dt=""string"">E-Prime Primary Realtime Clock</Description><StartTime><Timestamp dt:dt=""int"">0</Timestamp><DateUtc dt:dt=""string"">2014-05-15T20:36:03Z</DateUtc></StartTime><FrequencyChanges><FrequencyChange><Frequency dt:dt=""r8"">2793030000</Frequency><Timestamp dt:dt=""r8"">1.95314828942843E+15</Timestamp><Current dt:dt=""r8"">0</Current><DateUtc dt:dt=""string"">2014-05-15T20:36:03Z</DateUtc></FrequencyChange></FrequencyChanges></Clock>\n",60.03,1,-422057317,0,,-999999,4,87036,t,58037,145073,5/15/2014,13:36:03,8:36:03 PM,1,Session1,SessionsList,,,,,,,,,,1,1,1,4,,,,,,,,4,1,4,NonCued4,MiniBlocks2,,,,619004,7,0,b,-999999,8,725067,r,478,725545,Red,Incongruent,b,White,0,,0,13,721069,,0,0,,,,,,,,,,,,,Pictures\white.bmp,3000,16000,Pictures\RedLeft.bmp,,,,,,,,,,7,1,7,StimulusPr,Pictures\black.bmp,NonCuedStim4,Left
POP_2,16065,1,"<?xml version=""1.0""?>\n<Clock xmlns:dt=""urn:schemas-microsoft-com:datatypes""><Description dt:dt=""string"">E-Prime Primary Realtime Clock</Description><StartTime><Timestamp dt:dt=""int"">0</Timestamp><DateUtc dt:dt=""string"">2014-05-15T20:36:03Z</DateUtc></StartTime><FrequencyChanges><FrequencyChange><Frequency dt:dt=""r8"">2793030000</Frequency><Timestamp dt:dt=""r8"">1.95314828942843E+15</Timestamp><Current dt:dt=""r8"">0</Current><DateUtc dt:dt=""string"">2014-05-15T20:36:03Z</DateUtc></FrequencyChange></FrequencyChanges></Clock>\n",60.03,1,-422057317,0,,-999999,4,87036,t,58037,145073,5/15/2014,13:36:03,8:36:03 PM,1,Session1,SessionsList,,,,,,,,,,1,1,1,4,,,,,,,,4,1,4,NonCued4,MiniBlocks2,,,,619004,8,1,r,-999999,18,747090,r,679,747769,Green,Congruent,r,White,0,,0,2,743059,,0,0,,,,,,,,,,,,,Pictures\white.bmp,3000,2000,Pictures\GreenLeft.bmp,,,,,,,,,,8,1,8,StimulusPr,Pictures\black.bmp,NonCuedStim4,Left
POP_2,16065,1,"<?xml version=""1.0""?>\n<Clock xmlns:dt=""urn:schemas-microsoft-com:datatypes""><Description dt:dt=""string"">E-Prime Primary Realtime Clock</Description><StartTime><Timestamp dt:dt=""int"">0</Timestamp><DateUtc dt:dt=""string"">2014-05-15T20:36:03Z</DateUtc></StartTime><FrequencyChanges><FrequencyChange><Frequency dt:dt=""r8"">2793030000</Frequency><Timestamp dt:dt=""r8"">1.95314828942843E+15</Timestamp><Current dt:dt=""r8"">0</Current><DateUtc dt:dt=""string"">2014-05-15T20:36:03Z</DateUtc></FrequencyChange></FrequencyChanges></Clock>\n",60.03,1,-422057317,0,,-999999,4,87036,t,58037,145073,5/15/2014,13:36:03,8:36:03 PM,1,Session1,SessionsList,,,,,,,,,,1,1,1,4,,,,,,,,4,1,4,NonCued4,MiniBlocks2,,,,619004,9,1,b,-999999,12,758084,b,486,758570,Green,Congruent,b,White,0,,0,15,751071,,0,0,,,,,,,,,,,,,Pictures\white.bmp,6000,2000,Pictures\black.bmp,,,,,,,,,,9,1,9,StimulusPr,Pictures\GreenRight.bmp,NonCuedStim4,Right
POP_2,16065,1,"<?xml version=""1.0""?>\n<Clock xmlns:dt=""urn:schemas-microsoft-com:datatypes""><Description dt:dt=""string"">E-Prime Primary Realtime Clock</Description><StartTime><Timestamp dt:dt=""int"">0</Timestamp><DateUtc dt:dt=""string"">2014-05-15T20:36:03Z</DateUtc></StartTime><FrequencyChanges><FrequencyChange><Frequency dt:dt=""r8"">2793030000</Frequency><Timestamp dt:dt=""r8"">1.95314828942843E+15</Timestamp><Current dt:dt=""r8"">0</Current><DateUtc dt:dt=""string"">2014-05-15T20:36:03Z</DateUtc></FrequencyChange></FrequencyChanges></Clock>\n",60.03,1,-422057317,0,,-999999,4,87036,t,58037,145073,5/15/2014,13:36:03,8:36:03 PM,1,Session1,SessionsList,,,,,,,,,,1,1,1,4,,,,,,,,4,1,4,NonCued4,MiniBlocks2,,,,619004,10,1,b,-999999,8,767080,b,538,767618,Green,Congruent,b,White,0,,0,10,762082,,0,0,,,,,,,,,,,,,Pictures\white.bmp,4000,4000,Pictures\black.bmp,,,,,,,,,,10,1,10,StimulusPr,Pictures\GreenRight.bmp,NonCuedStim4,Right
POP_2,16065,1,"<?xml version=""1.0""?>\n<Clock xmlns:dt=""urn:schemas-microsoft-com:datatypes""><Description dt:dt=""string"">E-Prime Primary Realtime Clock</Description><StartTime><Timestamp dt:dt=""int"">0</Timestamp><DateUtc dt:dt=""string"">2014-05-15T20:36:03Z</DateUtc></StartTime><FrequencyChanges><FrequencyChange><Frequency dt:dt=""r8"">2793030000</Frequency><Timestamp dt:dt=""r8"">1.95314828942843E+15</Timestamp><Current dt:dt=""r8"">0</Current><DateUtc dt:dt=""string"">2014-05-15T20:36:03Z</DateUtc></FrequencyChange></FrequencyChanges></Clock>\n",60.03,1,-422057317,0,,-999999,4,87036,t,58037,145073,5/15/2014,13:36:03,8:36:03 PM,2,Session2,SessionsList,0,,-999999,1,784604,t,36474,821078,771644,2,1,2,1,821086,,,,1,1,1,,,,Cued1,MiniBlocks1,,,,,1,1,r,-999999,11,835096,r,364,835460,White,Congruent,r,Green,0,,0,11,830098,,0,0,1,1,1,,,,,,,,,,Pictures\green.bmp,4000,4000,Pictures\left.bmp,,,,,,,,,,,,,StimulusPr,Pictures\black.bmp,CuedStim1,Left
POP_2,16065,1,"<?xml version=""1.0""?>\n<Clock xmlns:dt=""urn:schemas-microsoft-com:datatypes""><Description dt:dt=""string"">E-Prime Primary Realtime Clock</Description><StartTime><Timestamp dt:dt=""int"">0</Timestamp><DateUtc dt:dt=""string"">2014-05-15T20:36:03Z</DateUtc></StartTime><FrequencyChanges><FrequencyChange><Frequency dt:dt=""r8"">2793030000</Frequency><Timestamp dt:dt=""r8"">1.95314828942843E+15</Timestamp><Current dt:dt=""r8"">0</Current><DateUtc dt:dt=""string"">2014-05-15T20:36:03Z</DateUtc></FrequencyChange></FrequencyChanges></Clock>\n",60.03,1,-422057317,0,,-999999,4,87036,t,58037,145073,5/15/2014,13:36:03,8:36:03 PM,2,Session2,SessionsList,0,,-999999,1,784604,t,36474,821078,771644,2,1,2,1,821086,,,,1,1,1,,,,Cued1,MiniBlocks1,,,,,2,1,b,-999999,11,848089,b,308,848397,White,Congruent,b,Green,0,,0,12,841110,,0,0,2,1,2,,,,,,,,,,Pictures\green.bmp,6000,2000,Pictures\black.bmp,,,,,,,,,,,,,StimulusPr,Pictures\right.bmp,CuedStim1,Right
POP_2,16065,1,"<?xml version=""1.0""?>\n<Clock xmlns:dt=""urn:schemas-microsoft-com:datatypes""><Description dt:dt=""string"">E-Prime Primary Realtime Clock</Description><StartTime><Timestamp dt:dt=""int"">0</Timestamp><DateUtc dt:dt=""string"">2014-05-15T20:36:03Z</DateUtc></StartTime><FrequencyChanges><FrequencyChange><Frequency dt:dt=""r8"">2793030000</Frequency><Timestamp dt:dt=""r8"">1.95314828942843E+15</Timestamp><Current dt:dt=""r8"">0</Current><DateUtc dt:dt=""string"">2014-05-15T20:36:03Z</DateUtc></FrequencyChange></FrequencyChanges></Clock>\n",60.03,1,-422057317,0,,-999999,4,87036,t,58037,145073,5/15/2014,13:36:03,8:36:03 PM,2,Session2,SessionsList,0,,-999999,1,784604,t,36474,821078,771644,2,1,2,1,821086,,,,1,1,1,,,,Cued1,MiniBlocks1,,,,,3,1,b,-999999,6,856085,b,419,856504,White,Congruent,b,Green,0,,0,6,852104,,0,0,3,1,3,,,,,,,,,,Pictures\green.bmp,3000,2000,Pictures\black.bmp,,,,,,,,,,,,,StimulusPr,Pictures\right.bmp,CuedStim1,Right
POP_2,16065,1,"<?xml version=""1.0""?>\n<Clock xmlns:dt=""urn:schemas-microsoft-com:datatypes""><Description dt:dt=""string"">E-Prime Primary Realtime Clock</Description><StartTime><Timestamp dt:dt=""int"">0</Timestamp><DateUtc dt:dt=""string"">2014-05-15T20:36:03Z</DateUtc></StartTime><FrequencyChanges><FrequencyChange><Frequency dt:dt=""r8"">2793030000</Frequency><Timestamp dt:dt=""r8"">1.95314828942843E+15</Timestamp><Current dt:dt=""r8"">0</Current><DateUtc dt:dt=""string"">2014-05-15T20:36:03Z</DateUtc></FrequencyChange></FrequencyChanges></Clock>\n",60.03,1,-422057317,0,,-999999,4,87036,t,58037,145073,5/15/2014,13:36:03,8:36:03 PM,2,Session2,SessionsList,0,,-999999,1,784604,t,36474,821078,771644,2,1,2,1,821086,,,,1,1,1,,,,Cued1,MiniBlocks1,,,,,4,1,b,-999999,17,864115,b,394,864509,White,Incongruent,b,Red,0,,0,2,860100,,0,0,4,1,4,,,,,,,,,,Pictures\red.bmp,3000,16000,Pictures\left.bmp,,,,,,,,,,,,,StimulusPr,Pictures\black.bmp,CuedStim1,Left
POP_2,16065,1,"<?xml version=""1.0""?>\n<Clock xmlns:dt=""urn:schemas-microsoft-com:datatypes""><Description dt:dt=""string"">E-Prime Primary Realtime Clock</Description><StartTime><Timestamp dt:dt=""int"">0</Timestamp><DateUtc dt:dt=""string"">2014-05-15T20:36:03Z</DateUtc></StartTime><FrequencyChanges><FrequencyChange><Frequency dt:dt=""r8"">2793030000</Frequency><Timestamp dt:dt=""r8"">1.95314828942843E+15</Timestamp><Current dt:dt=""r8"">0</Current><DateUtc dt:dt=""string"">2014-05-15T20:36:03Z</DateUtc></FrequencyChange></FrequencyChanges></Clock>\n",60.03,1,-422057317,0,,-999999,4,87036,t,58037,145073,5/15/2014,13:36:03,8:36:03 PM,2,Session2,SessionsList,0,,-999999,1,784604,t,36474,821078,771644,2,1,2,1,821086,,,,1,1,1,,,,Cued1,MiniBlocks1,,,,,5,1,r,-999999,17,886104,r,517,886621,White,Congruent,r,Green,0,,0,2,882089,,0,0,5,1,5,,,,,,,,,,Pictures\green.bmp,3000,16000,Pictures\left.bmp,,,,,,,,,,,,,StimulusPr,Pictures\black.bmp,CuedStim1,Left
POP_2,16065,1,"<?xml version=""1.0""?>\n<Clock xmlns:dt=""urn:schemas-microsoft-com:datatypes""><Description dt:dt=""string"">E-Prime Primary Realtime Clock</Description><StartTime><Timestamp dt:dt=""int"">0</Timestamp><DateUtc dt:dt=""string"">2014-05-15T20:36:03Z</DateUtc></StartTime><FrequencyChanges><FrequencyChange><Frequency dt:dt=""r8"">2793030000</Frequency><Timestamp dt:dt=""r8"">1.95314828942843E+15</Timestamp><Current dt:dt=""r8"">0</Current><DateUtc dt:dt=""string"">2014-05-15T20:36:03Z</DateUtc></FrequencyChange></FrequencyChanges></Clock>\n",60.03,1,-422057317,0,,-999999,4,87036,t,58037,145073,5/15/2014,13:36:03,8:36:03 PM,2,Session2,SessionsList,0,,-999999,1,784604,t,36474,821078,771644,2,1,2,1,821086,,,,1,1,1,,,,Cued1,MiniBlocks1,,,,,6,1,r,-999999,8,914106,r,574,914680,White,Congruent,r,Green,0,,0,13,904111,,0,0,6,1,6,,,,,,,,,,Pictures\green.bmp,9000,10000,Pictures\left.bmp,,,,,,,,,,,,,StimulusPr,Pictures\black.bmp,CuedStim1,Left
POP_2,16065,1,"<?xml version=""1.0""?>\n<Clock xmlns:dt=""urn:schemas-microsoft-com:datatypes""><Description dt:dt=""string"">E-Prime Primary Realtime Clock</Description><StartTime><Timestamp dt:dt=""int"">0</Timestamp><DateUtc dt:dt=""string"">2014-05-15T20:36:03Z</DateUtc></StartTime><FrequencyChanges><FrequencyChange><Frequency dt:dt=""r8"">2793030000</Frequency><Timestamp dt:dt=""r8"">1.95314828942843E+15</Timestamp><Current dt:dt=""r8"">0</Current><DateUtc dt:dt=""string"">2014-05-15T20:36:03Z</DateUtc></FrequencyChange></FrequencyChanges></Clock>\n",60.03,1,-422057317,0,,-999999,4,87036,t,58037,145073,5/15/2014,13:36:03,8:36:03 PM,2,Session2,SessionsList,0,,-999999,1,784604,t,36474,821078,771644,2,1,2,1,821086,,,,1,1,1,,,,Cued1,MiniBlocks1,,,,,7,1,b,-999999,15,930098,b,388,930486,White,Congruent,b,Green,0,,0,13,926100,,0,0,7,1,7,,,,,,,,,,Pictures\green.bmp,3000,16000,Pictures\black.bmp,,,,,,,,,,,,,StimulusPr,Pictures\right.bmp,CuedStim1,Right
POP_2,16065,1,"<?xml version=""1.0""?>\n<Clock xmlns:dt=""urn:schemas-microsoft-com:datatypes""><Description dt:dt=""string"">E-Prime Primary Realtime Clock</Description><StartTime><Timestamp dt:dt=""int"">0</Timestamp><DateUtc dt:dt=""string"">2014-05-15T20:36:03Z</DateUtc></StartTime><FrequencyChanges><FrequencyChange><Frequency dt:dt=""r8"">2793030000</Frequency><Timestamp dt:dt=""r8"">1.95314828942843E+15</Timestamp><Current dt:dt=""r8"">0</Current><DateUtc dt:dt=""string"">2014-05-15T20:36:03Z</DateUtc></FrequencyChange></FrequencyChanges></Clock>\n",60.03,1,-422057317,0,,-999999,4,87036,t,58037,145073,5/15/2014,13:36:03,8:36:03 PM,2,Session2,SessionsList,0,,-999999,1,784604,t,36474,821078,771644,2,1,2,1,821086,,,,1,1,1,,,,Cued1,MiniBlocks1,,,,,8,1,r,-999999,6,953104,r,563,953667,White,Incongruent,r,Red,0,,0,2,948089,,0,0,8,1,8,,,,,,,,,,Pictures\red.bmp,4000,2000,Pictures\black.bmp,,,,,,,,,,,,,StimulusPr,Pictures\right.bmp,CuedStim1,Right
POP_2,16065,1,"<?xml version=""1.0""?>\n<Clock xmlns:dt=""urn:schemas-microsoft-com:datatypes""><Description dt:dt=""string"">E-Prime Primary Realtime Clock</Description><StartTime><Timestamp dt:dt=""int"">0</Timestamp><DateUtc dt:dt=""string"">2014-05-15T20:36:03Z</DateUtc></StartTime><FrequencyChanges><FrequencyChange><Frequency dt:dt=""r8"">2793030000</Frequency><Timestamp dt:dt=""r8"">1.95314828942843E+15</Timestamp><Current dt:dt=""r8"">0</Current><DateUtc dt:dt=""string"">2014-05-15T20:36:03Z</DateUtc></FrequencyChange></FrequencyChanges></Clock>\n",60.03,1,-422057317,0,,-999999,4,87036,t,58037,145073,5/15/2014,13:36:03,8:36:03 PM,2,Session2,SessionsList,0,,-999999,1,784604,t,36474,821078,771644,2,1,2,1,821086,,,,1,1,1,,,,Cued1,MiniBlocks1,,,,,9,1,b,-999999,18,962116,b,510,962626,White,Congruent,b,Green,0,,0,4,957102,,0,0,9,1,9,,,,,,,,,,Pictures\green.bmp,4000,2000,Pictures\black.bmp,,,,,,,,,,,,,StimulusPr,Pictures\right.bmp,CuedStim1,Right
POP_2,16065,1,"<?xml version=""1.0""?>\n<Clock xmlns:dt=""urn:schemas-microsoft-com:datatypes""><Description dt:dt=""string"">E-Prime Primary Realtime Clock</Description><StartTime><Timestamp dt:dt=""int"">0</Timestamp><DateUtc dt:dt=""string"">2014-05-15T20:36:03Z</DateUtc></StartTime><FrequencyChanges><FrequencyChange><Frequency dt:dt=""r8"">2793030000</Frequency><Timestamp dt:dt=""r8"">1.95314828942843E+15</Timestamp><Current dt:dt=""r8"">0</Current><DateUtc dt:dt=""string"">2014-05-15T20:36:03Z</DateUtc></FrequencyChange></FrequencyChanges></Clock>\n",60.03,1,-422057317,0,,-999999,4,87036,t,58037,145073,5/15/2014,13:36:03,8:36:03 PM,2,Session2,SessionsList,0,,-999999,1,784604,t,36474,821078,771644,2,1,2,1,821086,,,,1,1,1,,,,Cued1,MiniBlocks1,,,,,10,1,r,-999999,18,970112,r,339,970451,White,Congruent,r,Green,0,,0,16,966114,,0,0,10,1,10,,,,,,,,,,Pictures\green.bmp,3000,2000,Pictures\left.bmp,,,,,,,,,,,,,StimulusPr,Pictures\black.bmp,CuedStim1,Left
POP_2,16065,1,"<?xml version=""1.0""?>\n<Clock xmlns:dt=""urn:schemas-microsoft-com:datatypes""><Description dt:dt=""string"">E-Prime Primary Realtime Clock</Description><StartTime><Timestamp dt:dt=""int"">0</Timestamp><DateUtc dt:dt=""string"">2014-05-15T20:36:03Z</DateUtc></StartTime><FrequencyChanges><FrequencyChange><Frequency dt:dt=""r8"">2793030000</Frequency><Timestamp dt:dt=""r8"">1.95314828942843E+15</Timestamp><Current dt:dt=""r8"">0</Current><DateUtc dt:dt=""string"">2014-05-15T20:36:03Z</DateUtc></FrequencyChange></FrequencyChanges></Clock>\n",60.03,1,-422057317,0,,-999999,4,87036,t,58037,145073,5/15/2014,13:36:03,8:36:03 PM,2,Session2,SessionsList,0,,-999999,1,784604,t,36474,821078,771644,2,1,2,2,,,,,2,1,2,,,,NonCued1,MiniBlocks1,972477,,,,1,1,r,-999999,16,987103,r,706,987809,Green,Congruent,r,White,0,,0,8,982106,,0,0,,,,,,,,,,,,,Pictures\white.bmp,4000,2000,Pictures\GreenLeft.bmp,1,1,1,,,,,,,,,,StimulusPr,Pictures\black.bmp,NonCuedStim1,Left
POP_2,16065,1,"<?xml version=""1.0""?>\n<Clock xmlns:dt=""urn:schemas-microsoft-com:datatypes""><Description dt:dt=""string"">E-Prime Primary Realtime Clock</Description><StartTime><Timestamp dt:dt=""int"">0</Timestamp><DateUtc dt:dt=""string"">2014-05-15T20:36:03Z</DateUtc></StartTime><FrequencyChanges><FrequencyChange><Frequency dt:dt=""r8"">2793030000</Frequency><Timestamp dt:dt=""r8"">1.95314828942843E+15</Timestamp><Current dt:dt=""r8"">0</Current><DateUtc dt:dt=""string"">2014-05-15T20:36:03Z</DateUtc></FrequencyChange></FrequencyChanges></Clock>\n",60.03,1,-422057317,0,,-999999,4,87036,t,58037,145073,5/15/2014,13:36:03,8:36:03 PM,2,Session2,SessionsList,0,,-999999,1,784604,t,36474,821078,771644,2,1,2,2,,,,,2,1,2,,,,NonCued1,MiniBlocks1,972477,,,,2,1,b,-999999,17,998115,b,772,998887,Green,Congruent,b,White,0,,0,4,991085,,0,0,,,,,,,,,,,,,Pictures\white.bmp,6000,16000,Pictures\black.bmp,2,1,2,,,,,,,,,,StimulusPr,Pictures\GreenRight.bmp,NonCuedStim1,Right
POP_2,16065,1,"<?xml version=""1.0""?>\n<Clock xmlns:dt=""urn:schemas-microsoft-com:datatypes""><Description dt:dt=""string"">E-Prime Primary Realtime Clock</Description><StartTime><Timestamp dt:dt=""int"">0</Timestamp><DateUtc dt:dt=""string"">2014-05-15T20:36:03Z</DateUtc></StartTime><FrequencyChanges><FrequencyChange><Frequency dt:dt=""r8"">2793030000</Frequency><Timestamp dt:dt=""r8"">1.95314828942843E+15</Timestamp><Current dt:dt=""r8"">0</Current><DateUtc dt:dt=""string"">2014-05-15T20:36:03Z</DateUtc></FrequencyChange></FrequencyChanges></Clock>\n",60.03,1,-422057317,0,,-999999,4,87036,t,58037,145073,5/15/2014,13:36:03,8:36:03 PM,2,Session2,SessionsList,0,,-999999,1,784604,t,36474,821078,771644,2,1,2,2,,,,,2,1,2,,,,NonCued1,MiniBlocks1,972477,,,,3,1,r,-999999,4,1023102,r,706,1023808,Red,Incongruent,r,White,0,,0,7,1016105,,0,0,,,,,,,,,,,,,Pictures\white.bmp,6000,10000,Pictures\black.bmp,3,1,3,,,,,,,,,,StimulusPr,Pictures\RedRight.bmp,NonCuedStim1,Right
POP_2,16065,1,"<?xml version=""1.0""?>\n<Clock xmlns:dt=""urn:schemas-microsoft-com:datatypes""><Description dt:dt=""string"">E-Prime Primary Realtime Clock</Description><StartTime><Timestamp dt:dt=""int"">0</Timestamp><DateUtc dt:dt=""string"">2014-05-15T20:36:03Z</DateUtc></StartTime><FrequencyChanges><FrequencyChange><Frequency dt:dt=""r8"">2793030000</Frequency><Timestamp dt:dt=""r8"">1.95314828942843E+15</Timestamp><Current dt:dt=""r8"">0</Current><DateUtc dt:dt=""string"">2014-05-15T20:36:03Z</DateUtc></FrequencyChange></FrequencyChanges></Clock>\n",60.03,1,-422057317,0,,-999999,4,87036,t,58037,145073,5/15/2014,13:36:03,8:36:03 PM,2,Session2,SessionsList,0,,-999999,1,784604,t,36474,821078,771644,2,1,2,2,,,,,2,1,2,,,,NonCued1,MiniBlocks1,972477,,,,4,1,r,-999999,10,1045108,r,681,1045789,Green,Congruent,r,White,0,,0,16,1035096,,0,0,,,,,,,,,,,,,Pictures\white.bmp,9000,10000,Pictures\GreenLeft.bmp,4,1,4,,,,,,,,,,StimulusPr,Pictures\black.bmp,NonCuedStim1,Left
POP_2,16065,1,"<?xml version=""1.0""?>\n<Clock xmlns:dt=""urn:schemas-microsoft-com:datatypes""><Description dt:dt=""string"">E-Prime Primary Realtime Clock</Description><StartTime><Timestamp dt:dt=""int"">0</Timestamp><DateUtc dt:dt=""string"">2014-05-15T20:36:03Z</DateUtc></StartTime><FrequencyChanges><FrequencyChange><Frequency dt:dt=""r8"">2793030000</Frequency><Timestamp dt:dt=""r8"">1.95314828942843E+15</Timestamp><Current dt:dt=""r8"">0</Current><DateUtc dt:dt=""string"">2014-05-15T20:36:03Z</DateUtc></FrequencyChange></FrequencyChanges></Clock>\n",60.03,1,-422057317,0,,-999999,4,87036,t,58037,145073,5/15/2014,13:36:03,8:36:03 PM,2,Session2,SessionsList,0,,-999999,1,784604,t,36474,821078,771644,2,1,2,2,,,,,2,1,2,,,,NonCued1,MiniBlocks1,972477,,,,5,1,b,-999999,17,1061116,b,1014,1062130,Green,Congruent,b,White,0,,0,15,1057102,,0,0,,,,,,,,,,,,,Pictures\white.bmp,3000,2000,Pictures\black.bmp,5,1,5,,,,,,,,,,StimulusPr,Pictures\GreenRight.bmp,NonCuedStim1,Right
POP_2,16065,1,"<?xml version=""1.0""?>\n<Clock xmlns:dt=""urn:schemas-microsoft-com:datatypes""><Description dt:dt=""string"">E-Prime Primary Realtime Clock</Description><StartTime><Timestamp dt:dt=""int"">0</Timestamp><DateUtc dt:dt=""string"">2014-05-15T20:36:03Z</DateUtc></StartTime><FrequencyChanges><FrequencyChange><Frequency dt:dt=""r8"">2793030000</Frequency><Timestamp dt:dt=""r8"">1.95314828942843E+15</Timestamp><Current dt:dt=""r8"">0</Current><DateUtc dt:dt=""string"">2014-05-15T20:36:03Z</DateUtc></FrequencyChange></FrequencyChanges></Clock>\n",60.03,1,-422057317,0,,-999999,4,87036,t,58037,145073,5/15/2014,13:36:03,8:36:03 PM,2,Session2,SessionsList,0,,-999999,1,784604,t,36474,821078,771644,2,1,2,2,,,,,2,1,2,,,,NonCued1,MiniBlocks1,972477,,,,6,1,b,-999999,18,1071111,b,925,1072036,Red,Incongruent,b,White,0,,0,16,1066114,,0,0,,,,,,,,,,,,,Pictures\white.bmp,4000,16000,Pictures\RedLeft.bmp,6,1,6,,,,,,,,,,StimulusPr,Pictures\black.bmp,NonCuedStim1,Left
POP_2,16065,1,"<?xml version=""1.0""?>\n<Clock xmlns:dt=""urn:schemas-microsoft-com:datatypes""><Description dt:dt=""string"">E-Prime Primary Realtime Clock</Description><StartTime><Timestamp dt:dt=""int"">0</Timestamp><DateUtc dt:dt=""string"">2014-05-15T20:36:03Z</DateUtc></StartTime><FrequencyChanges><FrequencyChange><Frequency dt:dt=""r8"">2793030000</Frequency><Timestamp dt:dt=""r8"">1.95314828942843E+15</Timestamp><Current dt:dt=""r8"">0</Current><DateUtc dt:dt=""string"">2014-05-15T20:36:03Z</DateUtc></FrequencyChange></FrequencyChanges></Clock>\n",60.03,1,-422057317,0,,-999999,4,87036,t,58037,145073,5/15/2014,13:36:03,8:36:03 PM,2,Session2,SessionsList,0,,-999999,1,784604,t,36474,821078,771644,2,1,2,2,,,,,2,1,2,,,,NonCued1,MiniBlocks1,972477,,,,7,1,b,-999999,2,1093100,b,494,1093594,Green,Congruent,b,White,0,,0,6,1089102,,0,0,,,,,,,,,,,,,Pictures\white.bmp,3000,4000,Pictures\black.bmp,7,1,7,,,,,,,,,,StimulusPr,Pictures\GreenRight.bmp,NonCuedStim1,Right
POP_2,16065,1,"<?xml version=""1.0""?>\n<Clock xmlns:dt=""urn:schemas-microsoft-com:datatypes""><Description dt:dt=""string"">E-Prime Primary Realtime Clock</Description><StartTime><Timestamp dt:dt=""int"">0</Timestamp><DateUtc dt:dt=""string"">2014-05-15T20:36:03Z</DateUtc></StartTime><FrequencyChanges><FrequencyChange><Frequency dt:dt=""r8"">2793030000</Frequency><Timestamp dt:dt=""r8"">1.95314828942843E+15</Timestamp><Current dt:dt=""r8"">0</Current><DateUtc dt:dt=""string"">2014-05-15T20:36:03Z</DateUtc></FrequencyChange></FrequencyChanges></Clock>\n",60.03,1,-422057317,0,,-999999,4,87036,t,58037,145073,5/15/2014,13:36:03,8:36:03 PM,2,Session2,SessionsList,0,,-999999,1,784604,t,36474,821078,771644,2,1,2,2,,,,,2,1,2,,,,NonCued1,MiniBlocks1,972477,,,,8,1,b,-999999,14,1103112,b,533,1103645,Green,Congruent,b,White,0,,0,8,1099097,,0,0,,,,,,,,,,,,,Pictures\white.bmp,3000,4000,Pictures\black.bmp,8,1,8,,,,,,,,,,StimulusPr,Pictures\GreenRight.bmp,NonCuedStim1,Right
POP_2,16065,1,"<?xml version=""1.0""?>\n<Clock xmlns:dt=""urn:schemas-microsoft-com:datatypes""><Description dt:dt=""string"">E-Prime Primary Realtime Clock</Description><StartTime><Timestamp dt:dt=""int"">0</Timestamp><DateUtc dt:dt=""string"">2014-05-15T20:36:03Z</DateUtc></StartTime><FrequencyChanges><FrequencyChange><Frequency dt:dt=""r8"">2793030000</Frequency><Timestamp dt:dt=""r8"">1.95314828942843E+15</Timestamp><Current dt:dt=""r8"">0</Current><DateUtc dt:dt=""string"">2014-05-15T20:36:03Z</DateUtc></FrequencyChange></FrequencyChanges></Clock>\n",60.03,1,-422057317,0,,-999999,4,87036,t,58037,145073,5/15/2014,13:36:03,8:36:03 PM,2,Session2,SessionsList,0,,-999999,1,784604,t,36474,821078,771644,2,1,2,2,,,,,2,1,2,,,,NonCued1,MiniBlocks1,972477,,,,9,0,b,-999999,6,1119104,r,662,1119766,Red,Incongruent,b,White,0,,0,11,1109109,,0,0,,,,,,,,,,,,,Pictures\white.bmp,9000,2000,Pictures\RedLeft.bmp,9,1,9,,,,,,,,,,StimulusPr,Pictures\black.bmp,NonCuedStim1,Left
POP_2,16065,1,"<?xml version=""1.0""?>\n<Clock xmlns:dt=""urn:schemas-microsoft-com:datatypes""><Description dt:dt=""string"">E-Prime Primary Realtime Clock</Description><StartTime><Timestamp dt:dt=""int"">0</Timestamp><DateUtc dt:dt=""string"">2014-05-15T20:36:03Z</DateUtc></StartTime><FrequencyChanges><FrequencyChange><Frequency dt:dt=""r8"">2793030000</Frequency><Timestamp dt:dt=""r8"">1.95314828942843E+15</Timestamp><Current dt:dt=""r8"">0</Current><DateUtc dt:dt=""string"">2014-05-15T20:36:03Z</DateUtc></FrequencyChange></FrequencyChanges></Clock>\n",60.03,1,-422057317,0,,-999999,4,87036,t,58037,145073,5/15/2014,13:36:03,8:36:03 PM,2,Session2,SessionsList,0,,-999999,1,784604,t,36474,821078,771644,2,1,2,2,,,,,2,1,2,,,,NonCued1,MiniBlocks1,972477,,,,10,1,r,-999999,15,1130099,r,316,1130415,Green,Congruent,r,White,0,,0,4,1123102,,0,0,,,,,,,,,,,,,Pictures\white.bmp,6000,2000,Pictures\GreenLeft.bmp,10,1,10,,,,,,,,,,StimulusPr,Pictures\black.bmp,NonCuedStim1,Left
POP_2,16065,1,"<?xml version=""1.0""?>\n<Clock xmlns:dt=""urn:schemas-microsoft-com:datatypes""><Description dt:dt=""string"">E-Prime Primary Realtime Clock</Description><StartTime><Timestamp dt:dt=""int"">0</Timestamp><DateUtc dt:dt=""string"">2014-05-15T20:36:03Z</DateUtc></StartTime><FrequencyChanges><FrequencyChange><Frequency dt:dt=""r8"">2793030000</Frequency><Timestamp dt:dt=""r8"">1.95314828942843E+15</Timestamp><Current dt:dt=""r8"">0</Current><DateUtc dt:dt=""string"">2014-05-15T20:36:03Z</DateUtc></FrequencyChange></FrequencyChanges></Clock>\n",60.03,1,-422057317,0,,-999999,4,87036,t,58037,145073,5/15/2014,13:36:03,8:36:03 PM,2,Session2,SessionsList,0,,-999999,1,784604,t,36474,821078,771644,2,1,2,3,,,,,3,1,3,,,,NonCued2,MiniBlocks1,,1132431,,,1,1,b,-999999,17,1152104,b,671,1152775,Green,Congruent,b,White,0,,0,11,1142109,,0,0,,,,,,,,,,,,,Pictures\white.bmp,9000,10000,Pictures\black.bmp,,,,1,1,1,,,,,,,StimulusPr,Pictures\GreenRight.bmp,NonCuedStim2,Right
POP_2,16065,1,"<?xml version=""1.0""?>\n<Clock xmlns:dt=""urn:schemas-microsoft-com:datatypes""><Description dt:dt=""string"">E-Prime Primary Realtime Clock</Description><StartTime><Timestamp dt:dt=""int"">0</Timestamp><DateUtc dt:dt=""string"">2014-05-15T20:36:03Z</DateUtc></StartTime><FrequencyChanges><FrequencyChange><Frequency dt:dt=""r8"">2793030000</Frequency><Timestamp dt:dt=""r8"">1.95314828942843E+15</Timestamp><Current dt:dt=""r8"">0</Current><DateUtc dt:dt=""string"">2014-05-15T20:36:03Z</DateUtc></FrequencyChange></FrequencyChanges></Clock>\n",60.03,1,-422057317,0,,-999999,4,87036,t,58037,145073,5/15/2014,13:36:03,8:36:03 PM,2,Session2,SessionsList,0,,-999999,1,784604,t,36474,821078,771644,2,1,2,3,,,,,3,1,3,,,,NonCued2,MiniBlocks1,,1132431,,,2,1,r,-999999,15,1168113,r,454,1168567,Green,Congruent,r,White,0,,0,10,1164098,,0,0,,,,,,,,,,,,,Pictures\white.bmp,3000,2000,Pictures\GreenLeft.bmp,,,,2,1,2,,,,,,,StimulusPr,Pictures\black.bmp,NonCuedStim2,Left
POP_2,16065,1,"<?xml version=""1.0""?>\n<Clock xmlns:dt=""urn:schemas-microsoft-com:datatypes""><Description dt:dt=""string"">E-Prime Primary Realtime Clock</Description><StartTime><Timestamp dt:dt=""int"">0</Timestamp><DateUtc dt:dt=""string"">2014-05-15T20:36:03Z</DateUtc></StartTime><FrequencyChanges><FrequencyChange><Frequency dt:dt=""r8"">2793030000</Frequency><Timestamp dt:dt=""r8"">1.95314828942843E+15</Timestamp><Current dt:dt=""r8"">0</Current><DateUtc dt:dt=""string"">2014-05-15T20:36:03Z</DateUtc></FrequencyChange></FrequencyChanges></Clock>\n",60.03,1,-422057317,0,,-999999,4,87036,t,58037,145073,5/15/2014,13:36:03,8:36:03 PM,2,Session2,SessionsList,0,,-999999,1,784604,t,36474,821078,771644,2,1,2,3,,,,,3,1,3,,,,NonCued2,MiniBlocks1,,1132431,,,3,1,r,-999999,11,1176109,r,752,1176861,Red,Incongruent,r,White,0,,0,7,1172094,,0,0,,,,,,,,,,,,,Pictures\white.bmp,3000,2000,Pictures\black.bmp,,,,3,1,3,,,,,,,StimulusPr,Pictures\RedRight.bmp,NonCuedStim2,Right
POP_2,16065,1,"<?xml version=""1.0""?>\n<Clock xmlns:dt=""urn:schemas-microsoft-com:datatypes""><Description dt:dt=""string"">E-Prime Primary Realtime Clock</Description><StartTime><Timestamp dt:dt=""int"">0</Timestamp><DateUtc dt:dt=""string"">2014-05-15T20:36:03Z</DateUtc></StartTime><FrequencyChanges><FrequencyChange><Frequency dt:dt=""r8"">2793030000</Frequency><Timestamp dt:dt=""r8"">1.95314828942843E+15</Timestamp><Current dt:dt=""r8"">0</Current><DateUtc dt:dt=""string"">2014-05-15T20:36:03Z</DateUtc></FrequencyChange></FrequencyChanges></Clock>\n",60.03,1,-422057317,0,,-999999,4,87036,t,58037,145073,5/15/2014,13:36:03,8:36:03 PM,2,Session2,SessionsList,0,,-999999,1,784604,t,36474,821078,771644,2,1,2,3,,,,,3,1,3,,,,NonCued2,MiniBlocks1,,1132431,,,4,0,r,0,6,1185104,,0,0,Green,Congruent,r,White,0,,0,9,1180107,,0,0,,,,,,,,,,,,,Pictures\white.bmp,4000,16000,Pictures\GreenLeft.bmp,,,,4,1,4,,,,,,,StimulusPr,Pictures\black.bmp,NonCuedStim2,Left
POP_2,16065,1,"<?xml version=""1.0""?>\n<Clock xmlns:dt=""urn:schemas-microsoft-com:datatypes""><Description dt:dt=""string"">E-Prime Primary Realtime Clock</Description><StartTime><Timestamp dt:dt=""int"">0</Timestamp><DateUtc dt:dt=""string"">2014-05-15T20:36:03Z</DateUtc></StartTime><FrequencyChanges><FrequencyChange><Frequency dt:dt=""r8"">2793030000</Frequency><Timestamp dt:dt=""r8"">1.95314828942843E+15</Timestamp><Current dt:dt=""r8"">0</Current><DateUtc dt:dt=""string"">2014-05-15T20:36:03Z</DateUtc></FrequencyChange></FrequencyChanges></Clock>\n",60.03,1,-422057317,0,,-999999,4,87036,t,58037,145073,5/15/2014,13:36:03,8:36:03 PM,2,Session2,SessionsList,0,,-999999,1,784604,t,36474,821078,771644,2,1,2,3,,,,,3,1,3,,,,NonCued2,MiniBlocks1,,1132431,,,5,1,r,-999999,9,1213107,r,553,1213660,Green,Congruent,r,White,0,,0,13,1206111,,0,0,,,,,,,,,,,,,Pictures\white.bmp,6000,4000,Pictures\GreenLeft.bmp,,,,5,1,5,,,,,,,StimulusPr,Pictures\black.bmp,NonCuedStim2,Left
POP_2,16065,1,"<?xml version=""1.0""?>\n<Clock xmlns:dt=""urn:schemas-microsoft-com:datatypes""><Description dt:dt=""string"">E-Prime Primary Realtime Clock</Description><StartTime><Timestamp dt:dt=""int"">0</Timestamp><DateUtc dt:dt=""string"">2014-05-15T20:36:03Z</DateUtc></StartTime><FrequencyChanges><FrequencyChange><Frequency dt:dt=""r8"">2793030000</Frequency><Timestamp dt:dt=""r8"">1.95314828942843E+15</Timestamp><Current dt:dt=""r8"">0</Current><DateUtc dt:dt=""string"">2014-05-15T20:36:03Z</DateUtc></FrequencyChange></FrequencyChanges></Clock>\n",60.03,1,-422057317,0,,-999999,4,87036,t,58037,145073,5/15/2014,13:36:03,8:36:03 PM,2,Session2,SessionsList,0,,-999999,1,784604,t,36474,821078,771644,2,1,2,3,,,,,3,1,3,,,,NonCued2,MiniBlocks1,,1132431,,,6,1,b,-999999,3,1223102,b,558,1223660,Red,Incongruent,b,White,0,,0,6,1219104,,0,0,,,,,,,,,,,,,Pictures\white.bmp,3000,4000,Pictures\RedLeft.bmp,,,,6,1,6,,,,,,,StimulusPr,Pictures\black.bmp,NonCuedStim2,Left
POP_2,16065,1,"<?xml version=""1.0""?>\n<Clock xmlns:dt=""urn:schemas-microsoft-com:datatypes""><Description dt:dt=""string"">E-Prime Primary Realtime Clock</Description><StartTime><Timestamp dt:dt=""int"">0</Timestamp><DateUtc dt:dt=""string"">2014-05-15T20:36:03Z</DateUtc></StartTime><FrequencyChanges><FrequencyChange><Frequency dt:dt=""r8"">2793030000</Frequency><Timestamp dt:dt=""r8"">1.95314828942843E+15</Timestamp><Current dt:dt=""r8"">0</Current><DateUtc dt:dt=""string"">2014-05-15T20:36:03Z</DateUtc></FrequencyChange></FrequencyChanges></Clock>\n",60.03,1,-422057317,0,,-999999,4,87036,t,58037,145073,5/15/2014,13:36:03,8:36:03 PM,2,Session2,SessionsList,0,,-999999,1,784604,t,36474,821078,771644,2,1,2,3,,,,,3,1,3,,,,NonCued2,MiniBlocks1,,1132431,,,7,1,b,-999999,14,1234113,b,852,1234965,Green,Congruent,b,White,0,,0,2,1229100,,0,0,,,,,,,,,,,,,Pictures\white.bmp,4000,16000,Pictures\black.bmp,,,,7,1,7,,,,,,,StimulusPr,Pictures\GreenRight.bmp,NonCuedStim2,Right
POP_2,16065,1,"<?xml version=""1.0""?>\n<Clock xmlns:dt=""urn:schemas-microsoft-com:datatypes""><Description dt:dt=""string"">E-Prime Primary Realtime Clock</Description><StartTime><Timestamp dt:dt=""int"">0</Timestamp><DateUtc dt:dt=""string"">2014-05-15T20:36:03Z</DateUtc></StartTime><FrequencyChanges><FrequencyChange><Frequency dt:dt=""r8"">2793030000</Frequency><Timestamp dt:dt=""r8"">1.95314828942843E+15</Timestamp><Current dt:dt=""r8"">0</Current><DateUtc dt:dt=""string"">2014-05-15T20:36:03Z</DateUtc></FrequencyChange></FrequencyChanges></Clock>\n",60.03,1,-422057317,0,,-999999,4,87036,t,58037,145073,5/15/2014,13:36:03,8:36:03 PM,2,Session2,SessionsList,0,,-999999,1,784604,t,36474,821078,771644,2,1,2,3,,,,,3,1,3,,,,NonCued2,MiniBlocks1,,1132431,,,8,0,r,0,16,1262099,,0,0,Green,Congruent,r,White,0,,0,10,1252104,,0,0,,,,,,,,,,,,,Pictures\white.bmp,9000,2000,Pictures\GreenLeft.bmp,,,,8,1,8,,,,,,,StimulusPr,Pictures\black.bmp,NonCuedStim2,Left
POP_2,16065,1,"<?xml version=""1.0""?>\n<Clock xmlns:dt=""urn:schemas-microsoft-com:datatypes""><Description dt:dt=""string"">E-Prime Primary Realtime Clock</Description><StartTime><Timestamp dt:dt=""int"">0</Timestamp><DateUtc dt:dt=""string"">2014-05-15T20:36:03Z</DateUtc></StartTime><FrequencyChanges><FrequencyChange><Frequency dt:dt=""r8"">2793030000</Frequency><Timestamp dt:dt=""r8"">1.95314828942843E+15</Timestamp><Current dt:dt=""r8"">0</Current><DateUtc dt:dt=""string"">2014-05-15T20:36:03Z</DateUtc></FrequencyChange></FrequencyChanges></Clock>\n",60.03,1,-422057317,0,,-999999,4,87036,t,58037,145073,5/15/2014,13:36:03,8:36:03 PM,2,Session2,SessionsList,0,,-999999,1,784604,t,36474,821078,771644,2,1,2,3,,,,,3,1,3,,,,NonCued2,MiniBlocks1,,1132431,,,9,1,b,-999999,15,1273111,b,509,1273620,Green,Congruent,b,White,0,,0,9,1269096,,0,0,,,,,,,,,,,,,Pictures\white.bmp,3000,10000,Pictures\black.bmp,,,,9,1,9,,,,,,,StimulusPr,Pictures\GreenRight.bmp,NonCuedStim2,Right
POP_2,16065,1,"<?xml version=""1.0""?>\n<Clock xmlns:dt=""urn:schemas-microsoft-com:datatypes""><Description dt:dt=""string"">E-Prime Primary Realtime Clock</Description><StartTime><Timestamp dt:dt=""int"">0</Timestamp><DateUtc dt:dt=""string"">2014-05-15T20:36:03Z</DateUtc></StartTime><FrequencyChanges><FrequencyChange><Frequency dt:dt=""r8"">2793030000</Frequency><Timestamp dt:dt=""r8"">1.95314828942843E+15</Timestamp><Current dt:dt=""r8"">0</Current><DateUtc dt:dt=""string"">2014-05-15T20:36:03Z</DateUtc></FrequencyChange></FrequencyChanges></Clock>\n",60.03,1,-422057317,0,,-999999,4,87036,t,58037,145073,5/15/2014,13:36:03,8:36:03 PM,2,Session2,SessionsList,0,,-999999,1,784604,t,36474,821078,771644,2,1,2,3,,,,,3,1,3,,,,NonCued2,MiniBlocks1,,1132431,,,10,1,b,-999999,7,1289086,b,478,1289564,Green,Congruent,b,White,0,,0,7,1285105,,0,0,,,,,,,,,,,,,Pictures\white.bmp,3000,2000,Pictures\black.bmp,,,,10,1,10,,,,,,,StimulusPr,Pictures\GreenRight.bmp,NonCuedStim2,Right
POP_2,16065,1,"<?xml version=""1.0""?>\n<Clock xmlns:dt=""urn:schemas-microsoft-com:datatypes""><Description dt:dt=""string"">E-Prime Primary Realtime Clock</Description><StartTime><Timestamp dt:dt=""int"">0</Timestamp><DateUtc dt:dt=""string"">2014-05-15T20:36:03Z</DateUtc></StartTime><FrequencyChanges><FrequencyChange><Frequency dt:dt=""r8"">2793030000</Frequency><Timestamp dt:dt=""r8"">1.95314828942843E+15</Timestamp><Current dt:dt=""r8"">0</Current><DateUtc dt:dt=""string"">2014-05-15T20:36:03Z</DateUtc></FrequencyChange></FrequencyChanges></Clock>\n",60.03,1,-422057317,0,,-999999,4,87036,t,58037,145073,5/15/2014,13:36:03,8:36:03 PM,2,Session2,SessionsList,0,,-999999,1,784604,t,36474,821078,771644,2,1,2,4,,1291585,,,4,1,4,,,,Cued2,MiniBlocks1,,,,,1,1,b,-999999,18,1309109,b,334,1309443,White,Congruent,b,Green,0,,0,11,1302096,,0,0,,,,1,1,1,,,,,,,Pictures\green.bmp,6000,4000,Pictures\black.bmp,,,,,,,,,,,,,StimulusPr,Pictures\right.bmp,CuedStim2,Right
POP_2,16065,1,"<?xml version=""1.0""?>\n<Clock xmlns:dt=""urn:schemas-microsoft-com:datatypes""><Description dt:dt=""string"">E-Prime Primary Realtime Clock</Description><StartTime><Timestamp dt:dt=""int"">0</Timestamp><DateUtc dt:dt=""string"">2014-05-15T20:36:03Z</DateUtc></StartTime><FrequencyChanges><FrequencyChange><Frequency dt:dt=""r8"">2793030000</Frequency><Timestamp dt:dt=""r8"">1.95314828942843E+15</Timestamp><Current dt:dt=""r8"">0</Current><DateUtc dt:dt=""string"">2014-05-15T20:36:03Z</DateUtc></FrequencyChange></FrequencyChanges></Clock>\n",60.03,1,-422057317,0,,-999999,4,87036,t,58037,145073,5/15/2014,13:36:03,8:36:03 PM,2,Session2,SessionsList,0,,-999999,1,784604,t,36474,821078,771644,2,1,2,4,,1291585,,,4,1,4,,,,Cued2,MiniBlocks1,,,,,2,1,b,-999999,4,1325101,b,466,1325567,White,Congruent,b,Green,0,,0,16,1315106,,0,0,,,,2,1,2,,,,,,,Pictures\green.bmp,9000,10000,Pictures\black.bmp,,,,,,,,,,,,,StimulusPr,Pictures\right.bmp,CuedStim2,Right
POP_2,16065,1,"<?xml version=""1.0""?>\n<Clock xmlns:dt=""urn:schemas-microsoft-com:datatypes""><Description dt:dt=""string"">E-Prime Primary Realtime Clock</Description><StartTime><Timestamp dt:dt=""int"">0</Timestamp><DateUtc dt:dt=""string"">2014-05-15T20:36:03Z</DateUtc></StartTime><FrequencyChanges><FrequencyChange><Frequency dt:dt=""r8"">2793030000</Frequency><Timestamp dt:dt=""r8"">1.95314828942843E+15</Timestamp><Current dt:dt=""r8"">0</Current><DateUtc dt:dt=""string"">2014-05-15T20:36:03Z</DateUtc></FrequencyChange></FrequencyChanges></Clock>\n",60.03,1,-422057317,0,,-999999,4,87036,t,58037,145073,5/15/2014,13:36:03,8:36:03 PM,2,Session2,SessionsList,0,,-999999,1,784604,t,36474,821078,771644,2,1,2,4,,1291585,,,4,1,4,,,,Cued2,MiniBlocks1,,,,,3,1,r,-999999,11,1341110,r,458,1341568,White,Incongruent,r,Red,0,,0,7,1337095,,0,0,,,,3,1,3,,,,,,,Pictures\red.bmp,3000,2000,Pictures\black.bmp,,,,,,,,,,,,,StimulusPr,Pictures\right.bmp,CuedStim2,Right
POP_2,16065,1,"<?xml version=""1.0""?>\n<Clock xmlns:dt=""urn:schemas-microsoft-com:datatypes""><Description dt:dt=""string"">E-Prime Primary Realtime Clock</Description><StartTime><Timestamp dt:dt=""int"">0</Timestamp><DateUtc dt:dt=""string"">2014-05-15T20:36:03Z</DateUtc></StartTime><FrequencyChanges><FrequencyChange><Frequency dt:dt=""r8"">2793030000</Frequency><Timestamp dt:dt=""r8"">1.95314828942843E+15</Timestamp><Current dt:dt=""r8"">0</Current><DateUtc dt:dt=""string"">2014-05-15T20:36:03Z</DateUtc></FrequencyChange></FrequencyChanges></Clock>\n",60.03,1,-422057317,0,,-999999,4,87036,t,58037,145073,5/15/2014,13:36:03,8:36:03 PM,2,Session2,SessionsList,0,,-999999,1,784604,t,36474,821078,771644,2,1,2,4,,1291585,,,4,1,4,,,,Cued2,MiniBlocks1,,,,,4,1,r,-999999,6,1352104,r,733,1352837,White,Congruent,r,Green,0,,0,15,1345108,,0,0,,,,4,1,4,,,,,,,Pictures\green.bmp,6000,16000,Pictures\left.bmp,,,,,,,,,,,,,StimulusPr,Pictures\black.bmp,CuedStim2,Left
POP_2,16065,1,"<?xml version=""1.0""?>\n<Clock xmlns:dt=""urn:schemas-microsoft-com:datatypes""><Description dt:dt=""string"">E-Prime Primary Realtime Clock</Description><StartTime><Timestamp dt:dt=""int"">0</Timestamp><DateUtc dt:dt=""string"">2014-05-15T20:36:03Z</DateUtc></StartTime><FrequencyChanges><FrequencyChange><Frequency dt:dt=""r8"">2793030000</Frequency><Timestamp dt:dt=""r8"">1.95314828942843E+15</Timestamp><Current dt:dt=""r8"">0</Current><DateUtc dt:dt=""string"">2014-05-15T20:36:03Z</DateUtc></FrequencyChange></FrequencyChanges></Clock>\n",60.03,1,-422057317,0,,-999999,4,87036,t,58037,145073,5/15/2014,13:36:03,8:36:03 PM,2,Session2,SessionsList,0,,-999999,1,784604,t,36474,821078,771644,2,1,2,4,,1291585,,,4,1,4,,,,Cued2,MiniBlocks1,,,,,5,1,b,-999999,12,1374110,b,584,1374694,White,Congruent,b,Green,0,,0,15,1370095,,0,0,,,,5,1,5,,,,,,,Pictures\green.bmp,3000,2000,Pictures\black.bmp,,,,,,,,,,,,,StimulusPr,Pictures\right.bmp,CuedStim2,Right
POP_2,16065,1,"<?xml version=""1.0""?>\n<Clock xmlns:dt=""urn:schemas-microsoft-com:datatypes""><Description dt:dt=""string"">E-Prime Primary Realtime Clock</Description><StartTime><Timestamp dt:dt=""int"">0</Timestamp><DateUtc dt:dt=""string"">2014-05-15T20:36:03Z</DateUtc></StartTime><FrequencyChanges><FrequencyChange><Frequency dt:dt=""r8"">2793030000</Frequency><Timestamp dt:dt=""r8"">1.95314828942843E+15</Timestamp><Current dt:dt=""r8"">0</Current><DateUtc dt:dt=""string"">2014-05-15T20:36:03Z</DateUtc></FrequencyChange></FrequencyChanges></Clock>\n",60.03,1,-422057317,0,,-999999,4,87036,t,58037,145073,5/15/2014,13:36:03,8:36:03 PM,2,Session2,SessionsList,0,,-999999,1,784604,t,36474,821078,771644,2,1,2,4,,1291585,,,4,1,4,,,,Cued2,MiniBlocks1,,,,,6,1,r,-999999,12,1382106,r,571,1382677,White,Congruent,r,Green,0,,0,13,1378091,,0,0,,,,6,1,6,,,,,,,Pictures\green.bmp,3000,2000,Pictures\left.bmp,,,,,,,,,,,,,StimulusPr,Pictures\black.bmp,CuedStim2,Left
POP_2,16065,1,"<?xml version=""1.0""?>\n<Clock xmlns:dt=""urn:schemas-microsoft-com:datatypes""><Description dt:dt=""string"">E-Prime Primary Realtime Clock</Description><StartTime><Timestamp dt:dt=""int"">0</Timestamp><DateUtc dt:dt=""string"">2014-05-15T20:36:03Z</DateUtc></StartTime><FrequencyChanges><FrequencyChange><Frequency dt:dt=""r8"">2793030000</Frequency><Timestamp dt:dt=""r8"">1.95314828942843E+15</Timestamp><Current dt:dt=""r8"">0</Current><DateUtc dt:dt=""string"">2014-05-15T20:36:03Z</DateUtc></FrequencyChange></FrequencyChanges></Clock>\n",60.03,1,-422057317,0,,-999999,4,87036,t,58037,145073,5/15/2014,13:36:03,8:36:03 PM,2,Session2,SessionsList,0,,-999999,1,784604,t,36474,821078,771644,2,1,2,4,,1291585,,,4,1,4,,,,Cued2,MiniBlocks1,,,,,7,1,b,-999999,3,1393101,b,418,1393519,White,Incongruent,b,Red,0,,0,6,1386104,,0,0,,,,7,1,7,,,,,,,Pictures\red.bmp,6000,4000,Pictures\left.bmp,,,,,,,,,,,,,StimulusPr,Pictures\black.bmp,CuedStim2,Left
POP_2,16065,1,"<?xml version=""1.0""?>\n<Clock xmlns:dt=""urn:schemas-microsoft-com:datatypes""><Description dt:dt=""string"">E-Prime Primary Realtime Clock</Description><StartTime><Timestamp dt:dt=""int"">0</Timestamp><DateUtc dt:dt=""string"">2014-05-15T20:36:03Z</DateUtc></StartTime><FrequencyChanges><FrequencyChange><Frequency dt:dt=""r8"">2793030000</Frequency><Timestamp dt:dt=""r8"">1.95314828942843E+15</Timestamp><Current dt:dt=""r8"">0</Current><DateUtc dt:dt=""string"">2014-05-15T20:36:03Z</DateUtc></FrequencyChange></FrequencyChanges></Clock>\n",60.03,1,-422057317,0,,-999999,4,87036,t,58037,145073,5/15/2014,13:36:03,8:36:03 PM,2,Session2,SessionsList,0,,-999999,1,784604,t,36474,821078,771644,2,1,2,4,,1291585,,,4,1,4,,,,Cued2,MiniBlocks1,,,,,8,1,b,-999999,13,1404112,b,381,1404493,White,Congruent,b,Green,0,,0,15,1399114,,0,0,,,,8,1,8,,,,,,,Pictures\green.bmp,4000,4000,Pictures\black.bmp,,,,,,,,,,,,,StimulusPr,Pictures\right.bmp,CuedStim2,Right
POP_2,16065,1,"<?xml version=""1.0""?>\n<Clock xmlns:dt=""urn:schemas-microsoft-com:datatypes""><Description dt:dt=""string"">E-Prime Primary Realtime Clock</Description><StartTime><Timestamp dt:dt=""int"">0</Timestamp><DateUtc dt:dt=""string"">2014-05-15T20:36:03Z</DateUtc></StartTime><FrequencyChanges><FrequencyChange><Frequency dt:dt=""r8"">2793030000</Frequency><Timestamp dt:dt=""r8"">1.95314828942843E+15</Timestamp><Current dt:dt=""r8"">0</Current><DateUtc dt:dt=""string"">2014-05-15T20:36:03Z</DateUtc></FrequencyChange></FrequencyChanges></Clock>\n",60.03,1,-422057317,0,,-999999,4,87036,t,58037,145073,5/15/2014,13:36:03,8:36:03 PM,2,Session2,SessionsList,0,,-999999,1,784604,t,36474,821078,771644,2,1,2,4,,1291585,,,4,1,4,,,,Cued2,MiniBlocks1,,,,,9,1,b,-999999,7,1420087,b,998,1421085,White,Incongruent,b,Red,0,,0,11,1410092,,0,0,,,,9,1,9,,,,,,,Pictures\red.bmp,9000,10000,Pictures\left.bmp,,,,,,,,,,,,,StimulusPr,Pictures\black.bmp,CuedStim2,Left
POP_2,16065,1,"<?xml version=""1.0""?>\n<Clock xmlns:dt=""urn:schemas-microsoft-com:datatypes""><Description dt:dt=""string"">E-Prime Primary Realtime Clock</Description><StartTime><Timestamp dt:dt=""int"">0</Timestamp><DateUtc dt:dt=""string"">2014-05-15T20:36:03Z</DateUtc></StartTime><FrequencyChanges><FrequencyChange><Frequency dt:dt=""r8"">2793030000</Frequency><Timestamp dt:dt=""r8"">1.95314828942843E+15</Timestamp><Current dt:dt=""r8"">0</Current><DateUtc dt:dt=""string"">2014-05-15T20:36:03Z</DateUtc></FrequencyChange></FrequencyChanges></Clock>\n",60.03,1,-422057317,0,,-999999,4,87036,t,58037,145073,5/15/2014,13:36:03,8:36:03 PM,2,Session2,SessionsList,0,,-999999,1,784604,t,36474,821078,771644,2,1,2,4,,1291585,,,4,1,4,,,,Cued2,MiniBlocks1,,,,,10,1,r,-999999,9,1443092,r,587,1443679,White,Congruent,r,Green,0,,0,15,1433114,,0,0,,,,10,1,10,,,,,,,Pictures\green.bmp,9000,10000,Pictures\left.bmp,,,,,,,,,,,,,StimulusPr,Pictures\black.bmp,CuedStim2,Left
