ExperimentName,Subject,Session,Clock.Information,Display.RefreshRate,Group,RandomSeed,Session1Onset.ACC,Session1Onset.CRESP,Session1Onset.DurationError,Session1Onset.OnsetDelay,Session1Onset.OnsetTime,Session1Onset.RESP,Session1Onset.RT,Session1Onset.RTTime,SessionDate,SessionTime,SessionTimeUtc,Block,Procedure[Block],Running[Block],Session2Onset.ACC,Session2Onset.CRESP,Session2Onset.DurationError,Session2Onset.OnsetDelay,Session2Onset.OnsetTime,Session2Onset.RESP,Session2Onset.RT,Session2Onset.RTTime,SessionBreak.OnsetTime,SessionsList,SessionsList.Cycle,SessionsList.Sample,Trial,CuedPrompt1.OnsetTime,CuedPrompt2.OnsetTime,CuedPrompt3.OnsetTime,CuedPrompt4.OnsetTime,MiniBlocks1,MiniBlocks1.Cycle,MiniBlocks1.Sample,MiniBlocks2,MiniBlocks2.Cycle,MiniBlocks2.Sample,Procedure[Trial],Running[Trial],UncuedPrompt1.OnsetTime,UncuedPrompt2.OnsetTime,UncuedPrompt3.OnsetTime,UncuedPrompt4.OnsetTime,SubTrial,Arrow1.ACC,Arrow1.CRESP,Arrow1.DurationError,Arrow1.OnsetDelay,Arrow1.OnsetTime,Arrow1.RESP,Arrow1.RT,Arrow1.RTTime,ArrowColor,Congruence,CorrectResp,Cue,Cue.ACC,Cue.CRESP,Cue.DurationError,Cue.OnsetDelay,Cue.OnsetTime,Cue.RESP,Cue.RT,Cue.RTTime,CuedStim1,CuedStim1.Cycle,CuedStim1.Sample,CuedStim2,CuedStim2.Cycle,CuedStim2.Sample,CuedStim3,CuedStim3.Cycle,CuedStim3.Sample,CuedStim4,CuedStim4.Cycle,CuedStim4.Sample,CueImage,JitterCue,JitterTrial,LeftImage,NonCuedStim1,NonCuedStim1.Cycle,NonCuedStim1.Sample,NonCuedStim2,NonCuedStim2.Cycle,NonCuedStim2.Sample,NonCuedStim3,NonCuedStim3.Cycle,NonCuedStim3.Sample,NonCuedStim4,NonCuedStim4.Cycle,NonCuedStim4.Sample,Procedure[SubTrial],RightImage,Running[SubTrial],Stimulus
POP_2,16050,1,"<?xml version=""1.0""?>\n<Clock xmlns:dt=""urn:schemas-microsoft-com:datatypes""><Description dt:dt=""string"">E-Prime Primary Realtime Clock</Description><StartTime><Timestamp dt:dt=""int"">0</Timestamp><DateUtc dt:dt=""string"">2014-05-07T20:45:48Z</DateUtc></StartTime><FrequencyChanges><FrequencyChange><Frequency dt:dt=""r8"">2793030000</Frequency><Timestamp dt:dt=""r8"">24082202784229</Timestamp><Current dt:dt=""r8"">0</Current><DateUtc dt:dt=""string"">2014-05-07T20:45:48Z</DateUtc></FrequencyChange></FrequencyChanges></Clock>\n",60.032,1,864441538,0,,-999999,7,45088,t,65100,110188,5/7/2014,13:45:49,8:45:49 PM,1,Session1,SessionsList,,,,,,,,,,1,1,1,1,110222,,,,1,1,1,,,,Cued1,MiniBlocks1,,,,,1,1,r,-999999,143,124332,r,409,124741,White,Congruent,r,Green,0,,0,111,119301,,0,0,1,1,1,,,,,,,,,,Pictures\green.bmp,4000,4000,Pictures\left.bmp,,,,,,,,,,,,,StimulusPr,Pictures\black.bmp,CuedStim1,Left
POP_2,16050,1,"<?xml version=""1.0""?>\n<Clock xmlns:dt=""urn:schemas-microsoft-com:datatypes""><Description dt:dt=""string"">E-Prime Primary Realtime Clock</Description><StartTime><Timestamp dt:dt=""int"">0</Timestamp><DateUtc dt:dt=""string"">2014-05-07T20:45:48Z</DateUtc></StartTime><FrequencyChanges><FrequencyChange><Frequency dt:dt=""r8"">2793030000</Frequency><Timestamp dt:dt=""r8"">24082202784229</Timestamp><Current dt:dt=""r8"">0</Current><DateUtc dt:dt=""string"">2014-05-07T20:45:48Z</DateUtc></FrequencyChange></FrequencyChanges></Clock>\n",60.032,1,864441538,0,,-999999,7,45088,t,65100,110188,5/7/2014,13:45:49,8:45:49 PM,1,Session1,SessionsList,,,,,,,,,,1,1,1,1,110222,,,,1,1,1,,,,Cued1,MiniBlocks1,,,,,2,1,b,-999999,78,137276,b,316,137592,White,Congruent,b,Green,0,,0,9,130196,,0,0,2,1,2,,,,,,,,,,Pictures\green.bmp,6000,2000,Pictures\black.bmp,,,,,,,,,,,,,StimulusPr,Pictures\right.bmp,CuedStim1,Right
POP_2,16050,1,"<?xml version=""1.0""?>\n<Clock xmlns:dt=""urn:schemas-microsoft-com:datatypes""><Description dt:dt=""string"">E-Prime Primary Realtime Clock</Description><StartTime><Timestamp dt:dt=""int"">0</Timestamp><DateUtc dt:dt=""string"">2014-05-07T20:45:48Z</DateUtc></StartTime><FrequencyChanges><FrequencyChange><Frequency dt:dt=""r8"">2793030000</Frequency><Timestamp dt:dt=""r8"">24082202784229</Timestamp><Current dt:dt=""r8"">0</Current><DateUtc dt:dt=""string"">2014-05-07T20:45:48Z</DateUtc></FrequencyChange></FrequencyChanges></Clock>\n",60.032,1,864441538,0,,-999999,7,45088,t,65100,110188,5/7/2014,13:45:49,8:45:49 PM,1,Session1,SessionsList,,,,,,,,,,1,1,1,1,110222,,,,1,1,1,,,,Cued1,MiniBlocks1,,,,,3,1,b,-999999,4,145188,b,382,145570,White,Congruent,b,Green,0,,0,14,141207,,0,0,3,1,3,,,,,,,,,,Pictures\green.bmp,3000,2000,Pictures\black.bmp,,,,,,,,,,,,,StimulusPr,Pictures\right.bmp,CuedStim1,Right
POP_2,16050,1,"<?xml version=""1.0""?>\n<Clock xmlns:dt=""urn:schemas-microsoft-com:datatypes""><Description dt:dt=""string"">E-Prime Primary Realtime Clock</Description><StartTime><Timestamp dt:dt=""int"">0</Timestamp><DateUtc dt:dt=""string"">2014-05-07T20:45:48Z</DateUtc></StartTime><FrequencyChanges><FrequencyChange><Frequency dt:dt=""r8"">2793030000</Frequency><Timestamp dt:dt=""r8"">24082202784229</Timestamp><Current dt:dt=""r8"">0</Current><DateUtc dt:dt=""string"">2014-05-07T20:45:48Z</DateUtc></FrequencyChange></FrequencyChanges></Clock>\n",60.032,1,864441538,0,,-999999,7,45088,t,65100,110188,5/7/2014,13:45:49,8:45:49 PM,1,Session1,SessionsList,,,,,,,,,,1,1,1,1,110222,,,,1,1,1,,,,Cued1,MiniBlocks1,,,,,4,1,b,-999999,12,153201,b,508,153709,White,Incongruent,b,Red,0,,0,84,149270,,0,0,4,1,4,,,,,,,,,,Pictures\red.bmp,3000,16000,Pictures\left.bmp,,,,,,,,,,,,,StimulusPr,Pictures\black.bmp,CuedStim1,Left
POP_2,16050,1,"<?xml version=""1.0""?>\n<Clock xmlns:dt=""urn:schemas-microsoft-com:datatypes""><Description dt:dt=""string"">E-Prime Primary Realtime Clock</Description><StartTime><Timestamp dt:dt=""int"">0</Timestamp><DateUtc dt:dt=""string"">2014-05-07T20:45:48Z</DateUtc></StartTime><FrequencyChanges><FrequencyChange><Frequency dt:dt=""r8"">2793030000</Frequency><Timestamp dt:dt=""r8"">24082202784229</Timestamp><Current dt:dt=""r8"">0</Current><DateUtc dt:dt=""string"">2014-05-07T20:45:48Z</DateUtc></FrequencyChange></FrequencyChanges></Clock>\n",60.032,1,864441538,0,,-999999,7,45088,t,65100,110188,5/7/2014,13:45:49,8:45:49 PM,1,Session1,SessionsList,,,,,,,,,,1,1,1,1,110222,,,,1,1,1,,,,Cued1,MiniBlocks1,,,,,5,1,r,-999999,4,175207,r,349,175556,White,Congruent,r,Green,0,,0,6,171209,,0,0,5,1,5,,,,,,,,,,Pictures\green.bmp,3000,16000,Pictures\left.bmp,,,,,,,,,,,,,StimulusPr,Pictures\black.bmp,CuedStim1,Left
POP_2,16050,1,"<?xml version=""1.0""?>\n<Clock xmlns:dt=""urn:schemas-microsoft-com:datatypes""><Description dt:dt=""string"">E-Prime Primary Realtime Clock</Description><StartTime><Timestamp dt:dt=""int"">0</Timestamp><DateUtc dt:dt=""string"">2014-05-07T20:45:48Z</DateUtc></StartTime><FrequencyChanges><FrequencyChange><Frequency dt:dt=""r8"">2793030000</Frequency><Timestamp dt:dt=""r8"">24082202784229</Timestamp><Current dt:dt=""r8"">0</Current><DateUtc dt:dt=""string"">2014-05-07T20:45:48Z</DateUtc></FrequencyChange></FrequencyChanges></Clock>\n",60.032,1,864441538,0,,-999999,7,45088,t,65100,110188,5/7/2014,13:45:49,8:45:49 PM,1,Session1,SessionsList,,,,,,,,,,1,1,1,1,110222,,,,1,1,1,,,,Cued1,MiniBlocks1,,,,,6,1,r,-999999,6,203209,r,432,203641,White,Congruent,r,Green,0,,0,6,193198,,0,0,6,1,6,,,,,,,,,,Pictures\green.bmp,9000,10000,Pictures\left.bmp,,,,,,,,,,,,,StimulusPr,Pictures\black.bmp,CuedStim1,Left
POP_2,16050,1,"<?xml version=""1.0""?>\n<Clock xmlns:dt=""urn:schemas-microsoft-com:datatypes""><Description dt:dt=""string"">E-Prime Primary Realtime Clock</Description><StartTime><Timestamp dt:dt=""int"">0</Timestamp><DateUtc dt:dt=""string"">2014-05-07T20:45:48Z</DateUtc></StartTime><FrequencyChanges><FrequencyChange><Frequency dt:dt=""r8"">2793030000</Frequency><Timestamp dt:dt=""r8"">24082202784229</Timestamp><Current dt:dt=""r8"">0</Current><DateUtc dt:dt=""string"">2014-05-07T20:45:48Z</DateUtc></FrequencyChange></FrequencyChanges></Clock>\n",60.032,1,864441538,0,,-999999,7,45088,t,65100,110188,5/7/2014,13:45:49,8:45:49 PM,1,Session1,SessionsList,,,,,,,,,,1,1,1,1,110222,,,,1,1,1,,,,Cued1,MiniBlocks1,,,,,7,1,b,-999999,16,219218,b,380,219598,White,Congruent,b,Green,0,,0,18,215220,,0,0,7,1,7,,,,,,,,,,Pictures\green.bmp,3000,16000,Pictures\black.bmp,,,,,,,,,,,,,StimulusPr,Pictures\right.bmp,CuedStim1,Right
POP_2,16050,1,"<?xml version=""1.0""?>\n<Clock xmlns:dt=""urn:schemas-microsoft-com:datatypes""><Description dt:dt=""string"">E-Prime Primary Realtime Clock</Description><StartTime><Timestamp dt:dt=""int"">0</Timestamp><DateUtc dt:dt=""string"">2014-05-07T20:45:48Z</DateUtc></StartTime><FrequencyChanges><FrequencyChange><Frequency dt:dt=""r8"">2793030000</Frequency><Timestamp dt:dt=""r8"">24082202784229</Timestamp><Current dt:dt=""r8"">0</Current><DateUtc dt:dt=""string"">2014-05-07T20:45:48Z</DateUtc></FrequencyChange></FrequencyChanges></Clock>\n",60.032,1,864441538,0,,-999999,7,45088,t,65100,110188,5/7/2014,13:45:49,8:45:49 PM,1,Session1,SessionsList,,,,,,,,,,1,1,1,1,110222,,,,1,1,1,,,,Cued1,MiniBlocks1,,,,,8,1,r,-999999,4,242206,r,430,242636,White,Incongruent,r,Red,0,,0,8,237192,,0,0,8,1,8,,,,,,,,,,Pictures\red.bmp,4000,2000,Pictures\black.bmp,,,,,,,,,,,,,StimulusPr,Pictures\right.bmp,CuedStim1,Right
POP_2,16050,1,"<?xml version=""1.0""?>\n<Clock xmlns:dt=""urn:schemas-microsoft-com:datatypes""><Description dt:dt=""string"">E-Prime Primary Realtime Clock</Description><StartTime><Timestamp dt:dt=""int"">0</Timestamp><DateUtc dt:dt=""string"">2014-05-07T20:45:48Z</DateUtc></StartTime><FrequencyChanges><FrequencyChange><Frequency dt:dt=""r8"">2793030000</Frequency><Timestamp dt:dt=""r8"">24082202784229</Timestamp><Current dt:dt=""r8"">0</Current><DateUtc dt:dt=""string"">2014-05-07T20:45:48Z</DateUtc></FrequencyChange></FrequencyChanges></Clock>\n",60.032,1,864441538,0,,-999999,7,45088,t,65100,110188,5/7/2014,13:45:49,8:45:49 PM,1,Session1,SessionsList,,,,,,,,,,1,1,1,1,110222,,,,1,1,1,,,,Cued1,MiniBlocks1,,,,,9,1,b,-999999,17,251219,b,333,251552,White,Congruent,b,Green,0,,0,2,246204,,0,0,9,1,9,,,,,,,,,,Pictures\green.bmp,4000,2000,Pictures\black.bmp,,,,,,,,,,,,,StimulusPr,Pictures\right.bmp,CuedStim1,Right
POP_2,16050,1,"<?xml version=""1.0""?>\n<Clock xmlns:dt=""urn:schemas-microsoft-com:datatypes""><Description dt:dt=""string"">E-Prime Primary Realtime Clock</Description><StartTime><Timestamp dt:dt=""int"">0</Timestamp><DateUtc dt:dt=""string"">2014-05-07T20:45:48Z</DateUtc></StartTime><FrequencyChanges><FrequencyChange><Frequency dt:dt=""r8"">2793030000</Frequency><Timestamp dt:dt=""r8"">24082202784229</Timestamp><Current dt:dt=""r8"">0</Current><DateUtc dt:dt=""string"">2014-05-07T20:45:48Z</DateUtc></FrequencyChange></FrequencyChanges></Clock>\n",60.032,1,864441538,0,,-999999,7,45088,t,65100,110188,5/7/2014,13:45:49,8:45:49 PM,1,Session1,SessionsList,,,,,,,,,,1,1,1,1,110222,,,,1,1,1,,,,Cued1,MiniBlocks1,,,,,10,1,r,-999999,8,259198,r,300,259498,White,Congruent,r,Green,0,,0,15,255217,,0,0,10,1,10,,,,,,,,,,Pictures\green.bmp,3000,2000,Pictures\left.bmp,,,,,,,,,,,,,StimulusPr,Pictures\black.bmp,CuedStim1,Left
POP_2,16050,1,"<?xml version=""1.0""?>\n<Clock xmlns:dt=""urn:schemas-microsoft-com:datatypes""><Description dt:dt=""string"">E-Prime Primary Realtime Clock</Description><StartTime><Timestamp dt:dt=""int"">0</Timestamp><DateUtc dt:dt=""string"">2014-05-07T20:45:48Z</DateUtc></StartTime><FrequencyChanges><FrequencyChange><Frequency dt:dt=""r8"">2793030000</Frequency><Timestamp dt:dt=""r8"">24082202784229</Timestamp><Current dt:dt=""r8"">0</Current><DateUtc dt:dt=""string"">2014-05-07T20:45:48Z</DateUtc></FrequencyChange></FrequencyChanges></Clock>\n",60.032,1,864441538,0,,-999999,7,45088,t,65100,110188,5/7/2014,13:45:49,8:45:49 PM,1,Session1,SessionsList,,,,,,,,,,1,1,1,2,,,,,2,1,2,,,,NonCued1,MiniBlocks1,261530,,,,1,1,r,-999999,60,276256,r,383,276639,Green,Congruent,r,White,0,,0,65,271259,,0,0,,,,,,,,,,,,,Pictures\white.bmp,4000,2000,Pictures\GreenLeft.bmp,1,1,1,,,,,,,,,,StimulusPr,Pictures\black.bmp,NonCuedStim1,Left
POP_2,16050,1,"<?xml version=""1.0""?>\n<Clock xmlns:dt=""urn:schemas-microsoft-com:datatypes""><Description dt:dt=""string"">E-Prime Primary Realtime Clock</Description><StartTime><Timestamp dt:dt=""int"">0</Timestamp><DateUtc dt:dt=""string"">2014-05-07T20:45:48Z</DateUtc></StartTime><FrequencyChanges><FrequencyChange><Frequency dt:dt=""r8"">2793030000</Frequency><Timestamp dt:dt=""r8"">24082202784229</Timestamp><Current dt:dt=""r8"">0</Current><DateUtc dt:dt=""string"">2014-05-07T20:45:48Z</DateUtc></FrequencyChange></FrequencyChanges></Clock>\n",60.032,1,864441538,0,,-999999,7,45088,t,65100,110188,5/7/2014,13:45:49,8:45:49 PM,1,Session1,SessionsList,,,,,,,,,,1,1,1,2,,,,,2,1,2,,,,NonCued1,MiniBlocks1,261530,,,,2,1,b,-999999,73,287267,b,348,287615,Green,Congruent,b,White,0,,0,11,280204,,0,0,,,,,,,,,,,,,Pictures\white.bmp,6000,16000,Pictures\black.bmp,2,1,2,,,,,,,,,,StimulusPr,Pictures\GreenRight.bmp,NonCuedStim1,Right
POP_2,16050,1,"<?xml version=""1.0""?>\n<Clock xmlns:dt=""urn:schemas-microsoft-com:datatypes""><Description dt:dt=""string"">E-Prime Primary Realtime Clock</Description><StartTime><Timestamp dt:dt=""int"">0</Timestamp><DateUtc dt:dt=""string"">2014-05-07T20:45:48Z</DateUtc></StartTime><FrequencyChanges><FrequencyChange><Frequency dt:dt=""r8"">2793030000</Frequency><Timestamp dt:dt=""r8"">24082202784229</Timestamp><Current dt:dt=""r8"">0</Current><DateUtc dt:dt=""string"">2014-05-07T20:45:48Z</DateUtc></FrequencyChange></FrequencyChanges></Clock>\n",60.032,1,864441538,0,,-999999,7,45088,t,65100,110188,5/7/2014,13:45:49,8:45:49 PM,1,Session1,SessionsList,,,,,,,,,,1,1,1,2,,,,,2,1,2,,,,NonCued1,MiniBlocks1,261530,,,,3,1,r,-999999,35,312238,r,681,312919,Red,Incongruent,r,White,0,,0,5,305208,,0,0,,,,,,,,,,,,,Pictures\white.bmp,6000,10000,Pictures\black.bmp,3,1,3,,,,,,,,,,StimulusPr,Pictures\RedRight.bmp,NonCuedStim1,Right
POP_2,16050,1,"<?xml version=""1.0""?>\n<Clock xmlns:dt=""urn:schemas-microsoft-com:datatypes""><Description dt:dt=""string"">E-Prime Primary Realtime Clock</Description><StartTime><Timestamp dt:dt=""int"">0</Timestamp><DateUtc dt:dt=""string"">2014-05-07T20:45:48Z</DateUtc></StartTime><FrequencyChanges><FrequencyChange><Frequency dt:dt=""r8"">2793030000</Frequency><Timestamp dt:dt=""r8"">24082202784229</Timestamp><Current dt:dt=""r8"">0</Current><DateUtc dt:dt=""string"">2014-05-07T20:45:48Z</DateUtc></FrequencyChange></FrequencyChanges></Clock>\n",60.032,1,864441538,0,,-999999,7,45088,t,65100,110188,5/7/2014,13:45:49,8:45:49 PM,1,Session1,SessionsList,,,,,,,,,,1,1,1,2,,,,,2,1,2,,,,NonCued1,MiniBlocks1,261530,,,,4,1,r,-999999,9,334211,r,522,334733,Green,Congruent,r,White,0,,0,5,324199,,0,0,,,,,,,,,,,,,Pictures\white.bmp,9000,10000,Pictures\GreenLeft.bmp,4,1,4,,,,,,,,,,StimulusPr,Pictures\black.bmp,NonCuedStim1,Left
POP_2,16050,1,"<?xml version=""1.0""?>\n<Clock xmlns:dt=""urn:schemas-microsoft-com:datatypes""><Description dt:dt=""string"">E-Prime Primary Realtime Clock</Description><StartTime><Timestamp dt:dt=""int"">0</Timestamp><DateUtc dt:dt=""string"">2014-05-07T20:45:48Z</DateUtc></StartTime><FrequencyChanges><FrequencyChange><Frequency dt:dt=""r8"">2793030000</Frequency><Timestamp dt:dt=""r8"">24082202784229</Timestamp><Current dt:dt=""r8"">0</Current><DateUtc dt:dt=""string"">2014-05-07T20:45:48Z</DateUtc></FrequencyChange></FrequencyChanges></Clock>\n",60.032,1,864441538,0,,-999999,7,45088,t,65100,110188,5/7/2014,13:45:49,8:45:49 PM,1,Session1,SessionsList,,,,,,,,,,1,1,1,2,,,,,2,1,2,,,,NonCued1,MiniBlocks1,261530,,,,5,1,b,-999999,9,350203,b,382,350585,Green,Congruent,b,White,0,,0,2,346205,,0,0,,,,,,,,,,,,,Pictures\white.bmp,3000,2000,Pictures\black.bmp,5,1,5,,,,,,,,,,StimulusPr,Pictures\GreenRight.bmp,NonCuedStim1,Right
POP_2,16050,1,"<?xml version=""1.0""?>\n<Clock xmlns:dt=""urn:schemas-microsoft-com:datatypes""><Description dt:dt=""string"">E-Prime Primary Realtime Clock</Description><StartTime><Timestamp dt:dt=""int"">0</Timestamp><DateUtc dt:dt=""string"">2014-05-07T20:45:48Z</DateUtc></StartTime><FrequencyChanges><FrequencyChange><Frequency dt:dt=""r8"">2793030000</Frequency><Timestamp dt:dt=""r8"">24082202784229</Timestamp><Current dt:dt=""r8"">0</Current><DateUtc dt:dt=""string"">2014-05-07T20:45:48Z</DateUtc></FrequencyChange></FrequencyChanges></Clock>\n",60.032,1,864441538,0,,-999999,7,45088,t,65100,110188,5/7/2014,13:45:49,8:45:49 PM,1,Session1,SessionsList,,,,,,,,,,1,1,1,2,,,,,2,1,2,,,,NonCued1,MiniBlocks1,261530,,,,6,1,b,-999999,54,359248,b,409,359657,Red,Incongruent,b,White,0,,0,7,354201,,0,0,,,,,,,,,,,,,Pictures\white.bmp,4000,16000,Pictures\RedLeft.bmp,6,1,6,,,,,,,,,,StimulusPr,Pictures\black.bmp,NonCuedStim1,Left
POP_2,16050,1,"<?xml version=""1.0""?>\n<Clock xmlns:dt=""urn:schemas-microsoft-com:datatypes""><Description dt:dt=""string"">E-Prime Primary Realtime Clock</Description><StartTime><Timestamp dt:dt=""int"">0</Timestamp><DateUtc dt:dt=""string"">2014-05-07T20:45:48Z</DateUtc></StartTime><FrequencyChanges><FrequencyChange><Frequency dt:dt=""r8"">2793030000</Frequency><Timestamp dt:dt=""r8"">24082202784229</Timestamp><Current dt:dt=""r8"">0</Current><DateUtc dt:dt=""string"">2014-05-07T20:45:48Z</DateUtc></FrequencyChange></FrequencyChanges></Clock>\n",60.032,1,864441538,0,,-999999,7,45088,t,65100,110188,5/7/2014,13:45:49,8:45:49 PM,1,Session1,SessionsList,,,,,,,,,,1,1,1,2,,,,,2,1,2,,,,NonCued1,MiniBlocks1,261530,,,,7,1,b,-999999,17,381220,b,525,381745,Green,Congruent,b,White,0,,0,12,377206,,0,0,,,,,,,,,,,,,Pictures\white.bmp,3000,4000,Pictures\black.bmp,7,1,7,,,,,,,,,,StimulusPr,Pictures\GreenRight.bmp,NonCuedStim1,Right
POP_2,16050,1,"<?xml version=""1.0""?>\n<Clock xmlns:dt=""urn:schemas-microsoft-com:datatypes""><Description dt:dt=""string"">E-Prime Primary Realtime Clock</Description><StartTime><Timestamp dt:dt=""int"">0</Timestamp><DateUtc dt:dt=""string"">2014-05-07T20:45:48Z</DateUtc></StartTime><FrequencyChanges><FrequencyChange><Frequency dt:dt=""r8"">2793030000</Frequency><Timestamp dt:dt=""r8"">24082202784229</Timestamp><Current dt:dt=""r8"">0</Current><DateUtc dt:dt=""string"">2014-05-07T20:45:48Z</DateUtc></FrequencyChange></FrequencyChanges></Clock>\n",60.032,1,864441538,0,,-999999,7,45088,t,65100,110188,5/7/2014,13:45:49,8:45:49 PM,1,Session1,SessionsList,,,,,,,,,,1,1,1,2,,,,,2,1,2,,,,NonCued1,MiniBlocks1,261530,,,,8,1,b,-999999,12,391215,b,377,391592,Green,Congruent,b,White,0,,0,14,387217,,0,0,,,,,,,,,,,,,Pictures\white.bmp,3000,4000,Pictures\black.bmp,8,1,8,,,,,,,,,,StimulusPr,Pictures\GreenRight.bmp,NonCuedStim1,Right
POP_2,16050,1,"<?xml version=""1.0""?>\n<Clock xmlns:dt=""urn:schemas-microsoft-com:datatypes""><Description dt:dt=""string"">E-Prime Primary Realtime Clock</Description><StartTime><Timestamp dt:dt=""int"">0</Timestamp><DateUtc dt:dt=""string"">2014-05-07T20:45:48Z</DateUtc></StartTime><FrequencyChanges><FrequencyChange><Frequency dt:dt=""r8"">2793030000</Frequency><Timestamp dt:dt=""r8"">24082202784229</Timestamp><Current dt:dt=""r8"">0</Current><DateUtc dt:dt=""string"">2014-05-07T20:45:48Z</DateUtc></FrequencyChange></FrequencyChanges></Clock>\n",60.032,1,864441538,0,,-999999,7,45088,t,65100,110188,5/7/2014,13:45:49,8:45:49 PM,1,Session1,SessionsList,,,,,,,,,,1,1,1,2,,,,,2,1,2,,,,NonCued1,MiniBlocks1,261530,,,,9,1,b,-999999,5,407207,b,533,407740,Red,Incongruent,b,White,0,,0,9,397212,,0,0,,,,,,,,,,,,,Pictures\white.bmp,9000,2000,Pictures\RedLeft.bmp,9,1,9,,,,,,,,,,StimulusPr,Pictures\black.bmp,NonCuedStim1,Left
POP_2,16050,1,"<?xml version=""1.0""?>\n<Clock xmlns:dt=""urn:schemas-microsoft-com:datatypes""><Description dt:dt=""string"">E-Prime Primary Realtime Clock</Description><StartTime><Timestamp dt:dt=""int"">0</Timestamp><DateUtc dt:dt=""string"">2014-05-07T20:45:48Z</DateUtc></StartTime><FrequencyChanges><FrequencyChange><Frequency dt:dt=""r8"">2793030000</Frequency><Timestamp dt:dt=""r8"">24082202784229</Timestamp><Current dt:dt=""r8"">0</Current><DateUtc dt:dt=""string"">2014-05-07T20:45:48Z</DateUtc></FrequencyChange></FrequencyChanges></Clock>\n",60.032,1,864441538,0,,-999999,7,45088,t,65100,110188,5/7/2014,13:45:49,8:45:49 PM,1,Session1,SessionsList,,,,,,,,,,1,1,1,2,,,,,2,1,2,,,,NonCued1,MiniBlocks1,261530,,,,10,1,r,-999999,17,418219,r,319,418538,Green,Congruent,r,White,0,,0,2,411205,,0,0,,,,,,,,,,,,,Pictures\white.bmp,6000,2000,Pictures\GreenLeft.bmp,10,1,10,,,,,,,,,,StimulusPr,Pictures\black.bmp,NonCuedStim1,Left
POP_2,16050,1,"<?xml version=""1.0""?>\n<Clock xmlns:dt=""urn:schemas-microsoft-com:datatypes""><Description dt:dt=""string"">E-Prime Primary Realtime Clock</Description><StartTime><Timestamp dt:dt=""int"">0</Timestamp><DateUtc dt:dt=""string"">2014-05-07T20:45:48Z</DateUtc></StartTime><FrequencyChanges><FrequencyChange><Frequency dt:dt=""r8"">2793030000</Frequency><Timestamp dt:dt=""r8"">24082202784229</Timestamp><Current dt:dt=""r8"">0</Current><DateUtc dt:dt=""string"">2014-05-07T20:45:48Z</DateUtc></FrequencyChange></FrequencyChanges></Clock>\n",60.032,1,864441538,0,,-999999,7,45088,t,65100,110188,5/7/2014,13:45:49,8:45:49 PM,1,Session1,SessionsList,,,,,,,,,,1,1,1,3,,,,,3,1,3,,,,NonCued2,MiniBlocks1,,420567,,,1,1,b,-999999,5,440208,b,369,440577,Green,Congruent,b,White,0,,0,2,430196,,0,0,,,,,,,,,,,,,Pictures\white.bmp,9000,10000,Pictures\black.bmp,,,,1,1,1,,,,,,,StimulusPr,Pictures\GreenRight.bmp,NonCuedStim2,Right
POP_2,16050,1,"<?xml version=""1.0""?>\n<Clock xmlns:dt=""urn:schemas-microsoft-com:datatypes""><Description dt:dt=""string"">E-Prime Primary Realtime Clock</Description><StartTime><Timestamp dt:dt=""int"">0</Timestamp><DateUtc dt:dt=""string"">2014-05-07T20:45:48Z</DateUtc></StartTime><FrequencyChanges><FrequencyChange><Frequency dt:dt=""r8"">2793030000</Frequency><Timestamp dt:dt=""r8"">24082202784229</Timestamp><Current dt:dt=""r8"">0</Current><DateUtc dt:dt=""string"">2014-05-07T20:45:48Z</DateUtc></FrequencyChange></FrequencyChanges></Clock>\n",60.032,1,864441538,0,,-999999,7,45088,t,65100,110188,5/7/2014,13:45:49,8:45:49 PM,1,Session1,SessionsList,,,,,,,,,,1,1,1,3,,,,,3,1,3,,,,NonCued2,MiniBlocks1,,420567,,,2,1,r,-999999,13,456216,r,388,456604,Green,Congruent,r,White,0,,0,8,452202,,0,0,,,,,,,,,,,,,Pictures\white.bmp,3000,2000,Pictures\GreenLeft.bmp,,,,2,1,2,,,,,,,StimulusPr,Pictures\black.bmp,NonCuedStim2,Left
POP_2,16050,1,"<?xml version=""1.0""?>\n<Clock xmlns:dt=""urn:schemas-microsoft-com:datatypes""><Description dt:dt=""string"">E-Prime Primary Realtime Clock</Description><StartTime><Timestamp dt:dt=""int"">0</Timestamp><DateUtc dt:dt=""string"">2014-05-07T20:45:48Z</DateUtc></StartTime><FrequencyChanges><FrequencyChange><Frequency dt:dt=""r8"">2793030000</Frequency><Timestamp dt:dt=""r8"">24082202784229</Timestamp><Current dt:dt=""r8"">0</Current><DateUtc dt:dt=""string"">2014-05-07T20:45:48Z</DateUtc></FrequencyChange></FrequencyChanges></Clock>\n",60.032,1,864441538,0,,-999999,7,45088,t,65100,110188,5/7/2014,13:45:49,8:45:49 PM,1,Session1,SessionsList,,,,,,,,,,1,1,1,3,,,,,3,1,3,,,,NonCued2,MiniBlocks1,,420567,,,3,0,r,-999999,18,464212,b,355,464567,Red,Incongruent,r,White,0,,0,11,460214,,0,0,,,,,,,,,,,,,Pictures\white.bmp,3000,2000,Pictures\black.bmp,,,,3,1,3,,,,,,,StimulusPr,Pictures\RedRight.bmp,NonCuedStim2,Right
POP_2,16050,1,"<?xml version=""1.0""?>\n<Clock xmlns:dt=""urn:schemas-microsoft-com:datatypes""><Description dt:dt=""string"">E-Prime Primary Realtime Clock</Description><StartTime><Timestamp dt:dt=""int"">0</Timestamp><DateUtc dt:dt=""string"">2014-05-07T20:45:48Z</DateUtc></StartTime><FrequencyChanges><FrequencyChange><Frequency dt:dt=""r8"">2793030000</Frequency><Timestamp dt:dt=""r8"">24082202784229</Timestamp><Current dt:dt=""r8"">0</Current><DateUtc dt:dt=""string"">2014-05-07T20:45:48Z</DateUtc></FrequencyChange></FrequencyChanges></Clock>\n",60.032,1,864441538,0,,-999999,7,45088,t,65100,110188,5/7/2014,13:45:49,8:45:49 PM,1,Session1,SessionsList,,,,,,,,,,1,1,1,3,,,,,3,1,3,,,,NonCued2,MiniBlocks1,,420567,,,4,1,r,-999999,9,473208,r,437,473645,Green,Congruent,r,White,0,,0,7,468210,,0,0,,,,,,,,,,,,,Pictures\white.bmp,4000,16000,Pictures\GreenLeft.bmp,,,,4,1,4,,,,,,,StimulusPr,Pictures\black.bmp,NonCuedStim2,Left
POP_2,16050,1,"<?xml version=""1.0""?>\n<Clock xmlns:dt=""urn:schemas-microsoft-com:datatypes""><Description dt:dt=""string"">E-Prime Primary Realtime Clock</Description><StartTime><Timestamp dt:dt=""int"">0</Timestamp><DateUtc dt:dt=""string"">2014-05-07T20:45:48Z</DateUtc></StartTime><FrequencyChanges><FrequencyChange><Frequency dt:dt=""r8"">2793030000</Frequency><Timestamp dt:dt=""r8"">24082202784229</Timestamp><Current dt:dt=""r8"">0</Current><DateUtc dt:dt=""string"">2014-05-07T20:45:48Z</DateUtc></FrequencyChange></FrequencyChanges></Clock>\n",60.032,1,864441538,0,,-999999,7,45088,t,65100,110188,5/7/2014,13:45:49,8:45:49 PM,1,Session1,SessionsList,,,,,,,,,,1,1,1,3,,,,,3,1,3,,,,NonCued2,MiniBlocks1,,420567,,,5,1,r,-999999,10,498212,r,454,498666,Green,Congruent,r,White,0,,0,12,491215,,0,0,,,,,,,,,,,,,Pictures\white.bmp,6000,4000,Pictures\GreenLeft.bmp,,,,5,1,5,,,,,,,StimulusPr,Pictures\black.bmp,NonCuedStim2,Left
POP_2,16050,1,"<?xml version=""1.0""?>\n<Clock xmlns:dt=""urn:schemas-microsoft-com:datatypes""><Description dt:dt=""string"">E-Prime Primary Realtime Clock</Description><StartTime><Timestamp dt:dt=""int"">0</Timestamp><DateUtc dt:dt=""string"">2014-05-07T20:45:48Z</DateUtc></StartTime><FrequencyChanges><FrequencyChange><Frequency dt:dt=""r8"">2793030000</Frequency><Timestamp dt:dt=""r8"">24082202784229</Timestamp><Current dt:dt=""r8"">0</Current><DateUtc dt:dt=""string"">2014-05-07T20:45:48Z</DateUtc></FrequencyChange></FrequencyChanges></Clock>\n",60.032,1,864441538,0,,-999999,7,45088,t,65100,110188,5/7/2014,13:45:49,8:45:49 PM,1,Session1,SessionsList,,,,,,,,,,1,1,1,3,,,,,3,1,3,,,,NonCued2,MiniBlocks1,,420567,,,6,1,b,-999999,4,508207,b,476,508683,Red,Incongruent,b,White,0,,0,7,504209,,0,0,,,,,,,,,,,,,Pictures\white.bmp,3000,4000,Pictures\RedLeft.bmp,,,,6,1,6,,,,,,,StimulusPr,Pictures\black.bmp,NonCuedStim2,Left
POP_2,16050,1,"<?xml version=""1.0""?>\n<Clock xmlns:dt=""urn:schemas-microsoft-com:datatypes""><Description dt:dt=""string"">E-Prime Primary Realtime Clock</Description><StartTime><Timestamp dt:dt=""int"">0</Timestamp><DateUtc dt:dt=""string"">2014-05-07T20:45:48Z</DateUtc></StartTime><FrequencyChanges><FrequencyChange><Frequency dt:dt=""r8"">2793030000</Frequency><Timestamp dt:dt=""r8"">24082202784229</Timestamp><Current dt:dt=""r8"">0</Current><DateUtc dt:dt=""string"">2014-05-07T20:45:48Z</DateUtc></FrequencyChange></FrequencyChanges></Clock>\n",60.032,1,864441538,0,,-999999,7,45088,t,65100,110188,5/7/2014,13:45:49,8:45:49 PM,1,Session1,SessionsList,,,,,,,,,,1,1,1,3,,,,,3,1,3,,,,NonCued2,MiniBlocks1,,420567,,,7,1,b,-999999,16,519218,b,607,519825,Green,Congruent,b,White,0,,0,2,514205,,0,0,,,,,,,,,,,,,Pictures\white.bmp,4000,16000,Pictures\black.bmp,,,,7,1,7,,,,,,,StimulusPr,Pictures\GreenRight.bmp,NonCuedStim2,Right
POP_2,16050,1,"<?xml version=""1.0""?>\n<Clock xmlns:dt=""urn:schemas-microsoft-com:datatypes""><Description dt:dt=""string"">E-Prime Primary Realtime Clock</Description><StartTime><Timestamp dt:dt=""int"">0</Timestamp><DateUtc dt:dt=""string"">2014-05-07T20:45:48Z</DateUtc></StartTime><FrequencyChanges><FrequencyChange><Frequency dt:dt=""r8"">2793030000</Frequency><Timestamp dt:dt=""r8"">24082202784229</Timestamp><Current dt:dt=""r8"">0</Current><DateUtc dt:dt=""string"">2014-05-07T20:45:48Z</DateUtc></FrequencyChange></FrequencyChanges></Clock>\n",60.032,1,864441538,0,,-999999,7,45088,t,65100,110188,5/7/2014,13:45:49,8:45:49 PM,1,Session1,SessionsList,,,,,,,,,,1,1,1,3,,,,,3,1,3,,,,NonCued2,MiniBlocks1,,420567,,,8,1,r,-999999,18,547221,r,470,547691,Green,Congruent,r,White,0,,0,5,537209,,0,0,,,,,,,,,,,,,Pictures\white.bmp,9000,2000,Pictures\GreenLeft.bmp,,,,8,1,8,,,,,,,StimulusPr,Pictures\black.bmp,NonCuedStim2,Left
POP_2,16050,1,"<?xml version=""1.0""?>\n<Clock xmlns:dt=""urn:schemas-microsoft-com:datatypes""><Description dt:dt=""string"">E-Prime Primary Realtime Clock</Description><StartTime><Timestamp dt:dt=""int"">0</Timestamp><DateUtc dt:dt=""string"">2014-05-07T20:45:48Z</DateUtc></StartTime><FrequencyChanges><FrequencyChange><Frequency dt:dt=""r8"">2793030000</Frequency><Timestamp dt:dt=""r8"">24082202784229</Timestamp><Current dt:dt=""r8"">0</Current><DateUtc dt:dt=""string"">2014-05-07T20:45:48Z</DateUtc></FrequencyChange></FrequencyChanges></Clock>\n",60.032,1,864441538,0,,-999999,7,45088,t,65100,110188,5/7/2014,13:45:49,8:45:49 PM,1,Session1,SessionsList,,,,,,,,,,1,1,1,3,,,,,3,1,3,,,,NonCued2,MiniBlocks1,,420567,,,9,1,b,-999999,14,555217,b,445,555662,Green,Congruent,b,White,0,,0,16,551219,,0,0,,,,,,,,,,,,,Pictures\white.bmp,3000,10000,Pictures\black.bmp,,,,9,1,9,,,,,,,StimulusPr,Pictures\GreenRight.bmp,NonCuedStim2,Right
POP_2,16050,1,"<?xml version=""1.0""?>\n<Clock xmlns:dt=""urn:schemas-microsoft-com:datatypes""><Description dt:dt=""string"">E-Prime Primary Realtime Clock</Description><StartTime><Timestamp dt:dt=""int"">0</Timestamp><DateUtc dt:dt=""string"">2014-05-07T20:45:48Z</DateUtc></StartTime><FrequencyChanges><FrequencyChange><Frequency dt:dt=""r8"">2793030000</Frequency><Timestamp dt:dt=""r8"">24082202784229</Timestamp><Current dt:dt=""r8"">0</Current><DateUtc dt:dt=""string"">2014-05-07T20:45:48Z</DateUtc></FrequencyChange></FrequencyChanges></Clock>\n",60.032,1,864441538,0,,-999999,7,45088,t,65100,110188,5/7/2014,13:45:49,8:45:49 PM,1,Session1,SessionsList,,,,,,,,,,1,1,1,3,,,,,3,1,3,,,,NonCued2,MiniBlocks1,,420567,,,10,1,b,-999999,6,571209,b,355,571564,Green,Congruent,b,White,0,,0,3,567194,,0,0,,,,,,,,,,,,,Pictures\white.bmp,3000,2000,Pictures\black.bmp,,,,10,1,10,,,,,,,StimulusPr,Pictures\GreenRight.bmp,NonCuedStim2,Right
POP_2,16050,1,"<?xml version=""1.0""?>\n<Clock xmlns:dt=""urn:schemas-microsoft-com:datatypes""><Description dt:dt=""string"">E-Prime Primary Realtime Clock</Description><StartTime><Timestamp dt:dt=""int"">0</Timestamp><DateUtc dt:dt=""string"">2014-05-07T20:45:48Z</DateUtc></StartTime><FrequencyChanges><FrequencyChange><Frequency dt:dt=""r8"">2793030000</Frequency><Timestamp dt:dt=""r8"">24082202784229</Timestamp><Current dt:dt=""r8"">0</Current><DateUtc dt:dt=""string"">2014-05-07T20:45:48Z</DateUtc></FrequencyChange></FrequencyChanges></Clock>\n",60.032,1,864441538,0,,-999999,7,45088,t,65100,110188,5/7/2014,13:45:49,8:45:49 PM,1,Session1,SessionsList,,,,,,,,,,1,1,1,4,,573591,,,4,1,4,,,,Cued2,MiniBlocks1,,,,,1,1,b,-999999,14,590199,b,324,590523,White,Congruent,b,Green,0,,0,18,583220,,0,0,,,,1,1,1,,,,,,,Pictures\green.bmp,6000,4000,Pictures\black.bmp,,,,,,,,,,,,,StimulusPr,Pictures\right.bmp,CuedStim2,Right
POP_2,16050,1,"<?xml version=""1.0""?>\n<Clock xmlns:dt=""urn:schemas-microsoft-com:datatypes""><Description dt:dt=""string"">E-Prime Primary Realtime Clock</Description><StartTime><Timestamp dt:dt=""int"">0</Timestamp><DateUtc dt:dt=""string"">2014-05-07T20:45:48Z</DateUtc></StartTime><FrequencyChanges><FrequencyChange><Frequency dt:dt=""r8"">2793030000</Frequency><Timestamp dt:dt=""r8"">24082202784229</Timestamp><Current dt:dt=""r8"">0</Current><DateUtc dt:dt=""string"">2014-05-07T20:45:48Z</DateUtc></FrequencyChange></FrequencyChanges></Clock>\n",60.032,1,864441538,0,,-999999,7,45088,t,65100,110188,5/7/2014,13:45:49,8:45:49 PM,1,Session1,SessionsList,,,,,,,,,,1,1,1,4,,573591,,,4,1,4,,,,Cued2,MiniBlocks1,,,,,2,1,b,-999999,14,606208,b,372,606580,White,Congruent,b,Green,0,,0,17,596213,,0,0,,,,2,1,2,,,,,,,Pictures\green.bmp,9000,10000,Pictures\black.bmp,,,,,,,,,,,,,StimulusPr,Pictures\right.bmp,CuedStim2,Right
POP_2,16050,1,"<?xml version=""1.0""?>\n<Clock xmlns:dt=""urn:schemas-microsoft-com:datatypes""><Description dt:dt=""string"">E-Prime Primary Realtime Clock</Description><StartTime><Timestamp dt:dt=""int"">0</Timestamp><DateUtc dt:dt=""string"">2014-05-07T20:45:48Z</DateUtc></StartTime><FrequencyChanges><FrequencyChange><Frequency dt:dt=""r8"">2793030000</Frequency><Timestamp dt:dt=""r8"">24082202784229</Timestamp><Current dt:dt=""r8"">0</Current><DateUtc dt:dt=""string"">2014-05-07T20:45:48Z</DateUtc></FrequencyChange></FrequencyChanges></Clock>\n",60.032,1,864441538,0,,-999999,7,45088,t,65100,110188,5/7/2014,13:45:49,8:45:49 PM,1,Session1,SessionsList,,,,,,,,,,1,1,1,4,,573591,,,4,1,4,,,,Cued2,MiniBlocks1,,,,,3,1,r,-999999,14,622217,r,494,622711,White,Incongruent,r,Red,0,,0,16,618219,,0,0,,,,3,1,3,,,,,,,Pictures\red.bmp,3000,2000,Pictures\black.bmp,,,,,,,,,,,,,StimulusPr,Pictures\right.bmp,CuedStim2,Right
POP_2,16050,1,"<?xml version=""1.0""?>\n<Clock xmlns:dt=""urn:schemas-microsoft-com:datatypes""><Description dt:dt=""string"">E-Prime Primary Realtime Clock</Description><StartTime><Timestamp dt:dt=""int"">0</Timestamp><DateUtc dt:dt=""string"">2014-05-07T20:45:48Z</DateUtc></StartTime><FrequencyChanges><FrequencyChange><Frequency dt:dt=""r8"">2793030000</Frequency><Timestamp dt:dt=""r8"">24082202784229</Timestamp><Current dt:dt=""r8"">0</Current><DateUtc dt:dt=""string"">2014-05-07T20:45:48Z</DateUtc></FrequencyChange></FrequencyChanges></Clock>\n",60.032,1,864441538,0,,-999999,7,45088,t,65100,110188,5/7/2014,13:45:49,8:45:49 PM,1,Session1,SessionsList,,,,,,,,,,1,1,1,4,,573591,,,4,1,4,,,,Cued2,MiniBlocks1,,,,,4,1,r,-999999,8,633211,r,465,633676,White,Congruent,r,Green,0,,0,12,626215,,0,0,,,,4,1,4,,,,,,,Pictures\green.bmp,6000,16000,Pictures\left.bmp,,,,,,,,,,,,,StimulusPr,Pictures\black.bmp,CuedStim2,Left
POP_2,16050,1,"<?xml version=""1.0""?>\n<Clock xmlns:dt=""urn:schemas-microsoft-com:datatypes""><Description dt:dt=""string"">E-Prime Primary Realtime Clock</Description><StartTime><Timestamp dt:dt=""int"">0</Timestamp><DateUtc dt:dt=""string"">2014-05-07T20:45:48Z</DateUtc></StartTime><FrequencyChanges><FrequencyChange><Frequency dt:dt=""r8"">2793030000</Frequency><Timestamp dt:dt=""r8"">24082202784229</Timestamp><Current dt:dt=""r8"">0</Current><DateUtc dt:dt=""string"">2014-05-07T20:45:48Z</DateUtc></FrequencyChange></FrequencyChanges></Clock>\n",60.032,1,864441538,0,,-999999,7,45088,t,65100,110188,5/7/2014,13:45:49,8:45:49 PM,1,Session1,SessionsList,,,,,,,,,,1,1,1,4,,573591,,,4,1,4,,,,Cued2,MiniBlocks1,,,,,5,1,b,-999999,14,655217,b,468,655685,White,Congruent,b,Green,0,,0,16,651219,,0,0,,,,5,1,5,,,,,,,Pictures\green.bmp,3000,2000,Pictures\black.bmp,,,,,,,,,,,,,StimulusPr,Pictures\right.bmp,CuedStim2,Right
POP_2,16050,1,"<?xml version=""1.0""?>\n<Clock xmlns:dt=""urn:schemas-microsoft-com:datatypes""><Description dt:dt=""string"">E-Prime Primary Realtime Clock</Description><StartTime><Timestamp dt:dt=""int"">0</Timestamp><DateUtc dt:dt=""string"">2014-05-07T20:45:48Z</DateUtc></StartTime><FrequencyChanges><FrequencyChange><Frequency dt:dt=""r8"">2793030000</Frequency><Timestamp dt:dt=""r8"">24082202784229</Timestamp><Current dt:dt=""r8"">0</Current><DateUtc dt:dt=""string"">2014-05-07T20:45:48Z</DateUtc></FrequencyChange></FrequencyChanges></Clock>\n",60.032,1,864441538,0,,-999999,7,45088,t,65100,110188,5/7/2014,13:45:49,8:45:49 PM,1,Session1,SessionsList,,,,,,,,,,1,1,1,4,,573591,,,4,1,4,,,,Cued2,MiniBlocks1,,,,,6,1,r,-999999,3,663197,r,349,663546,White,Congruent,r,Green,0,,0,12,659215,,0,0,,,,6,1,6,,,,,,,Pictures\green.bmp,3000,2000,Pictures\left.bmp,,,,,,,,,,,,,StimulusPr,Pictures\black.bmp,CuedStim2,Left
POP_2,16050,1,"<?xml version=""1.0""?>\n<Clock xmlns:dt=""urn:schemas-microsoft-com:datatypes""><Description dt:dt=""string"">E-Prime Primary Realtime Clock</Description><StartTime><Timestamp dt:dt=""int"">0</Timestamp><DateUtc dt:dt=""string"">2014-05-07T20:45:48Z</DateUtc></StartTime><FrequencyChanges><FrequencyChange><Frequency dt:dt=""r8"">2793030000</Frequency><Timestamp dt:dt=""r8"">24082202784229</Timestamp><Current dt:dt=""r8"">0</Current><DateUtc dt:dt=""string"">2014-05-07T20:45:48Z</DateUtc></FrequencyChange></FrequencyChanges></Clock>\n",60.032,1,864441538,0,,-999999,7,45088,t,65100,110188,5/7/2014,13:45:49,8:45:49 PM,1,Session1,SessionsList,,,,,,,,,,1,1,1,4,,573591,,,4,1,4,,,,Cued2,MiniBlocks1,,,,,7,1,b,-999999,4,674207,b,501,674708,White,Incongruent,b,Red,0,,0,8,667211,,0,0,,,,7,1,7,,,,,,,Pictures\red.bmp,6000,4000,Pictures\left.bmp,,,,,,,,,,,,,StimulusPr,Pictures\black.bmp,CuedStim2,Left
POP_2,16050,1,"<?xml version=""1.0""?>\n<Clock xmlns:dt=""urn:schemas-microsoft-com:datatypes""><Description dt:dt=""string"">E-Prime Primary Realtime Clock</Description><StartTime><Timestamp dt:dt=""int"">0</Timestamp><DateUtc dt:dt=""string"">2014-05-07T20:45:48Z</DateUtc></StartTime><FrequencyChanges><FrequencyChange><Frequency dt:dt=""r8"">2793030000</Frequency><Timestamp dt:dt=""r8"">24082202784229</Timestamp><Current dt:dt=""r8"">0</Current><DateUtc dt:dt=""string"">2014-05-07T20:45:48Z</DateUtc></FrequencyChange></FrequencyChanges></Clock>\n",60.032,1,864441538,0,,-999999,7,45088,t,65100,110188,5/7/2014,13:45:49,8:45:49 PM,1,Session1,SessionsList,,,,,,,,,,1,1,1,4,,573591,,,4,1,4,,,,Cued2,MiniBlocks1,,,,,8,1,b,-999999,2,685202,b,286,685488,White,Congruent,b,Green,0,,0,14,680204,,0,0,,,,8,1,8,,,,,,,Pictures\green.bmp,4000,4000,Pictures\black.bmp,,,,,,,,,,,,,StimulusPr,Pictures\right.bmp,CuedStim2,Right
POP_2,16050,1,"<?xml version=""1.0""?>\n<Clock xmlns:dt=""urn:schemas-microsoft-com:datatypes""><Description dt:dt=""string"">E-Prime Primary Realtime Clock</Description><StartTime><Timestamp dt:dt=""int"">0</Timestamp><DateUtc dt:dt=""string"">2014-05-07T20:45:48Z</DateUtc></StartTime><FrequencyChanges><FrequencyChange><Frequency dt:dt=""r8"">2793030000</Frequency><Timestamp dt:dt=""r8"">24082202784229</Timestamp><Current dt:dt=""r8"">0</Current><DateUtc dt:dt=""string"">2014-05-07T20:45:48Z</DateUtc></FrequencyChange></FrequencyChanges></Clock>\n",60.032,1,864441538,0,,-999999,7,45088,t,65100,110188,5/7/2014,13:45:49,8:45:49 PM,1,Session1,SessionsList,,,,,,,,,,1,1,1,4,,573591,,,4,1,4,,,,Cued2,MiniBlocks1,,,,,9,1,b,-999999,8,701211,b,491,701702,White,Incongruent,b,Red,0,,0,14,691216,,0,0,,,,9,1,9,,,,,,,Pictures\red.bmp,9000,10000,Pictures\left.bmp,,,,,,,,,,,,,StimulusPr,Pictures\black.bmp,CuedStim2,Left
POP_2,16050,1,"<?xml version=""1.0""?>\n<Clock xmlns:dt=""urn:schemas-microsoft-com:datatypes""><Description dt:dt=""string"">E-Prime Primary Realtime Clock</Description><StartTime><Timestamp dt:dt=""int"">0</Timestamp><DateUtc dt:dt=""string"">2014-05-07T20:45:48Z</DateUtc></StartTime><FrequencyChanges><FrequencyChange><Frequency dt:dt=""r8"">2793030000</Frequency><Timestamp dt:dt=""r8"">24082202784229</Timestamp><Current dt:dt=""r8"">0</Current><DateUtc dt:dt=""string"">2014-05-07T20:45:48Z</DateUtc></FrequencyChange></FrequencyChanges></Clock>\n",60.032,1,864441538,0,,-999999,7,45088,t,65100,110188,5/7/2014,13:45:49,8:45:49 PM,1,Session1,SessionsList,,,,,,,,,,1,1,1,4,,573591,,,4,1,4,,,,Cued2,MiniBlocks1,,,,,10,1,r,-999999,13,723216,r,440,723656,White,Congruent,r,Green,0,,0,14,713205,,0,0,,,,10,1,10,,,,,,,Pictures\green.bmp,9000,10000,Pictures\left.bmp,,,,,,,,,,,,,StimulusPr,Pictures\black.bmp,CuedStim2,Left
POP_2,16050,1,"<?xml version=""1.0""?>\n<Clock xmlns:dt=""urn:schemas-microsoft-com:datatypes""><Description dt:dt=""string"">E-Prime Primary Realtime Clock</Description><StartTime><Timestamp dt:dt=""int"">0</Timestamp><DateUtc dt:dt=""string"">2014-05-07T20:45:48Z</DateUtc></StartTime><FrequencyChanges><FrequencyChange><Frequency dt:dt=""r8"">2793030000</Frequency><Timestamp dt:dt=""r8"">24082202784229</Timestamp><Current dt:dt=""r8"">0</Current><DateUtc dt:dt=""string"">2014-05-07T20:45:48Z</DateUtc></FrequencyChange></FrequencyChanges></Clock>\n",60.032,1,864441538,0,,-999999,7,45088,t,65100,110188,5/7/2014,13:45:49,8:45:49 PM,2,Session2,SessionsList,0,,-999999,17,748304,t,33952,782256,733678,2,1,2,1,,,,,,,,1,1,1,NonCued3,MiniBlocks2,,,782270,,1,1,b,-999999,17,802277,b,422,802699,Green,Congruent,b,White,0,,0,10,792282,,0,0,,,,,,,,,,,,,Pictures\white.bmp,9000,10000,Pictures\black.bmp,,,,,,,1,1,1,,,,StimulusPr,Pictures\GreenRight.bmp,NonCuedStim3,Right
POP_2,16050,1,"<?xml version=""1.0""?>\n<Clock xmlns:dt=""urn:schemas-microsoft-com:datatypes""><Description dt:dt=""string"">E-Prime Primary Realtime Clock</Description><StartTime><Timestamp dt:dt=""int"">0</Timestamp><DateUtc dt:dt=""string"">2014-05-07T20:45:48Z</DateUtc></StartTime><FrequencyChanges><FrequencyChange><Frequency dt:dt=""r8"">2793030000</Frequency><Timestamp dt:dt=""r8"">24082202784229</Timestamp><Current dt:dt=""r8"">0</Current><DateUtc dt:dt=""string"">2014-05-07T20:45:48Z</DateUtc></FrequencyChange></FrequencyChanges></Clock>\n",60.032,1,864441538,0,,-999999,7,45088,t,65100,110188,5/7/2014,13:45:49,8:45:49 PM,2,Session2,SessionsList,0,,-999999,17,748304,t,33952,782256,733678,2,1,2,1,,,,,,,,1,1,1,NonCued3,MiniBlocks2,,,782270,,2,1,r,-999999,11,824283,r,537,824820,Red,Incongruent,r,White,0,,0,12,814271,,0,0,,,,,,,,,,,,,Pictures\white.bmp,9000,10000,Pictures\black.bmp,,,,,,,2,1,2,,,,StimulusPr,Pictures\RedRight.bmp,NonCuedStim3,Right
POP_2,16050,1,"<?xml version=""1.0""?>\n<Clock xmlns:dt=""urn:schemas-microsoft-com:datatypes""><Description dt:dt=""string"">E-Prime Primary Realtime Clock</Description><StartTime><Timestamp dt:dt=""int"">0</Timestamp><DateUtc dt:dt=""string"">2014-05-07T20:45:48Z</DateUtc></StartTime><FrequencyChanges><FrequencyChange><Frequency dt:dt=""r8"">2793030000</Frequency><Timestamp dt:dt=""r8"">24082202784229</Timestamp><Current dt:dt=""r8"">0</Current><DateUtc dt:dt=""string"">2014-05-07T20:45:48Z</DateUtc></FrequencyChange></FrequencyChanges></Clock>\n",60.032,1,864441538,0,,-999999,7,45088,t,65100,110188,5/7/2014,13:45:49,8:45:49 PM,2,Session2,SessionsList,0,,-999999,17,748304,t,33952,782256,733678,2,1,2,1,,,,,,,,1,1,1,NonCued3,MiniBlocks2,,,782270,,3,1,r,-999999,18,841274,r,497,841771,Green,Congruent,r,White,0,,0,4,836260,,0,0,,,,,,,,,,,,,Pictures\white.bmp,4000,4000,Pictures\GreenLeft.bmp,,,,,,,3,1,3,,,,StimulusPr,Pictures\black.bmp,NonCuedStim3,Left
POP_2,16050,1,"<?xml version=""1.0""?>\n<Clock xmlns:dt=""urn:schemas-microsoft-com:datatypes""><Description dt:dt=""string"">E-Prime Primary Realtime Clock</Description><StartTime><Timestamp dt:dt=""int"">0</Timestamp><DateUtc dt:dt=""string"">2014-05-07T20:45:48Z</DateUtc></StartTime><FrequencyChanges><FrequencyChange><Frequency dt:dt=""r8"">2793030000</Frequency><Timestamp dt:dt=""r8"">24082202784229</Timestamp><Current dt:dt=""r8"">0</Current><DateUtc dt:dt=""string"">2014-05-07T20:45:48Z</DateUtc></FrequencyChange></FrequencyChanges></Clock>\n",60.032,1,864441538,0,,-999999,7,45088,t,65100,110188,5/7/2014,13:45:49,8:45:49 PM,2,Session2,SessionsList,0,,-999999,17,748304,t,33952,782256,733678,2,1,2,1,,,,,,,,1,1,1,NonCued3,MiniBlocks2,,,782270,,4,0,b,-999999,12,854284,r,425,854709,Red,Incongruent,b,White,0,,0,12,847288,,0,0,,,,,,,,,,,,,Pictures\white.bmp,6000,4000,Pictures\RedLeft.bmp,,,,,,,4,1,4,,,,StimulusPr,Pictures\black.bmp,NonCuedStim3,Left
POP_2,16050,1,"<?xml version=""1.0""?>\n<Clock xmlns:dt=""urn:schemas-microsoft-com:datatypes""><Description dt:dt=""string"">E-Prime Primary Realtime Clock</Description><StartTime><Timestamp dt:dt=""int"">0</Timestamp><DateUtc dt:dt=""string"">2014-05-07T20:45:48Z</DateUtc></StartTime><FrequencyChanges><FrequencyChange><Frequency dt:dt=""r8"">2793030000</Frequency><Timestamp dt:dt=""r8"">24082202784229</Timestamp><Current dt:dt=""r8"">0</Current><DateUtc dt:dt=""string"">2014-05-07T20:45:48Z</DateUtc></FrequencyChange></FrequencyChanges></Clock>\n",60.032,1,864441538,0,,-999999,7,45088,t,65100,110188,5/7/2014,13:45:49,8:45:49 PM,2,Session2,SessionsList,0,,-999999,17,748304,t,33952,782256,733678,2,1,2,1,,,,,,,,1,1,1,NonCued3,MiniBlocks2,,,782270,,5,1,b,-999999,13,864279,b,529,864808,Green,Congruent,b,White,0,,0,10,860281,,0,0,,,,,,,,,,,,,Pictures\white.bmp,3000,2000,Pictures\black.bmp,,,,,,,5,1,5,,,,StimulusPr,Pictures\GreenRight.bmp,NonCuedStim3,Right
POP_2,16050,1,"<?xml version=""1.0""?>\n<Clock xmlns:dt=""urn:schemas-microsoft-com:datatypes""><Description dt:dt=""string"">E-Prime Primary Realtime Clock</Description><StartTime><Timestamp dt:dt=""int"">0</Timestamp><DateUtc dt:dt=""string"">2014-05-07T20:45:48Z</DateUtc></StartTime><FrequencyChanges><FrequencyChange><Frequency dt:dt=""r8"">2793030000</Frequency><Timestamp dt:dt=""r8"">24082202784229</Timestamp><Current dt:dt=""r8"">0</Current><DateUtc dt:dt=""string"">2014-05-07T20:45:48Z</DateUtc></FrequencyChange></FrequencyChanges></Clock>\n",60.032,1,864441538,0,,-999999,7,45088,t,65100,110188,5/7/2014,13:45:49,8:45:49 PM,2,Session2,SessionsList,0,,-999999,17,748304,t,33952,782256,733678,2,1,2,1,,,,,,,,1,1,1,NonCued3,MiniBlocks2,,,782270,,6,1,r,-999999,3,872275,r,528,872803,Green,Congruent,r,White,0,,0,5,868277,,0,0,,,,,,,,,,,,,Pictures\white.bmp,3000,2000,Pictures\GreenLeft.bmp,,,,,,,6,1,6,,,,StimulusPr,Pictures\black.bmp,NonCuedStim3,Left
POP_2,16050,1,"<?xml version=""1.0""?>\n<Clock xmlns:dt=""urn:schemas-microsoft-com:datatypes""><Description dt:dt=""string"">E-Prime Primary Realtime Clock</Description><StartTime><Timestamp dt:dt=""int"">0</Timestamp><DateUtc dt:dt=""string"">2014-05-07T20:45:48Z</DateUtc></StartTime><FrequencyChanges><FrequencyChange><Frequency dt:dt=""r8"">2793030000</Frequency><Timestamp dt:dt=""r8"">24082202784229</Timestamp><Current dt:dt=""r8"">0</Current><DateUtc dt:dt=""string"">2014-05-07T20:45:48Z</DateUtc></FrequencyChange></FrequencyChanges></Clock>\n",60.032,1,864441538,0,,-999999,7,45088,t,65100,110188,5/7/2014,13:45:49,8:45:49 PM,2,Session2,SessionsList,0,,-999999,17,748304,t,33952,782256,733678,2,1,2,1,,,,,,,,1,1,1,NonCued3,MiniBlocks2,,,782270,,7,1,b,-999999,14,883286,b,457,883743,Green,Congruent,b,White,0,,0,17,876273,,0,0,,,,,,,,,,,,,Pictures\white.bmp,6000,16000,Pictures\black.bmp,,,,,,,7,1,7,,,,StimulusPr,Pictures\GreenRight.bmp,NonCuedStim3,Right
POP_2,16050,1,"<?xml version=""1.0""?>\n<Clock xmlns:dt=""urn:schemas-microsoft-com:datatypes""><Description dt:dt=""string"">E-Prime Primary Realtime Clock</Description><StartTime><Timestamp dt:dt=""int"">0</Timestamp><DateUtc dt:dt=""string"">2014-05-07T20:45:48Z</DateUtc></StartTime><FrequencyChanges><FrequencyChange><Frequency dt:dt=""r8"">2793030000</Frequency><Timestamp dt:dt=""r8"">24082202784229</Timestamp><Current dt:dt=""r8"">0</Current><DateUtc dt:dt=""string"">2014-05-07T20:45:48Z</DateUtc></FrequencyChange></FrequencyChanges></Clock>\n",60.032,1,864441538,0,,-999999,7,45088,t,65100,110188,5/7/2014,13:45:49,8:45:49 PM,2,Session2,SessionsList,0,,-999999,17,748304,t,33952,782256,733678,2,1,2,1,,,,,,,,1,1,1,NonCued3,MiniBlocks2,,,782270,,8,1,r,-999999,4,905275,r,698,905973,Red,Incongruent,r,White,0,,0,6,901277,,0,0,,,,,,,,,,,,,Pictures\white.bmp,3000,2000,Pictures\black.bmp,,,,,,,8,1,8,,,,StimulusPr,Pictures\RedRight.bmp,NonCuedStim3,Right
POP_2,16050,1,"<?xml version=""1.0""?>\n<Clock xmlns:dt=""urn:schemas-microsoft-com:datatypes""><Description dt:dt=""string"">E-Prime Primary Realtime Clock</Description><StartTime><Timestamp dt:dt=""int"">0</Timestamp><DateUtc dt:dt=""string"">2014-05-07T20:45:48Z</DateUtc></StartTime><FrequencyChanges><FrequencyChange><Frequency dt:dt=""r8"">2793030000</Frequency><Timestamp dt:dt=""r8"">24082202784229</Timestamp><Current dt:dt=""r8"">0</Current><DateUtc dt:dt=""string"">2014-05-07T20:45:48Z</DateUtc></FrequencyChange></FrequencyChanges></Clock>\n",60.032,1,864441538,0,,-999999,7,45088,t,65100,110188,5/7/2014,13:45:49,8:45:49 PM,2,Session2,SessionsList,0,,-999999,17,748304,t,33952,782256,733678,2,1,2,1,,,,,,,,1,1,1,NonCued3,MiniBlocks2,,,782270,,9,1,r,-999999,14,919285,r,569,919854,Green,Congruent,r,White,0,,0,2,909273,,0,0,,,,,,,,,,,,,Pictures\white.bmp,9000,10000,Pictures\GreenLeft.bmp,,,,,,,9,1,9,,,,StimulusPr,Pictures\black.bmp,NonCuedStim3,Left
POP_2,16050,1,"<?xml version=""1.0""?>\n<Clock xmlns:dt=""urn:schemas-microsoft-com:datatypes""><Description dt:dt=""string"">E-Prime Primary Realtime Clock</Description><StartTime><Timestamp dt:dt=""int"">0</Timestamp><DateUtc dt:dt=""string"">2014-05-07T20:45:48Z</DateUtc></StartTime><FrequencyChanges><FrequencyChange><Frequency dt:dt=""r8"">2793030000</Frequency><Timestamp dt:dt=""r8"">24082202784229</Timestamp><Current dt:dt=""r8"">0</Current><DateUtc dt:dt=""string"">2014-05-07T20:45:48Z</DateUtc></FrequencyChange></FrequencyChanges></Clock>\n",60.032,1,864441538,0,,-999999,7,45088,t,65100,110188,5/7/2014,13:45:49,8:45:49 PM,2,Session2,SessionsList,0,,-999999,17,748304,t,33952,782256,733678,2,1,2,1,,,,,,,,1,1,1,NonCued3,MiniBlocks2,,,782270,,10,1,r,-999999,5,938276,r,528,938804,Green,Congruent,r,White,0,,0,3,931279,,0,0,,,,,,,,,,,,,Pictures\white.bmp,6000,4000,Pictures\GreenLeft.bmp,,,,,,,10,1,10,,,,StimulusPr,Pictures\black.bmp,NonCuedStim3,Left
POP_2,16050,1,"<?xml version=""1.0""?>\n<Clock xmlns:dt=""urn:schemas-microsoft-com:datatypes""><Description dt:dt=""string"">E-Prime Primary Realtime Clock</Description><StartTime><Timestamp dt:dt=""int"">0</Timestamp><DateUtc dt:dt=""string"">2014-05-07T20:45:48Z</DateUtc></StartTime><FrequencyChanges><FrequencyChange><Frequency dt:dt=""r8"">2793030000</Frequency><Timestamp dt:dt=""r8"">24082202784229</Timestamp><Current dt:dt=""r8"">0</Current><DateUtc dt:dt=""string"">2014-05-07T20:45:48Z</DateUtc></FrequencyChange></FrequencyChanges></Clock>\n",60.032,1,864441538,0,,-999999,7,45088,t,65100,110188,5/7/2014,13:45:49,8:45:49 PM,2,Session2,SessionsList,0,,-999999,17,748304,t,33952,782256,733678,2,1,2,2,,,942823,,,,,2,1,2,Cued3,MiniBlocks2,,,,,1,1,b,-999999,12,957283,b,612,957895,White,Congruent,b,Green,0,,0,14,953285,,0,0,,,,,,,1,1,1,,,,Pictures\green.bmp,3000,2000,Pictures\black.bmp,,,,,,,,,,,,,StimulusPr,Pictures\right.bmp,CuedStim3,Right
POP_2,16050,1,"<?xml version=""1.0""?>\n<Clock xmlns:dt=""urn:schemas-microsoft-com:datatypes""><Description dt:dt=""string"">E-Prime Primary Realtime Clock</Description><StartTime><Timestamp dt:dt=""int"">0</Timestamp><DateUtc dt:dt=""string"">2014-05-07T20:45:48Z</DateUtc></StartTime><FrequencyChanges><FrequencyChange><Frequency dt:dt=""r8"">2793030000</Frequency><Timestamp dt:dt=""r8"">24082202784229</Timestamp><Current dt:dt=""r8"">0</Current><DateUtc dt:dt=""string"">2014-05-07T20:45:48Z</DateUtc></FrequencyChange></FrequencyChanges></Clock>\n",60.032,1,864441538,0,,-999999,7,45088,t,65100,110188,5/7/2014,13:45:49,8:45:49 PM,2,Session2,SessionsList,0,,-999999,17,748304,t,33952,782256,733678,2,1,2,2,,,942823,,,,,2,1,2,Cued3,MiniBlocks2,,,,,2,1,b,-999999,8,965279,b,358,965637,White,Congruent,b,Green,0,,0,16,961281,,0,0,,,,,,,2,1,2,,,,Pictures\green.bmp,3000,10000,Pictures\black.bmp,,,,,,,,,,,,,StimulusPr,Pictures\right.bmp,CuedStim3,Right
POP_2,16050,1,"<?xml version=""1.0""?>\n<Clock xmlns:dt=""urn:schemas-microsoft-com:datatypes""><Description dt:dt=""string"">E-Prime Primary Realtime Clock</Description><StartTime><Timestamp dt:dt=""int"">0</Timestamp><DateUtc dt:dt=""string"">2014-05-07T20:45:48Z</DateUtc></StartTime><FrequencyChanges><FrequencyChange><Frequency dt:dt=""r8"">2793030000</Frequency><Timestamp dt:dt=""r8"">24082202784229</Timestamp><Current dt:dt=""r8"">0</Current><DateUtc dt:dt=""string"">2014-05-07T20:45:48Z</DateUtc></FrequencyChange></FrequencyChanges></Clock>\n",60.032,1,864441538,0,,-999999,7,45088,t,65100,110188,5/7/2014,13:45:49,8:45:49 PM,2,Session2,SessionsList,0,,-999999,17,748304,t,33952,782256,733678,2,1,2,2,,,942823,,,,,2,1,2,Cued3,MiniBlocks2,,,,,3,1,r,-999999,13,987284,r,390,987674,White,Congruent,r,Green,0,,0,2,977273,,0,0,,,,,,,3,1,3,,,,Pictures\green.bmp,9000,2000,Pictures\left.bmp,,,,,,,,,,,,,StimulusPr,Pictures\black.bmp,CuedStim3,Left
POP_2,16050,1,"<?xml version=""1.0""?>\n<Clock xmlns:dt=""urn:schemas-microsoft-com:datatypes""><Description dt:dt=""string"">E-Prime Primary Realtime Clock</Description><StartTime><Timestamp dt:dt=""int"">0</Timestamp><DateUtc dt:dt=""string"">2014-05-07T20:45:48Z</DateUtc></StartTime><FrequencyChanges><FrequencyChange><Frequency dt:dt=""r8"">2793030000</Frequency><Timestamp dt:dt=""r8"">24082202784229</Timestamp><Current dt:dt=""r8"">0</Current><DateUtc dt:dt=""string"">2014-05-07T20:45:48Z</DateUtc></FrequencyChange></FrequencyChanges></Clock>\n",60.032,1,864441538,0,,-999999,7,45088,t,65100,110188,5/7/2014,13:45:49,8:45:49 PM,2,Session2,SessionsList,0,,-999999,17,748304,t,33952,782256,733678,2,1,2,2,,,942823,,,,,2,1,2,Cued3,MiniBlocks2,,,,,4,1,r,-999999,9,996280,r,421,996701,White,Congruent,r,Green,0,,0,10,991266,,0,0,,,,,,,4,1,4,,,,Pictures\green.bmp,4000,16000,Pictures\left.bmp,,,,,,,,,,,,,StimulusPr,Pictures\black.bmp,CuedStim3,Left
POP_2,16050,1,"<?xml version=""1.0""?>\n<Clock xmlns:dt=""urn:schemas-microsoft-com:datatypes""><Description dt:dt=""string"">E-Prime Primary Realtime Clock</Description><StartTime><Timestamp dt:dt=""int"">0</Timestamp><DateUtc dt:dt=""string"">2014-05-07T20:45:48Z</DateUtc></StartTime><FrequencyChanges><FrequencyChange><Frequency dt:dt=""r8"">2793030000</Frequency><Timestamp dt:dt=""r8"">24082202784229</Timestamp><Current dt:dt=""r8"">0</Current><DateUtc dt:dt=""string"">2014-05-07T20:45:48Z</DateUtc></FrequencyChange></FrequencyChanges></Clock>\n",60.032,1,864441538,0,,-999999,7,45088,t,65100,110188,5/7/2014,13:45:49,8:45:49 PM,2,Session2,SessionsList,0,,-999999,17,748304,t,33952,782256,733678,2,1,2,2,,,942823,,,,,2,1,2,Cued3,MiniBlocks2,,,,,5,1,r,-999999,10,1018269,r,360,1018629,White,Incongruent,r,Red,0,,0,17,1014288,,0,0,,,,,,,5,1,5,,,,Pictures\red.bmp,3000,4000,Pictures\black.bmp,,,,,,,,,,,,,StimulusPr,Pictures\right.bmp,CuedStim3,Right
POP_2,16050,1,"<?xml version=""1.0""?>\n<Clock xmlns:dt=""urn:schemas-microsoft-com:datatypes""><Description dt:dt=""string"">E-Prime Primary Realtime Clock</Description><StartTime><Timestamp dt:dt=""int"">0</Timestamp><DateUtc dt:dt=""string"">2014-05-07T20:45:48Z</DateUtc></StartTime><FrequencyChanges><FrequencyChange><Frequency dt:dt=""r8"">2793030000</Frequency><Timestamp dt:dt=""r8"">24082202784229</Timestamp><Current dt:dt=""r8"">0</Current><DateUtc dt:dt=""string"">2014-05-07T20:45:48Z</DateUtc></FrequencyChange></FrequencyChanges></Clock>\n",60.032,1,864441538,0,,-999999,7,45088,t,65100,110188,5/7/2014,13:45:49,8:45:49 PM,2,Session2,SessionsList,0,,-999999,17,748304,t,33952,782256,733678,2,1,2,2,,,942823,,,,,2,1,2,Cued3,MiniBlocks2,,,,,6,1,b,-999999,4,1031262,b,392,1031654,White,Congruent,b,Green,0,,0,7,1024283,,0,0,,,,,,,6,1,6,,,,Pictures\green.bmp,6000,4000,Pictures\black.bmp,,,,,,,,,,,,,StimulusPr,Pictures\right.bmp,CuedStim3,Right
POP_2,16050,1,"<?xml version=""1.0""?>\n<Clock xmlns:dt=""urn:schemas-microsoft-com:datatypes""><Description dt:dt=""string"">E-Prime Primary Realtime Clock</Description><StartTime><Timestamp dt:dt=""int"">0</Timestamp><DateUtc dt:dt=""string"">2014-05-07T20:45:48Z</DateUtc></StartTime><FrequencyChanges><FrequencyChange><Frequency dt:dt=""r8"">2793030000</Frequency><Timestamp dt:dt=""r8"">24082202784229</Timestamp><Current dt:dt=""r8"">0</Current><DateUtc dt:dt=""string"">2014-05-07T20:45:48Z</DateUtc></FrequencyChange></FrequencyChanges></Clock>\n",60.032,1,864441538,0,,-999999,7,45088,t,65100,110188,5/7/2014,13:45:49,8:45:49 PM,2,Session2,SessionsList,0,,-999999,17,748304,t,33952,782256,733678,2,1,2,2,,,942823,,,,,2,1,2,Cued3,MiniBlocks2,,,,,7,1,r,-999999,15,1042274,r,711,1042985,White,Congruent,r,Green,0,,0,5,1037276,,0,0,,,,,,,7,1,7,,,,Pictures\green.bmp,4000,16000,Pictures\left.bmp,,,,,,,,,,,,,StimulusPr,Pictures\black.bmp,CuedStim3,Left
POP_2,16050,1,"<?xml version=""1.0""?>\n<Clock xmlns:dt=""urn:schemas-microsoft-com:datatypes""><Description dt:dt=""string"">E-Prime Primary Realtime Clock</Description><StartTime><Timestamp dt:dt=""int"">0</Timestamp><DateUtc dt:dt=""string"">2014-05-07T20:45:48Z</DateUtc></StartTime><FrequencyChanges><FrequencyChange><Frequency dt:dt=""r8"">2793030000</Frequency><Timestamp dt:dt=""r8"">24082202784229</Timestamp><Current dt:dt=""r8"">0</Current><DateUtc dt:dt=""string"">2014-05-07T20:45:48Z</DateUtc></FrequencyChange></FrequencyChanges></Clock>\n",60.032,1,864441538,0,,-999999,7,45088,t,65100,110188,5/7/2014,13:45:49,8:45:49 PM,2,Session2,SessionsList,0,,-999999,17,748304,t,33952,782256,733678,2,1,2,2,,,942823,,,,,2,1,2,Cued3,MiniBlocks2,,,,,8,1,b,-999999,4,1064279,b,586,1064865,White,Incongruent,b,Red,0,,0,10,1060281,,0,0,,,,,,,8,1,8,,,,Pictures\red.bmp,3000,2000,Pictures\left.bmp,,,,,,,,,,,,,StimulusPr,Pictures\black.bmp,CuedStim3,Left
POP_2,16050,1,"<?xml version=""1.0""?>\n<Clock xmlns:dt=""urn:schemas-microsoft-com:datatypes""><Description dt:dt=""string"">E-Prime Primary Realtime Clock</Description><StartTime><Timestamp dt:dt=""int"">0</Timestamp><DateUtc dt:dt=""string"">2014-05-07T20:45:48Z</DateUtc></StartTime><FrequencyChanges><FrequencyChange><Frequency dt:dt=""r8"">2793030000</Frequency><Timestamp dt:dt=""r8"">24082202784229</Timestamp><Current dt:dt=""r8"">0</Current><DateUtc dt:dt=""string"">2014-05-07T20:45:48Z</DateUtc></FrequencyChange></FrequencyChanges></Clock>\n",60.032,1,864441538,0,,-999999,7,45088,t,65100,110188,5/7/2014,13:45:49,8:45:49 PM,2,Session2,SessionsList,0,,-999999,17,748304,t,33952,782256,733678,2,1,2,2,,,942823,,,,,2,1,2,Cued3,MiniBlocks2,,,,,9,1,r,-999999,4,1072275,r,777,1073052,White,Congruent,r,Green,0,,0,6,1068277,,0,0,,,,,,,9,1,9,,,,Pictures\green.bmp,3000,2000,Pictures\left.bmp,,,,,,,,,,,,,StimulusPr,Pictures\black.bmp,CuedStim3,Left
POP_2,16050,1,"<?xml version=""1.0""?>\n<Clock xmlns:dt=""urn:schemas-microsoft-com:datatypes""><Description dt:dt=""string"">E-Prime Primary Realtime Clock</Description><StartTime><Timestamp dt:dt=""int"">0</Timestamp><DateUtc dt:dt=""string"">2014-05-07T20:45:48Z</DateUtc></StartTime><FrequencyChanges><FrequencyChange><Frequency dt:dt=""r8"">2793030000</Frequency><Timestamp dt:dt=""r8"">24082202784229</Timestamp><Current dt:dt=""r8"">0</Current><DateUtc dt:dt=""string"">2014-05-07T20:45:48Z</DateUtc></FrequencyChange></FrequencyChanges></Clock>\n",60.032,1,864441538,0,,-999999,7,45088,t,65100,110188,5/7/2014,13:45:49,8:45:49 PM,2,Session2,SessionsList,0,,-999999,17,748304,t,33952,782256,733678,2,1,2,2,,,942823,,,,,2,1,2,Cued3,MiniBlocks2,,,,,10,1,b,-999999,9,1086268,b,485,1086753,White,Congruent,b,Green,0,,0,9,1076273,,0,0,,,,,,,10,1,10,,,,Pictures\green.bmp,9000,10000,Pictures\black.bmp,,,,,,,,,,,,,StimulusPr,Pictures\right.bmp,CuedStim3,Right
POP_2,16050,1,"<?xml version=""1.0""?>\n<Clock xmlns:dt=""urn:schemas-microsoft-com:datatypes""><Description dt:dt=""string"">E-Prime Primary Realtime Clock</Description><StartTime><Timestamp dt:dt=""int"">0</Timestamp><DateUtc dt:dt=""string"">2014-05-07T20:45:48Z</DateUtc></StartTime><FrequencyChanges><FrequencyChange><Frequency dt:dt=""r8"">2793030000</Frequency><Timestamp dt:dt=""r8"">24082202784229</Timestamp><Current dt:dt=""r8"">0</Current><DateUtc dt:dt=""string"">2014-05-07T20:45:48Z</DateUtc></FrequencyChange></FrequencyChanges></Clock>\n",60.032,1,864441538,0,,-999999,7,45088,t,65100,110188,5/7/2014,13:45:49,8:45:49 PM,2,Session2,SessionsList,0,,-999999,17,748304,t,33952,782256,733678,2,1,2,3,,,,1096780,,,,3,1,3,Cued4,MiniBlocks2,,,,,1,1,b,-999999,18,1114288,b,314,1114602,White,Congruent,b,Green,0,,0,4,1107275,,0,0,,,,,,,,,,1,1,1,Pictures\green.bmp,6000,2000,Pictures\black.bmp,,,,,,,,,,,,,StimulusPr,Pictures\right.bmp,CuedStim4,Right
POP_2,16050,1,"<?xml version=""1.0""?>\n<Clock xmlns:dt=""urn:schemas-microsoft-com:datatypes""><Description dt:dt=""string"">E-Prime Primary Realtime Clock</Description><StartTime><Timestamp dt:dt=""int"">0</Timestamp><DateUtc dt:dt=""string"">2014-05-07T20:45:48Z</DateUtc></StartTime><FrequencyChanges><FrequencyChange><Frequency dt:dt=""r8"">2793030000</Frequency><Timestamp dt:dt=""r8"">24082202784229</Timestamp><Current dt:dt=""r8"">0</Current><DateUtc dt:dt=""string"">2014-05-07T20:45:48Z</DateUtc></FrequencyChange></FrequencyChanges></Clock>\n",60.032,1,864441538,0,,-999999,7,45088,t,65100,110188,5/7/2014,13:45:49,8:45:49 PM,2,Session2,SessionsList,0,,-999999,17,748304,t,33952,782256,733678,2,1,2,3,,,,1096780,,,,3,1,3,Cued4,MiniBlocks2,,,,,2,1,r,-999999,5,1128281,r,877,1129158,White,Incongruent,r,Red,0,,0,10,1118286,,0,0,,,,,,,,,,2,1,2,Pictures\red.bmp,9000,2000,Pictures\black.bmp,,,,,,,,,,,,,StimulusPr,Pictures\right.bmp,CuedStim4,Right
POP_2,16050,1,"<?xml version=""1.0""?>\n<Clock xmlns:dt=""urn:schemas-microsoft-com:datatypes""><Description dt:dt=""string"">E-Prime Primary Realtime Clock</Description><StartTime><Timestamp dt:dt=""int"">0</Timestamp><DateUtc dt:dt=""string"">2014-05-07T20:45:48Z</DateUtc></StartTime><FrequencyChanges><FrequencyChange><Frequency dt:dt=""r8"">2793030000</Frequency><Timestamp dt:dt=""r8"">24082202784229</Timestamp><Current dt:dt=""r8"">0</Current><DateUtc dt:dt=""string"">2014-05-07T20:45:48Z</DateUtc></FrequencyChange></FrequencyChanges></Clock>\n",60.032,1,864441538,0,,-999999,7,45088,t,65100,110188,5/7/2014,13:45:49,8:45:49 PM,2,Session2,SessionsList,0,,-999999,17,748304,t,33952,782256,733678,2,1,2,3,,,,1096780,,,,3,1,3,Cued4,MiniBlocks2,,,,,3,1,b,-999999,6,1136277,b,330,1136607,White,Congruent,b,Green,0,,0,3,1132279,,0,0,,,,,,,,,,3,1,3,Pictures\green.bmp,3000,4000,Pictures\black.bmp,,,,,,,,,,,,,StimulusPr,Pictures\right.bmp,CuedStim4,Right
POP_2,16050,1,"<?xml version=""1.0""?>\n<Clock xmlns:dt=""urn:schemas-microsoft-com:datatypes""><Description dt:dt=""string"">E-Prime Primary Realtime Clock</Description><StartTime><Timestamp dt:dt=""int"">0</Timestamp><DateUtc dt:dt=""string"">2014-05-07T20:45:48Z</DateUtc></StartTime><FrequencyChanges><FrequencyChange><Frequency dt:dt=""r8"">2793030000</Frequency><Timestamp dt:dt=""r8"">24082202784229</Timestamp><Current dt:dt=""r8"">0</Current><DateUtc dt:dt=""string"">2014-05-07T20:45:48Z</DateUtc></FrequencyChange></FrequencyChanges></Clock>\n",60.032,1,864441538,0,,-999999,7,45088,t,65100,110188,5/7/2014,13:45:49,8:45:49 PM,2,Session2,SessionsList,0,,-999999,17,748304,t,33952,782256,733678,2,1,2,3,,,,1096780,,,,3,1,3,Cued4,MiniBlocks2,,,,,4,1,r,-999999,17,1146288,r,299,1146587,White,Congruent,r,Green,0,,0,3,1142274,,0,0,,,,,,,,,,4,1,4,Pictures\green.bmp,3000,4000,Pictures\left.bmp,,,,,,,,,,,,,StimulusPr,Pictures\black.bmp,CuedStim4,Left
POP_2,16050,1,"<?xml version=""1.0""?>\n<Clock xmlns:dt=""urn:schemas-microsoft-com:datatypes""><Description dt:dt=""string"">E-Prime Primary Realtime Clock</Description><StartTime><Timestamp dt:dt=""int"">0</Timestamp><DateUtc dt:dt=""string"">2014-05-07T20:45:48Z</DateUtc></StartTime><FrequencyChanges><FrequencyChange><Frequency dt:dt=""r8"">2793030000</Frequency><Timestamp dt:dt=""r8"">24082202784229</Timestamp><Current dt:dt=""r8"">0</Current><DateUtc dt:dt=""string"">2014-05-07T20:45:48Z</DateUtc></FrequencyChange></FrequencyChanges></Clock>\n",60.032,1,864441538,0,,-999999,7,45088,t,65100,110188,5/7/2014,13:45:49,8:45:49 PM,2,Session2,SessionsList,0,,-999999,17,748304,t,33952,782256,733678,2,1,2,3,,,,1096780,,,,3,1,3,Cued4,MiniBlocks2,,,,,5,1,b,-999999,12,1157283,b,379,1157662,White,Incongruent,b,Red,0,,0,8,1152269,,0,0,,,,,,,,,,5,1,5,Pictures\red.bmp,4000,16000,Pictures\left.bmp,,,,,,,,,,,,,StimulusPr,Pictures\black.bmp,CuedStim4,Left
POP_2,16050,1,"<?xml version=""1.0""?>\n<Clock xmlns:dt=""urn:schemas-microsoft-com:datatypes""><Description dt:dt=""string"">E-Prime Primary Realtime Clock</Description><StartTime><Timestamp dt:dt=""int"">0</Timestamp><DateUtc dt:dt=""string"">2014-05-07T20:45:48Z</DateUtc></StartTime><FrequencyChanges><FrequencyChange><Frequency dt:dt=""r8"">2793030000</Frequency><Timestamp dt:dt=""r8"">24082202784229</Timestamp><Current dt:dt=""r8"">0</Current><DateUtc dt:dt=""string"">2014-05-07T20:45:48Z</DateUtc></FrequencyChange></FrequencyChanges></Clock>\n",60.032,1,864441538,0,,-999999,7,45088,t,65100,110188,5/7/2014,13:45:49,8:45:49 PM,2,Session2,SessionsList,0,,-999999,17,748304,t,33952,782256,733678,2,1,2,3,,,,1096780,,,,3,1,3,Cued4,MiniBlocks2,,,,,6,1,b,-999999,15,1179272,b,413,1179685,White,Congruent,b,Green,0,,0,3,1175274,,0,0,,,,,,,,,,6,1,6,Pictures\green.bmp,3000,2000,Pictures\black.bmp,,,,,,,,,,,,,StimulusPr,Pictures\right.bmp,CuedStim4,Right
POP_2,16050,1,"<?xml version=""1.0""?>\n<Clock xmlns:dt=""urn:schemas-microsoft-com:datatypes""><Description dt:dt=""string"">E-Prime Primary Realtime Clock</Description><StartTime><Timestamp dt:dt=""int"">0</Timestamp><DateUtc dt:dt=""string"">2014-05-07T20:45:48Z</DateUtc></StartTime><FrequencyChanges><FrequencyChange><Frequency dt:dt=""r8"">2793030000</Frequency><Timestamp dt:dt=""r8"">24082202784229</Timestamp><Current dt:dt=""r8"">0</Current><DateUtc dt:dt=""string"">2014-05-07T20:45:48Z</DateUtc></FrequencyChange></FrequencyChanges></Clock>\n",60.032,1,864441538,0,,-999999,7,45088,t,65100,110188,5/7/2014,13:45:49,8:45:49 PM,2,Session2,SessionsList,0,,-999999,17,748304,t,33952,782256,733678,2,1,2,3,,,,1096780,,,,3,1,3,Cued4,MiniBlocks2,,,,,7,1,b,-999999,11,1193282,b,350,1193632,White,Congruent,b,Green,0,,0,16,1183287,,0,0,,,,,,,,,,7,1,7,Pictures\green.bmp,9000,10000,Pictures\black.bmp,,,,,,,,,,,,,StimulusPr,Pictures\right.bmp,CuedStim4,Right
POP_2,16050,1,"<?xml version=""1.0""?>\n<Clock xmlns:dt=""urn:schemas-microsoft-com:datatypes""><Description dt:dt=""string"">E-Prime Primary Realtime Clock</Description><StartTime><Timestamp dt:dt=""int"">0</Timestamp><DateUtc dt:dt=""string"">2014-05-07T20:45:48Z</DateUtc></StartTime><FrequencyChanges><FrequencyChange><Frequency dt:dt=""r8"">2793030000</Frequency><Timestamp dt:dt=""r8"">24082202784229</Timestamp><Current dt:dt=""r8"">0</Current><DateUtc dt:dt=""string"">2014-05-07T20:45:48Z</DateUtc></FrequencyChange></FrequencyChanges></Clock>\n",60.032,1,864441538,0,,-999999,7,45088,t,65100,110188,5/7/2014,13:45:49,8:45:49 PM,2,Session2,SessionsList,0,,-999999,17,748304,t,33952,782256,733678,2,1,2,3,,,,1096780,,,,3,1,3,Cued4,MiniBlocks2,,,,,8,1,b,-999999,9,1212272,b,443,1212715,White,Incongruent,b,Red,0,,0,5,1205276,,0,0,,,,,,,,,,8,1,8,Pictures\red.bmp,6000,10000,Pictures\left.bmp,,,,,,,,,,,,,StimulusPr,Pictures\black.bmp,CuedStim4,Left
POP_2,16050,1,"<?xml version=""1.0""?>\n<Clock xmlns:dt=""urn:schemas-microsoft-com:datatypes""><Description dt:dt=""string"">E-Prime Primary Realtime Clock</Description><StartTime><Timestamp dt:dt=""int"">0</Timestamp><DateUtc dt:dt=""string"">2014-05-07T20:45:48Z</DateUtc></StartTime><FrequencyChanges><FrequencyChange><Frequency dt:dt=""r8"">2793030000</Frequency><Timestamp dt:dt=""r8"">24082202784229</Timestamp><Current dt:dt=""r8"">0</Current><DateUtc dt:dt=""string"">2014-05-07T20:45:48Z</DateUtc></FrequencyChange></FrequencyChanges></Clock>\n",60.032,1,864441538,0,,-999999,7,45088,t,65100,110188,5/7/2014,13:45:49,8:45:49 PM,2,Session2,SessionsList,0,,-999999,17,748304,t,33952,782256,733678,2,1,2,3,,,,1096780,,,,3,1,3,Cued4,MiniBlocks2,,,,,9,0,r,-999999,4,1231279,b,622,1231901,White,Congruent,r,Green,0,,0,1,1224266,,0,0,,,,,,,,,,9,1,9,Pictures\green.bmp,6000,16000,Pictures\left.bmp,,,,,,,,,,,,,StimulusPr,Pictures\black.bmp,CuedStim4,Left
POP_2,16050,1,"<?xml version=""1.0""?>\n<Clock xmlns:dt=""urn:schemas-microsoft-com:datatypes""><Description dt:dt=""string"">E-Prime Primary Realtime Clock</Description><StartTime><Timestamp dt:dt=""int"">0</Timestamp><DateUtc dt:dt=""string"">2014-05-07T20:45:48Z</DateUtc></StartTime><FrequencyChanges><FrequencyChange><Frequency dt:dt=""r8"">2793030000</Frequency><Timestamp dt:dt=""r8"">24082202784229</Timestamp><Current dt:dt=""r8"">0</Current><DateUtc dt:dt=""string"">2014-05-07T20:45:48Z</DateUtc></FrequencyChange></FrequencyChanges></Clock>\n",60.032,1,864441538,0,,-999999,7,45088,t,65100,110188,5/7/2014,13:45:49,8:45:49 PM,2,Session2,SessionsList,0,,-999999,17,748304,t,33952,782256,733678,2,1,2,3,,,,1096780,,,,3,1,3,Cued4,MiniBlocks2,,,,,10,1,r,-999999,13,1254284,r,329,1254613,White,Congruent,r,Green,0,,0,16,1249287,,0,0,,,,,,,,,,10,1,10,Pictures\green.bmp,4000,2000,Pictures\left.bmp,,,,,,,,,,,,,StimulusPr,Pictures\black.bmp,CuedStim4,Left
POP_2,16050,1,"<?xml version=""1.0""?>\n<Clock xmlns:dt=""urn:schemas-microsoft-com:datatypes""><Description dt:dt=""string"">E-Prime Primary Realtime Clock</Description><StartTime><Timestamp dt:dt=""int"">0</Timestamp><DateUtc dt:dt=""string"">2014-05-07T20:45:48Z</DateUtc></StartTime><FrequencyChanges><FrequencyChange><Frequency dt:dt=""r8"">2793030000</Frequency><Timestamp dt:dt=""r8"">24082202784229</Timestamp><Current dt:dt=""r8"">0</Current><DateUtc dt:dt=""string"">2014-05-07T20:45:48Z</DateUtc></FrequencyChange></FrequencyChanges></Clock>\n",60.032,1,864441538,0,,-999999,7,45088,t,65100,110188,5/7/2014,13:45:49,8:45:49 PM,2,Session2,SessionsList,0,,-999999,17,748304,t,33952,782256,733678,2,1,2,4,,,,,,,,4,1,4,NonCued4,MiniBlocks2,,,,1256633,1,1,r,-999999,5,1270276,r,478,1270754,Green,Congruent,r,White,0,,0,7,1266278,,0,0,,,,,,,,,,,,,Pictures\white.bmp,3000,2000,Pictures\GreenLeft.bmp,,,,,,,,,,1,1,1,StimulusPr,Pictures\black.bmp,NonCuedStim4,Left
POP_2,16050,1,"<?xml version=""1.0""?>\n<Clock xmlns:dt=""urn:schemas-microsoft-com:datatypes""><Description dt:dt=""string"">E-Prime Primary Realtime Clock</Description><StartTime><Timestamp dt:dt=""int"">0</Timestamp><DateUtc dt:dt=""string"">2014-05-07T20:45:48Z</DateUtc></StartTime><FrequencyChanges><FrequencyChange><Frequency dt:dt=""r8"">2793030000</Frequency><Timestamp dt:dt=""r8"">24082202784229</Timestamp><Current dt:dt=""r8"">0</Current><DateUtc dt:dt=""string"">2014-05-07T20:45:48Z</DateUtc></FrequencyChange></FrequencyChanges></Clock>\n",60.032,1,864441538,0,,-999999,7,45088,t,65100,110188,5/7/2014,13:45:49,8:45:49 PM,2,Session2,SessionsList,0,,-999999,17,748304,t,33952,782256,733678,2,1,2,4,,,,,,,,4,1,4,NonCued4,MiniBlocks2,,,,1256633,2,1,r,-999999,14,1279289,r,341,1279630,Green,Congruent,r,White,0,,0,3,1274274,,0,0,,,,,,,,,,,,,Pictures\white.bmp,4000,2000,Pictures\GreenLeft.bmp,,,,,,,,,,2,1,2,StimulusPr,Pictures\black.bmp,NonCuedStim4,Left
POP_2,16050,1,"<?xml version=""1.0""?>\n<Clock xmlns:dt=""urn:schemas-microsoft-com:datatypes""><Description dt:dt=""string"">E-Prime Primary Realtime Clock</Description><StartTime><Timestamp dt:dt=""int"">0</Timestamp><DateUtc dt:dt=""string"">2014-05-07T20:45:48Z</DateUtc></StartTime><FrequencyChanges><FrequencyChange><Frequency dt:dt=""r8"">2793030000</Frequency><Timestamp dt:dt=""r8"">24082202784229</Timestamp><Current dt:dt=""r8"">0</Current><DateUtc dt:dt=""string"">2014-05-07T20:45:48Z</DateUtc></FrequencyChange></FrequencyChanges></Clock>\n",60.032,1,864441538,0,,-999999,7,45088,t,65100,110188,5/7/2014,13:45:49,8:45:49 PM,2,Session2,SessionsList,0,,-999999,17,748304,t,33952,782256,733678,2,1,2,4,,,,,,,,4,1,4,NonCued4,MiniBlocks2,,,,1256633,3,1,r,-999999,8,1288284,r,503,1288787,Red,Incongruent,r,White,0,,0,15,1283270,,0,0,,,,,,,,,,,,,Pictures\white.bmp,4000,2000,Pictures\black.bmp,,,,,,,,,,3,1,3,StimulusPr,Pictures\RedRight.bmp,NonCuedStim4,Right
POP_2,16050,1,"<?xml version=""1.0""?>\n<Clock xmlns:dt=""urn:schemas-microsoft-com:datatypes""><Description dt:dt=""string"">E-Prime Primary Realtime Clock</Description><StartTime><Timestamp dt:dt=""int"">0</Timestamp><DateUtc dt:dt=""string"">2014-05-07T20:45:48Z</DateUtc></StartTime><FrequencyChanges><FrequencyChange><Frequency dt:dt=""r8"">2793030000</Frequency><Timestamp dt:dt=""r8"">24082202784229</Timestamp><Current dt:dt=""r8"">0</Current><DateUtc dt:dt=""string"">2014-05-07T20:45:48Z</DateUtc></FrequencyChange></FrequencyChanges></Clock>\n",60.032,1,864441538,0,,-999999,7,45088,t,65100,110188,5/7/2014,13:45:49,8:45:49 PM,2,Session2,SessionsList,0,,-999999,17,748304,t,33952,782256,733678,2,1,2,4,,,,,,,,4,1,4,NonCued4,MiniBlocks2,,,,1256633,4,1,b,-999999,4,1296280,b,626,1296906,Green,Congruent,b,White,0,,0,6,1292282,,0,0,,,,,,,,,,,,,Pictures\white.bmp,3000,16000,Pictures\black.bmp,,,,,,,,,,4,1,4,StimulusPr,Pictures\GreenRight.bmp,NonCuedStim4,Right
POP_2,16050,1,"<?xml version=""1.0""?>\n<Clock xmlns:dt=""urn:schemas-microsoft-com:datatypes""><Description dt:dt=""string"">E-Prime Primary Realtime Clock</Description><StartTime><Timestamp dt:dt=""int"">0</Timestamp><DateUtc dt:dt=""string"">2014-05-07T20:45:48Z</DateUtc></StartTime><FrequencyChanges><FrequencyChange><Frequency dt:dt=""r8"">2793030000</Frequency><Timestamp dt:dt=""r8"">24082202784229</Timestamp><Current dt:dt=""r8"">0</Current><DateUtc dt:dt=""string"">2014-05-07T20:45:48Z</DateUtc></FrequencyChange></FrequencyChanges></Clock>\n",60.032,1,864441538,0,,-999999,7,45088,t,65100,110188,5/7/2014,13:45:49,8:45:49 PM,2,Session2,SessionsList,0,,-999999,17,748304,t,33952,782256,733678,2,1,2,4,,,,,,,,4,1,4,NonCued4,MiniBlocks2,,,,1256633,5,1,r,-999999,7,1324283,r,463,1324746,Green,Congruent,r,White,0,,0,17,1314288,,0,0,,,,,,,,,,,,,Pictures\white.bmp,9000,10000,Pictures\GreenLeft.bmp,,,,,,,,,,5,1,5,StimulusPr,Pictures\black.bmp,NonCuedStim4,Left
POP_2,16050,1,"<?xml version=""1.0""?>\n<Clock xmlns:dt=""urn:schemas-microsoft-com:datatypes""><Description dt:dt=""string"">E-Prime Primary Realtime Clock</Description><StartTime><Timestamp dt:dt=""int"">0</Timestamp><DateUtc dt:dt=""string"">2014-05-07T20:45:48Z</DateUtc></StartTime><FrequencyChanges><FrequencyChange><Frequency dt:dt=""r8"">2793030000</Frequency><Timestamp dt:dt=""r8"">24082202784229</Timestamp><Current dt:dt=""r8"">0</Current><DateUtc dt:dt=""string"">2014-05-07T20:45:48Z</DateUtc></FrequencyChange></FrequencyChanges></Clock>\n",60.032,1,864441538,0,,-999999,7,45088,t,65100,110188,5/7/2014,13:45:49,8:45:49 PM,2,Session2,SessionsList,0,,-999999,17,748304,t,33952,782256,733678,2,1,2,4,,,,,,,,4,1,4,NonCued4,MiniBlocks2,,,,1256633,6,1,b,-999999,15,1340291,b,767,1341058,Green,Congruent,b,White,0,,0,17,1336293,,0,0,,,,,,,,,,,,,Pictures\white.bmp,3000,16000,Pictures\black.bmp,,,,,,,,,,6,1,6,StimulusPr,Pictures\GreenRight.bmp,NonCuedStim4,Right
POP_2,16050,1,"<?xml version=""1.0""?>\n<Clock xmlns:dt=""urn:schemas-microsoft-com:datatypes""><Description dt:dt=""string"">E-Prime Primary Realtime Clock</Description><StartTime><Timestamp dt:dt=""int"">0</Timestamp><DateUtc dt:dt=""string"">2014-05-07T20:45:48Z</DateUtc></StartTime><FrequencyChanges><FrequencyChange><Frequency dt:dt=""r8"">2793030000</Frequency><Timestamp dt:dt=""r8"">24082202784229</Timestamp><Current dt:dt=""r8"">0</Current><DateUtc dt:dt=""string"">2014-05-07T20:45:48Z</DateUtc></FrequencyChange></FrequencyChanges></Clock>\n",60.032,1,864441538,0,,-999999,7,45088,t,65100,110188,5/7/2014,13:45:49,8:45:49 PM,2,Session2,SessionsList,0,,-999999,17,748304,t,33952,782256,733678,2,1,2,4,,,,,,,,4,1,4,NonCued4,MiniBlocks2,,,,1256633,7,1,b,-999999,10,1362281,b,504,1362785,Red,Incongruent,b,White,0,,0,11,1358282,,0,0,,,,,,,,,,,,,Pictures\white.bmp,3000,16000,Pictures\RedLeft.bmp,,,,,,,,,,7,1,7,StimulusPr,Pictures\black.bmp,NonCuedStim4,Left
POP_2,16050,1,"<?xml version=""1.0""?>\n<Clock xmlns:dt=""urn:schemas-microsoft-com:datatypes""><Description dt:dt=""string"">E-Prime Primary Realtime Clock</Description><StartTime><Timestamp dt:dt=""int"">0</Timestamp><DateUtc dt:dt=""string"">2014-05-07T20:45:48Z</DateUtc></StartTime><FrequencyChanges><FrequencyChange><Frequency dt:dt=""r8"">2793030000</Frequency><Timestamp dt:dt=""r8"">24082202784229</Timestamp><Current dt:dt=""r8"">0</Current><DateUtc dt:dt=""string"">2014-05-07T20:45:48Z</DateUtc></FrequencyChange></FrequencyChanges></Clock>\n",60.032,1,864441538,0,,-999999,7,45088,t,65100,110188,5/7/2014,13:45:49,8:45:49 PM,2,Session2,SessionsList,0,,-999999,17,748304,t,33952,782256,733678,2,1,2,4,,,,,,,,4,1,4,NonCued4,MiniBlocks2,,,,1256633,8,1,r,-999999,10,1384286,r,457,1384743,Green,Congruent,r,White,0,,0,12,1380288,,0,0,,,,,,,,,,,,,Pictures\white.bmp,3000,2000,Pictures\GreenLeft.bmp,,,,,,,,,,8,1,8,StimulusPr,Pictures\black.bmp,NonCuedStim4,Left
POP_2,16050,1,"<?xml version=""1.0""?>\n<Clock xmlns:dt=""urn:schemas-microsoft-com:datatypes""><Description dt:dt=""string"">E-Prime Primary Realtime Clock</Description><StartTime><Timestamp dt:dt=""int"">0</Timestamp><DateUtc dt:dt=""string"">2014-05-07T20:45:48Z</DateUtc></StartTime><FrequencyChanges><FrequencyChange><Frequency dt:dt=""r8"">2793030000</Frequency><Timestamp dt:dt=""r8"">24082202784229</Timestamp><Current dt:dt=""r8"">0</Current><DateUtc dt:dt=""string"">2014-05-07T20:45:48Z</DateUtc></FrequencyChange></FrequencyChanges></Clock>\n",60.032,1,864441538,0,,-999999,7,45088,t,65100,110188,5/7/2014,13:45:49,8:45:49 PM,2,Session2,SessionsList,0,,-999999,17,748304,t,33952,782256,733678,2,1,2,4,,,,,,,,4,1,4,NonCued4,MiniBlocks2,,,,1256633,9,1,b,-999999,5,1395281,b,376,1395657,Green,Congruent,b,White,0,,0,8,1388284,,0,0,,,,,,,,,,,,,Pictures\white.bmp,6000,2000,Pictures\black.bmp,,,,,,,,,,9,1,9,StimulusPr,Pictures\GreenRight.bmp,NonCuedStim4,Right
POP_2,16050,1,"<?xml version=""1.0""?>\n<Clock xmlns:dt=""urn:schemas-microsoft-com:datatypes""><Description dt:dt=""string"">E-Prime Primary Realtime Clock</Description><StartTime><Timestamp dt:dt=""int"">0</Timestamp><DateUtc dt:dt=""string"">2014-05-07T20:45:48Z</DateUtc></StartTime><FrequencyChanges><FrequencyChange><Frequency dt:dt=""r8"">2793030000</Frequency><Timestamp dt:dt=""r8"">24082202784229</Timestamp><Current dt:dt=""r8"">0</Current><DateUtc dt:dt=""string"">2014-05-07T20:45:48Z</DateUtc></FrequencyChange></FrequencyChanges></Clock>\n",60.032,1,864441538,0,,-999999,7,45088,t,65100,110188,5/7/2014,13:45:49,8:45:49 PM,2,Session2,SessionsList,0,,-999999,17,748304,t,33952,782256,733678,2,1,2,4,,,,,,,,4,1,4,NonCued4,MiniBlocks2,,,,1256633,10,1,b,-999999,17,1404293,b,333,1404626,Green,Congruent,b,White,0,,0,3,1399279,,0,0,,,,,,,,,,,,,Pictures\white.bmp,4000,4000,Pictures\black.bmp,,,,,,,,,,10,1,10,StimulusPr,Pictures\GreenRight.bmp,NonCuedStim4,Right
