ExperimentName,Subject,Session,Clock.Information,Display.RefreshRate,Group,RandomSeed,Session1Onset.ACC,Session1Onset.CRESP,Session1Onset.DurationError,Session1Onset.OnsetDelay,Session1Onset.OnsetTime,Session1Onset.RESP,Session1Onset.RT,Session1Onset.RTTime,SessionDate,SessionTime,SessionTimeUtc,Block,Procedure[Block],Running[Block],Session2Onset.ACC,Session2Onset.CRESP,Session2Onset.DurationError,Session2Onset.OnsetDelay,Session2Onset.OnsetTime,Session2Onset.RESP,Session2Onset.RT,Session2Onset.RTTime,SessionBreak.OnsetTime,SessionsList,SessionsList.Cycle,SessionsList.Sample,Trial,CuedPrompt1.OnsetTime,CuedPrompt2.OnsetTime,CuedPrompt3.OnsetTime,CuedPrompt4.OnsetTime,MiniBlocks1,MiniBlocks1.Cycle,MiniBlocks1.Sample,MiniBlocks2,MiniBlocks2.Cycle,MiniBlocks2.Sample,Procedure[Trial],Running[Trial],UncuedPrompt1.OnsetTime,UncuedPrompt2.OnsetTime,UncuedPrompt3.OnsetTime,UncuedPrompt4.OnsetTime,SubTrial,Arrow1.ACC,Arrow1.CRESP,Arrow1.DurationError,Arrow1.OnsetDelay,Arrow1.OnsetTime,Arrow1.RESP,Arrow1.RT,Arrow1.RTTime,ArrowColor,Congruence,CorrectResp,Cue,Cue.ACC,Cue.CRESP,Cue.DurationError,Cue.OnsetDelay,Cue.OnsetTime,Cue.RESP,Cue.RT,Cue.RTTime,CuedStim1,CuedStim1.Cycle,CuedStim1.Sample,CuedStim2,CuedStim2.Cycle,CuedStim2.Sample,CuedStim3,CuedStim3.Cycle,CuedStim3.Sample,CuedStim4,CuedStim4.Cycle,CuedStim4.Sample,CueImage,JitterCue,JitterTrial,LeftImage,NonCuedStim1,NonCuedStim1.Cycle,NonCuedStim1.Sample,NonCuedStim2,NonCuedStim2.Cycle,NonCuedStim2.Sample,NonCuedStim3,NonCuedStim3.Cycle,NonCuedStim3.Sample,NonCuedStim4,NonCuedStim4.Cycle,NonCuedStim4.Sample,Procedure[SubTrial],RightImage,Running[SubTrial],Stimulus
POP_2,16066,1,"<?xml version=""1.0""?>\n<Clock xmlns:dt=""urn:schemas-microsoft-com:datatypes""><Description dt:dt=""string"">E-Prime Primary Realtime Clock</Description><StartTime><Timestamp dt:dt=""int"">0</Timestamp><DateUtc dt:dt=""string"">2014-05-14T20:48:24Z</DateUtc></StartTime><FrequencyChanges><FrequencyChange><Frequency dt:dt=""r8"">2793030000</Frequency><Timestamp dt:dt=""r8"">1.71373784361091E+15</Timestamp><Current dt:dt=""r8"">0</Current><DateUtc dt:dt=""string"">2014-05-14T20:48:24Z</DateUtc></FrequencyChange></FrequencyChanges></Clock>\n",60.03,1,-819504332,0,,-999999,1,44637,t,51424,96061,5/14/2014,13:48:25,8:48:25 PM,1,Session1,SessionsList,,,,,,,,,,1,1,1,1,96078,,,,1,1,1,,,,Cued1,MiniBlocks1,,,,,1,1,r,-999999,121,110171,r,1999,112170,White,Congruent,r,Green,0,,0,72,105124,,0,0,1,1,1,,,,,,,,,,Pictures\green.bmp,4000,4000,Pictures\left.bmp,,,,,,,,,,,,,StimulusPr,Pictures\black.bmp,CuedStim1,Left
POP_2,16066,1,"<?xml version=""1.0""?>\n<Clock xmlns:dt=""urn:schemas-microsoft-com:datatypes""><Description dt:dt=""string"">E-Prime Primary Realtime Clock</Description><StartTime><Timestamp dt:dt=""int"">0</Timestamp><DateUtc dt:dt=""string"">2014-05-14T20:48:24Z</DateUtc></StartTime><FrequencyChanges><FrequencyChange><Frequency dt:dt=""r8"">2793030000</Frequency><Timestamp dt:dt=""r8"">1.71373784361091E+15</Timestamp><Current dt:dt=""r8"">0</Current><DateUtc dt:dt=""string"">2014-05-14T20:48:24Z</DateUtc></FrequencyChange></FrequencyChanges></Clock>\n",60.03,1,-819504332,0,,-999999,1,44637,t,51424,96061,5/14/2014,13:48:25,8:48:25 PM,1,Session1,SessionsList,,,,,,,,,,1,1,1,1,96078,,,,1,1,1,,,,Cued1,MiniBlocks1,,,,,2,1,b,-999999,69,125130,b,559,125689,White,Congruent,b,Green,0,,0,6,118051,,0,0,2,1,2,,,,,,,,,,Pictures\green.bmp,6000,2000,Pictures\black.bmp,,,,,,,,,,,,,StimulusPr,Pictures\right.bmp,CuedStim1,Right
POP_2,16066,1,"<?xml version=""1.0""?>\n<Clock xmlns:dt=""urn:schemas-microsoft-com:datatypes""><Description dt:dt=""string"">E-Prime Primary Realtime Clock</Description><StartTime><Timestamp dt:dt=""int"">0</Timestamp><DateUtc dt:dt=""string"">2014-05-14T20:48:24Z</DateUtc></StartTime><FrequencyChanges><FrequencyChange><Frequency dt:dt=""r8"">2793030000</Frequency><Timestamp dt:dt=""r8"">1.71373784361091E+15</Timestamp><Current dt:dt=""r8"">0</Current><DateUtc dt:dt=""string"">2014-05-14T20:48:24Z</DateUtc></FrequencyChange></FrequencyChanges></Clock>\n",60.03,1,-819504332,0,,-999999,1,44637,t,51424,96061,5/14/2014,13:48:25,8:48:25 PM,1,Session1,SessionsList,,,,,,,,,,1,1,1,1,96078,,,,1,1,1,,,,Cued1,MiniBlocks1,,,,,3,1,b,-999999,15,133076,b,468,133544,White,Congruent,b,Green,0,,0,17,129078,,0,0,3,1,3,,,,,,,,,,Pictures\green.bmp,3000,2000,Pictures\black.bmp,,,,,,,,,,,,,StimulusPr,Pictures\right.bmp,CuedStim1,Right
POP_2,16066,1,"<?xml version=""1.0""?>\n<Clock xmlns:dt=""urn:schemas-microsoft-com:datatypes""><Description dt:dt=""string"">E-Prime Primary Realtime Clock</Description><StartTime><Timestamp dt:dt=""int"">0</Timestamp><DateUtc dt:dt=""string"">2014-05-14T20:48:24Z</DateUtc></StartTime><FrequencyChanges><FrequencyChange><Frequency dt:dt=""r8"">2793030000</Frequency><Timestamp dt:dt=""r8"">1.71373784361091E+15</Timestamp><Current dt:dt=""r8"">0</Current><DateUtc dt:dt=""string"">2014-05-14T20:48:24Z</DateUtc></FrequencyChange></FrequencyChanges></Clock>\n",60.03,1,-819504332,0,,-999999,1,44637,t,51424,96061,5/14/2014,13:48:25,8:48:25 PM,1,Session1,SessionsList,,,,,,,,,,1,1,1,1,96078,,,,1,1,1,,,,Cued1,MiniBlocks1,,,,,4,1,b,-999999,11,141072,b,479,141551,White,Incongruent,b,Red,0,,0,63,137124,,0,0,4,1,4,,,,,,,,,,Pictures\red.bmp,3000,16000,Pictures\left.bmp,,,,,,,,,,,,,StimulusPr,Pictures\black.bmp,CuedStim1,Left
POP_2,16066,1,"<?xml version=""1.0""?>\n<Clock xmlns:dt=""urn:schemas-microsoft-com:datatypes""><Description dt:dt=""string"">E-Prime Primary Realtime Clock</Description><StartTime><Timestamp dt:dt=""int"">0</Timestamp><DateUtc dt:dt=""string"">2014-05-14T20:48:24Z</DateUtc></StartTime><FrequencyChanges><FrequencyChange><Frequency dt:dt=""r8"">2793030000</Frequency><Timestamp dt:dt=""r8"">1.71373784361091E+15</Timestamp><Current dt:dt=""r8"">0</Current><DateUtc dt:dt=""string"">2014-05-14T20:48:24Z</DateUtc></FrequencyChange></FrequencyChanges></Clock>\n",60.03,1,-819504332,0,,-999999,1,44637,t,51424,96061,5/14/2014,13:48:25,8:48:25 PM,1,Session1,SessionsList,,,,,,,,,,1,1,1,1,96078,,,,1,1,1,,,,Cued1,MiniBlocks1,,,,,5,1,r,-999999,17,163078,r,483,163561,White,Congruent,r,Green,0,,0,3,159064,,0,0,5,1,5,,,,,,,,,,Pictures\green.bmp,3000,16000,Pictures\left.bmp,,,,,,,,,,,,,StimulusPr,Pictures\black.bmp,CuedStim1,Left
POP_2,16066,1,"<?xml version=""1.0""?>\n<Clock xmlns:dt=""urn:schemas-microsoft-com:datatypes""><Description dt:dt=""string"">E-Prime Primary Realtime Clock</Description><StartTime><Timestamp dt:dt=""int"">0</Timestamp><DateUtc dt:dt=""string"">2014-05-14T20:48:24Z</DateUtc></StartTime><FrequencyChanges><FrequencyChange><Frequency dt:dt=""r8"">2793030000</Frequency><Timestamp dt:dt=""r8"">1.71373784361091E+15</Timestamp><Current dt:dt=""r8"">0</Current><DateUtc dt:dt=""string"">2014-05-14T20:48:24Z</DateUtc></FrequencyChange></FrequencyChanges></Clock>\n",60.03,1,-819504332,0,,-999999,1,44637,t,51424,96061,5/14/2014,13:48:25,8:48:25 PM,1,Session1,SessionsList,,,,,,,,,,1,1,1,1,96078,,,,1,1,1,,,,Cued1,MiniBlocks1,,,,,6,1,r,-999999,18,191064,r,537,191601,White,Congruent,r,Green,0,,0,5,181053,,0,0,6,1,6,,,,,,,,,,Pictures\green.bmp,9000,10000,Pictures\left.bmp,,,,,,,,,,,,,StimulusPr,Pictures\black.bmp,CuedStim1,Left
POP_2,16066,1,"<?xml version=""1.0""?>\n<Clock xmlns:dt=""urn:schemas-microsoft-com:datatypes""><Description dt:dt=""string"">E-Prime Primary Realtime Clock</Description><StartTime><Timestamp dt:dt=""int"">0</Timestamp><DateUtc dt:dt=""string"">2014-05-14T20:48:24Z</DateUtc></StartTime><FrequencyChanges><FrequencyChange><Frequency dt:dt=""r8"">2793030000</Frequency><Timestamp dt:dt=""r8"">1.71373784361091E+15</Timestamp><Current dt:dt=""r8"">0</Current><DateUtc dt:dt=""string"">2014-05-14T20:48:24Z</DateUtc></FrequencyChange></FrequencyChanges></Clock>\n",60.03,1,-819504332,0,,-999999,1,44637,t,51424,96061,5/14/2014,13:48:25,8:48:25 PM,1,Session1,SessionsList,,,,,,,,,,1,1,1,1,96078,,,,1,1,1,,,,Cued1,MiniBlocks1,,,,,7,1,b,-999999,12,207073,b,574,207647,White,Congruent,b,Green,0,,0,13,203058,,0,0,7,1,7,,,,,,,,,,Pictures\green.bmp,3000,16000,Pictures\black.bmp,,,,,,,,,,,,,StimulusPr,Pictures\right.bmp,CuedStim1,Right
POP_2,16066,1,"<?xml version=""1.0""?>\n<Clock xmlns:dt=""urn:schemas-microsoft-com:datatypes""><Description dt:dt=""string"">E-Prime Primary Realtime Clock</Description><StartTime><Timestamp dt:dt=""int"">0</Timestamp><DateUtc dt:dt=""string"">2014-05-14T20:48:24Z</DateUtc></StartTime><FrequencyChanges><FrequencyChange><Frequency dt:dt=""r8"">2793030000</Frequency><Timestamp dt:dt=""r8"">1.71373784361091E+15</Timestamp><Current dt:dt=""r8"">0</Current><DateUtc dt:dt=""string"">2014-05-14T20:48:24Z</DateUtc></FrequencyChange></FrequencyChanges></Clock>\n",60.03,1,-819504332,0,,-999999,1,44637,t,51424,96061,5/14/2014,13:48:25,8:48:25 PM,1,Session1,SessionsList,,,,,,,,,,1,1,1,1,96078,,,,1,1,1,,,,Cued1,MiniBlocks1,,,,,8,1,r,-999999,18,230078,r,452,230530,White,Incongruent,r,Red,0,,0,14,225064,,0,0,8,1,8,,,,,,,,,,Pictures\red.bmp,4000,2000,Pictures\black.bmp,,,,,,,,,,,,,StimulusPr,Pictures\right.bmp,CuedStim1,Right
POP_2,16066,1,"<?xml version=""1.0""?>\n<Clock xmlns:dt=""urn:schemas-microsoft-com:datatypes""><Description dt:dt=""string"">E-Prime Primary Realtime Clock</Description><StartTime><Timestamp dt:dt=""int"">0</Timestamp><DateUtc dt:dt=""string"">2014-05-14T20:48:24Z</DateUtc></StartTime><FrequencyChanges><FrequencyChange><Frequency dt:dt=""r8"">2793030000</Frequency><Timestamp dt:dt=""r8"">1.71373784361091E+15</Timestamp><Current dt:dt=""r8"">0</Current><DateUtc dt:dt=""string"">2014-05-14T20:48:24Z</DateUtc></FrequencyChange></FrequencyChanges></Clock>\n",60.03,1,-819504332,0,,-999999,1,44637,t,51424,96061,5/14/2014,13:48:25,8:48:25 PM,1,Session1,SessionsList,,,,,,,,,,1,1,1,1,96078,,,,1,1,1,,,,Cued1,MiniBlocks1,,,,,9,1,b,-999999,13,239074,b,359,239433,White,Congruent,b,Green,0,,0,15,234076,,0,0,9,1,9,,,,,,,,,,Pictures\green.bmp,4000,2000,Pictures\black.bmp,,,,,,,,,,,,,StimulusPr,Pictures\right.bmp,CuedStim1,Right
POP_2,16066,1,"<?xml version=""1.0""?>\n<Clock xmlns:dt=""urn:schemas-microsoft-com:datatypes""><Description dt:dt=""string"">E-Prime Primary Realtime Clock</Description><StartTime><Timestamp dt:dt=""int"">0</Timestamp><DateUtc dt:dt=""string"">2014-05-14T20:48:24Z</DateUtc></StartTime><FrequencyChanges><FrequencyChange><Frequency dt:dt=""r8"">2793030000</Frequency><Timestamp dt:dt=""r8"">1.71373784361091E+15</Timestamp><Current dt:dt=""r8"">0</Current><DateUtc dt:dt=""string"">2014-05-14T20:48:24Z</DateUtc></FrequencyChange></FrequencyChanges></Clock>\n",60.03,1,-819504332,0,,-999999,1,44637,t,51424,96061,5/14/2014,13:48:25,8:48:25 PM,1,Session1,SessionsList,,,,,,,,,,1,1,1,1,96078,,,,1,1,1,,,,Cued1,MiniBlocks1,,,,,10,1,r,-999999,9,247070,r,418,247488,White,Congruent,r,Green,0,,0,11,243072,,0,0,10,1,10,,,,,,,,,,Pictures\green.bmp,3000,2000,Pictures\left.bmp,,,,,,,,,,,,,StimulusPr,Pictures\black.bmp,CuedStim1,Left
POP_2,16066,1,"<?xml version=""1.0""?>\n<Clock xmlns:dt=""urn:schemas-microsoft-com:datatypes""><Description dt:dt=""string"">E-Prime Primary Realtime Clock</Description><StartTime><Timestamp dt:dt=""int"">0</Timestamp><DateUtc dt:dt=""string"">2014-05-14T20:48:24Z</DateUtc></StartTime><FrequencyChanges><FrequencyChange><Frequency dt:dt=""r8"">2793030000</Frequency><Timestamp dt:dt=""r8"">1.71373784361091E+15</Timestamp><Current dt:dt=""r8"">0</Current><DateUtc dt:dt=""string"">2014-05-14T20:48:24Z</DateUtc></FrequencyChange></FrequencyChanges></Clock>\n",60.03,1,-819504332,0,,-999999,1,44637,t,51424,96061,5/14/2014,13:48:25,8:48:25 PM,1,Session1,SessionsList,,,,,,,,,,1,1,1,2,,,,,2,1,2,,,,NonCued1,MiniBlocks1,249518,,,,1,1,r,-999999,65,264111,r,434,264545,Green,Congruent,r,White,0,,0,69,259130,,0,0,,,,,,,,,,,,,Pictures\white.bmp,4000,2000,Pictures\GreenLeft.bmp,1,1,1,,,,,,,,,,StimulusPr,Pictures\black.bmp,NonCuedStim1,Left
POP_2,16066,1,"<?xml version=""1.0""?>\n<Clock xmlns:dt=""urn:schemas-microsoft-com:datatypes""><Description dt:dt=""string"">E-Prime Primary Realtime Clock</Description><StartTime><Timestamp dt:dt=""int"">0</Timestamp><DateUtc dt:dt=""string"">2014-05-14T20:48:24Z</DateUtc></StartTime><FrequencyChanges><FrequencyChange><Frequency dt:dt=""r8"">2793030000</Frequency><Timestamp dt:dt=""r8"">1.71373784361091E+15</Timestamp><Current dt:dt=""r8"">0</Current><DateUtc dt:dt=""string"">2014-05-14T20:48:24Z</DateUtc></FrequencyChange></FrequencyChanges></Clock>\n",60.03,1,-819504332,0,,-999999,1,44637,t,51424,96061,5/14/2014,13:48:25,8:48:25 PM,1,Session1,SessionsList,,,,,,,,,,1,1,1,2,,,,,2,1,2,,,,NonCued1,MiniBlocks1,249518,,,,2,1,b,-999999,62,275122,b,497,275619,Green,Congruent,b,White,0,,0,16,268076,,0,0,,,,,,,,,,,,,Pictures\white.bmp,6000,16000,Pictures\black.bmp,2,1,2,,,,,,,,,,StimulusPr,Pictures\GreenRight.bmp,NonCuedStim1,Right
POP_2,16066,1,"<?xml version=""1.0""?>\n<Clock xmlns:dt=""urn:schemas-microsoft-com:datatypes""><Description dt:dt=""string"">E-Prime Primary Realtime Clock</Description><StartTime><Timestamp dt:dt=""int"">0</Timestamp><DateUtc dt:dt=""string"">2014-05-14T20:48:24Z</DateUtc></StartTime><FrequencyChanges><FrequencyChange><Frequency dt:dt=""r8"">2793030000</Frequency><Timestamp dt:dt=""r8"">1.71373784361091E+15</Timestamp><Current dt:dt=""r8"">0</Current><DateUtc dt:dt=""string"">2014-05-14T20:48:24Z</DateUtc></FrequencyChange></FrequencyChanges></Clock>\n",60.03,1,-819504332,0,,-999999,1,44637,t,51424,96061,5/14/2014,13:48:25,8:48:25 PM,1,Session1,SessionsList,,,,,,,,,,1,1,1,2,,,,,2,1,2,,,,NonCued1,MiniBlocks1,249518,,,,3,1,r,-999999,32,300093,r,707,300800,Red,Incongruent,r,White,0,,0,2,293063,,0,0,,,,,,,,,,,,,Pictures\white.bmp,6000,10000,Pictures\black.bmp,3,1,3,,,,,,,,,,StimulusPr,Pictures\RedRight.bmp,NonCuedStim1,Right
POP_2,16066,1,"<?xml version=""1.0""?>\n<Clock xmlns:dt=""urn:schemas-microsoft-com:datatypes""><Description dt:dt=""string"">E-Prime Primary Realtime Clock</Description><StartTime><Timestamp dt:dt=""int"">0</Timestamp><DateUtc dt:dt=""string"">2014-05-14T20:48:24Z</DateUtc></StartTime><FrequencyChanges><FrequencyChange><Frequency dt:dt=""r8"">2793030000</Frequency><Timestamp dt:dt=""r8"">1.71373784361091E+15</Timestamp><Current dt:dt=""r8"">0</Current><DateUtc dt:dt=""string"">2014-05-14T20:48:24Z</DateUtc></FrequencyChange></FrequencyChanges></Clock>\n",60.03,1,-819504332,0,,-999999,1,44637,t,51424,96061,5/14/2014,13:48:25,8:48:25 PM,1,Session1,SessionsList,,,,,,,,,,1,1,1,2,,,,,2,1,2,,,,NonCued1,MiniBlocks1,249518,,,,4,1,r,-999999,15,322065,r,625,322690,Green,Congruent,r,White,0,,0,9,312070,,0,0,,,,,,,,,,,,,Pictures\white.bmp,9000,10000,Pictures\GreenLeft.bmp,4,1,4,,,,,,,,,,StimulusPr,Pictures\black.bmp,NonCuedStim1,Left
POP_2,16066,1,"<?xml version=""1.0""?>\n<Clock xmlns:dt=""urn:schemas-microsoft-com:datatypes""><Description dt:dt=""string"">E-Prime Primary Realtime Clock</Description><StartTime><Timestamp dt:dt=""int"">0</Timestamp><DateUtc dt:dt=""string"">2014-05-14T20:48:24Z</DateUtc></StartTime><FrequencyChanges><FrequencyChange><Frequency dt:dt=""r8"">2793030000</Frequency><Timestamp dt:dt=""r8"">1.71373784361091E+15</Timestamp><Current dt:dt=""r8"">0</Current><DateUtc dt:dt=""string"">2014-05-14T20:48:24Z</DateUtc></FrequencyChange></FrequencyChanges></Clock>\n",60.03,1,-819504332,0,,-999999,1,44637,t,51424,96061,5/14/2014,13:48:25,8:48:25 PM,1,Session1,SessionsList,,,,,,,,,,1,1,1,2,,,,,2,1,2,,,,NonCued1,MiniBlocks1,249518,,,,5,1,b,-999999,13,338074,b,466,338540,Green,Congruent,b,White,0,,0,15,334076,,0,0,,,,,,,,,,,,,Pictures\white.bmp,3000,2000,Pictures\black.bmp,5,1,5,,,,,,,,,,StimulusPr,Pictures\GreenRight.bmp,NonCuedStim1,Right
POP_2,16066,1,"<?xml version=""1.0""?>\n<Clock xmlns:dt=""urn:schemas-microsoft-com:datatypes""><Description dt:dt=""string"">E-Prime Primary Realtime Clock</Description><StartTime><Timestamp dt:dt=""int"">0</Timestamp><DateUtc dt:dt=""string"">2014-05-14T20:48:24Z</DateUtc></StartTime><FrequencyChanges><FrequencyChange><Frequency dt:dt=""r8"">2793030000</Frequency><Timestamp dt:dt=""r8"">1.71373784361091E+15</Timestamp><Current dt:dt=""r8"">0</Current><DateUtc dt:dt=""string"">2014-05-14T20:48:24Z</DateUtc></FrequencyChange></FrequencyChanges></Clock>\n",60.03,1,-819504332,0,,-999999,1,44637,t,51424,96061,5/14/2014,13:48:25,8:48:25 PM,1,Session1,SessionsList,,,,,,,,,,1,1,1,2,,,,,2,1,2,,,,NonCued1,MiniBlocks1,249518,,,,6,1,b,-999999,75,347136,b,577,347713,Red,Incongruent,b,White,0,,0,6,342055,,0,0,,,,,,,,,,,,,Pictures\white.bmp,4000,16000,Pictures\RedLeft.bmp,6,1,6,,,,,,,,,,StimulusPr,Pictures\black.bmp,NonCuedStim1,Left
POP_2,16066,1,"<?xml version=""1.0""?>\n<Clock xmlns:dt=""urn:schemas-microsoft-com:datatypes""><Description dt:dt=""string"">E-Prime Primary Realtime Clock</Description><StartTime><Timestamp dt:dt=""int"">0</Timestamp><DateUtc dt:dt=""string"">2014-05-14T20:48:24Z</DateUtc></StartTime><FrequencyChanges><FrequencyChange><Frequency dt:dt=""r8"">2793030000</Frequency><Timestamp dt:dt=""r8"">1.71373784361091E+15</Timestamp><Current dt:dt=""r8"">0</Current><DateUtc dt:dt=""string"">2014-05-14T20:48:24Z</DateUtc></FrequencyChange></FrequencyChanges></Clock>\n",60.03,1,-819504332,0,,-999999,1,44637,t,51424,96061,5/14/2014,13:48:25,8:48:25 PM,1,Session1,SessionsList,,,,,,,,,,1,1,1,2,,,,,2,1,2,,,,NonCued1,MiniBlocks1,249518,,,,7,1,b,-999999,15,369075,b,529,369604,Green,Congruent,b,White,0,,0,5,365061,,0,0,,,,,,,,,,,,,Pictures\white.bmp,3000,4000,Pictures\black.bmp,7,1,7,,,,,,,,,,StimulusPr,Pictures\GreenRight.bmp,NonCuedStim1,Right
POP_2,16066,1,"<?xml version=""1.0""?>\n<Clock xmlns:dt=""urn:schemas-microsoft-com:datatypes""><Description dt:dt=""string"">E-Prime Primary Realtime Clock</Description><StartTime><Timestamp dt:dt=""int"">0</Timestamp><DateUtc dt:dt=""string"">2014-05-14T20:48:24Z</DateUtc></StartTime><FrequencyChanges><FrequencyChange><Frequency dt:dt=""r8"">2793030000</Frequency><Timestamp dt:dt=""r8"">1.71373784361091E+15</Timestamp><Current dt:dt=""r8"">0</Current><DateUtc dt:dt=""string"">2014-05-14T20:48:24Z</DateUtc></FrequencyChange></FrequencyChanges></Clock>\n",60.03,1,-819504332,0,,-999999,1,44637,t,51424,96061,5/14/2014,13:48:25,8:48:25 PM,1,Session1,SessionsList,,,,,,,,,,1,1,1,2,,,,,2,1,2,,,,NonCued1,MiniBlocks1,249518,,,,8,1,b,-999999,8,379070,b,540,379610,Green,Congruent,b,White,0,,0,11,375072,,0,0,,,,,,,,,,,,,Pictures\white.bmp,3000,4000,Pictures\black.bmp,8,1,8,,,,,,,,,,StimulusPr,Pictures\GreenRight.bmp,NonCuedStim1,Right
POP_2,16066,1,"<?xml version=""1.0""?>\n<Clock xmlns:dt=""urn:schemas-microsoft-com:datatypes""><Description dt:dt=""string"">E-Prime Primary Realtime Clock</Description><StartTime><Timestamp dt:dt=""int"">0</Timestamp><DateUtc dt:dt=""string"">2014-05-14T20:48:24Z</DateUtc></StartTime><FrequencyChanges><FrequencyChange><Frequency dt:dt=""r8"">2793030000</Frequency><Timestamp dt:dt=""r8"">1.71373784361091E+15</Timestamp><Current dt:dt=""r8"">0</Current><DateUtc dt:dt=""string"">2014-05-14T20:48:24Z</DateUtc></FrequencyChange></FrequencyChanges></Clock>\n",60.03,1,-819504332,0,,-999999,1,44637,t,51424,96061,5/14/2014,13:48:25,8:48:25 PM,1,Session1,SessionsList,,,,,,,,,,1,1,1,2,,,,,2,1,2,,,,NonCued1,MiniBlocks1,249518,,,,9,1,b,-999999,17,395079,b,549,395628,Red,Incongruent,b,White,0,,0,6,385067,,0,0,,,,,,,,,,,,,Pictures\white.bmp,9000,2000,Pictures\RedLeft.bmp,9,1,9,,,,,,,,,,StimulusPr,Pictures\black.bmp,NonCuedStim1,Left
POP_2,16066,1,"<?xml version=""1.0""?>\n<Clock xmlns:dt=""urn:schemas-microsoft-com:datatypes""><Description dt:dt=""string"">E-Prime Primary Realtime Clock</Description><StartTime><Timestamp dt:dt=""int"">0</Timestamp><DateUtc dt:dt=""string"">2014-05-14T20:48:24Z</DateUtc></StartTime><FrequencyChanges><FrequencyChange><Frequency dt:dt=""r8"">2793030000</Frequency><Timestamp dt:dt=""r8"">1.71373784361091E+15</Timestamp><Current dt:dt=""r8"">0</Current><DateUtc dt:dt=""string"">2014-05-14T20:48:24Z</DateUtc></FrequencyChange></FrequencyChanges></Clock>\n",60.03,1,-819504332,0,,-999999,1,44637,t,51424,96061,5/14/2014,13:48:25,8:48:25 PM,1,Session1,SessionsList,,,,,,,,,,1,1,1,2,,,,,2,1,2,,,,NonCued1,MiniBlocks1,249518,,,,10,1,r,-999999,12,406073,r,556,406629,Green,Congruent,r,White,0,,0,3,399061,,0,0,,,,,,,,,,,,,Pictures\white.bmp,6000,2000,Pictures\GreenLeft.bmp,10,1,10,,,,,,,,,,StimulusPr,Pictures\black.bmp,NonCuedStim1,Left
POP_2,16066,1,"<?xml version=""1.0""?>\n<Clock xmlns:dt=""urn:schemas-microsoft-com:datatypes""><Description dt:dt=""string"">E-Prime Primary Realtime Clock</Description><StartTime><Timestamp dt:dt=""int"">0</Timestamp><DateUtc dt:dt=""string"">2014-05-14T20:48:24Z</DateUtc></StartTime><FrequencyChanges><FrequencyChange><Frequency dt:dt=""r8"">2793030000</Frequency><Timestamp dt:dt=""r8"">1.71373784361091E+15</Timestamp><Current dt:dt=""r8"">0</Current><DateUtc dt:dt=""string"">2014-05-14T20:48:24Z</DateUtc></FrequencyChange></FrequencyChanges></Clock>\n",60.03,1,-819504332,0,,-999999,1,44637,t,51424,96061,5/14/2014,13:48:25,8:48:25 PM,1,Session1,SessionsList,,,,,,,,,,1,1,1,3,,,,,3,1,3,,,,NonCued2,MiniBlocks1,,408656,,,1,1,b,-999999,18,429079,b,541,429620,Green,Congruent,b,White,0,,0,6,419067,,0,0,,,,,,,,,,,,,Pictures\white.bmp,9000,10000,Pictures\black.bmp,,,,1,1,1,,,,,,,StimulusPr,Pictures\GreenRight.bmp,NonCuedStim2,Right
POP_2,16066,1,"<?xml version=""1.0""?>\n<Clock xmlns:dt=""urn:schemas-microsoft-com:datatypes""><Description dt:dt=""string"">E-Prime Primary Realtime Clock</Description><StartTime><Timestamp dt:dt=""int"">0</Timestamp><DateUtc dt:dt=""string"">2014-05-14T20:48:24Z</DateUtc></StartTime><FrequencyChanges><FrequencyChange><Frequency dt:dt=""r8"">2793030000</Frequency><Timestamp dt:dt=""r8"">1.71373784361091E+15</Timestamp><Current dt:dt=""r8"">0</Current><DateUtc dt:dt=""string"">2014-05-14T20:48:24Z</DateUtc></FrequencyChange></FrequencyChanges></Clock>\n",60.03,1,-819504332,0,,-999999,1,44637,t,51424,96061,5/14/2014,13:48:25,8:48:25 PM,1,Session1,SessionsList,,,,,,,,,,1,1,1,3,,,,,3,1,3,,,,NonCued2,MiniBlocks1,,408656,,,2,1,r,-999999,10,445071,r,444,445515,Green,Congruent,r,White,0,,0,18,441073,,0,0,,,,,,,,,,,,,Pictures\white.bmp,3000,2000,Pictures\GreenLeft.bmp,,,,2,1,2,,,,,,,StimulusPr,Pictures\black.bmp,NonCuedStim2,Left
POP_2,16066,1,"<?xml version=""1.0""?>\n<Clock xmlns:dt=""urn:schemas-microsoft-com:datatypes""><Description dt:dt=""string"">E-Prime Primary Realtime Clock</Description><StartTime><Timestamp dt:dt=""int"">0</Timestamp><DateUtc dt:dt=""string"">2014-05-14T20:48:24Z</DateUtc></StartTime><FrequencyChanges><FrequencyChange><Frequency dt:dt=""r8"">2793030000</Frequency><Timestamp dt:dt=""r8"">1.71373784361091E+15</Timestamp><Current dt:dt=""r8"">0</Current><DateUtc dt:dt=""string"">2014-05-14T20:48:24Z</DateUtc></FrequencyChange></FrequencyChanges></Clock>\n",60.03,1,-819504332,0,,-999999,1,44637,t,51424,96061,5/14/2014,13:48:25,8:48:25 PM,1,Session1,SessionsList,,,,,,,,,,1,1,1,3,,,,,3,1,3,,,,NonCued2,MiniBlocks1,,408656,,,3,1,r,-999999,6,453067,r,482,453549,Red,Incongruent,r,White,0,,0,9,449052,,0,0,,,,,,,,,,,,,Pictures\white.bmp,3000,2000,Pictures\black.bmp,,,,3,1,3,,,,,,,StimulusPr,Pictures\RedRight.bmp,NonCuedStim2,Right
POP_2,16066,1,"<?xml version=""1.0""?>\n<Clock xmlns:dt=""urn:schemas-microsoft-com:datatypes""><Description dt:dt=""string"">E-Prime Primary Realtime Clock</Description><StartTime><Timestamp dt:dt=""int"">0</Timestamp><DateUtc dt:dt=""string"">2014-05-14T20:48:24Z</DateUtc></StartTime><FrequencyChanges><FrequencyChange><Frequency dt:dt=""r8"">2793030000</Frequency><Timestamp dt:dt=""r8"">1.71373784361091E+15</Timestamp><Current dt:dt=""r8"">0</Current><DateUtc dt:dt=""string"">2014-05-14T20:48:24Z</DateUtc></FrequencyChange></FrequencyChanges></Clock>\n",60.03,1,-819504332,0,,-999999,1,44637,t,51424,96061,5/14/2014,13:48:25,8:48:25 PM,1,Session1,SessionsList,,,,,,,,,,1,1,1,3,,,,,3,1,3,,,,NonCued2,MiniBlocks1,,408656,,,4,1,r,-999999,18,462079,r,506,462585,Green,Congruent,r,White,0,,0,4,457065,,0,0,,,,,,,,,,,,,Pictures\white.bmp,4000,16000,Pictures\GreenLeft.bmp,,,,4,1,4,,,,,,,StimulusPr,Pictures\black.bmp,NonCuedStim2,Left
POP_2,16066,1,"<?xml version=""1.0""?>\n<Clock xmlns:dt=""urn:schemas-microsoft-com:datatypes""><Description dt:dt=""string"">E-Prime Primary Realtime Clock</Description><StartTime><Timestamp dt:dt=""int"">0</Timestamp><DateUtc dt:dt=""string"">2014-05-14T20:48:24Z</DateUtc></StartTime><FrequencyChanges><FrequencyChange><Frequency dt:dt=""r8"">2793030000</Frequency><Timestamp dt:dt=""r8"">1.71373784361091E+15</Timestamp><Current dt:dt=""r8"">0</Current><DateUtc dt:dt=""string"">2014-05-14T20:48:24Z</DateUtc></FrequencyChange></FrequencyChanges></Clock>\n",60.03,1,-819504332,0,,-999999,1,44637,t,51424,96061,5/14/2014,13:48:25,8:48:25 PM,1,Session1,SessionsList,,,,,,,,,,1,1,1,3,,,,,3,1,3,,,,NonCued2,MiniBlocks1,,408656,,,5,1,r,-999999,5,487066,r,370,487436,Green,Congruent,r,White,0,,0,8,480070,,0,0,,,,,,,,,,,,,Pictures\white.bmp,6000,4000,Pictures\GreenLeft.bmp,,,,5,1,5,,,,,,,StimulusPr,Pictures\black.bmp,NonCuedStim2,Left
POP_2,16066,1,"<?xml version=""1.0""?>\n<Clock xmlns:dt=""urn:schemas-microsoft-com:datatypes""><Description dt:dt=""string"">E-Prime Primary Realtime Clock</Description><StartTime><Timestamp dt:dt=""int"">0</Timestamp><DateUtc dt:dt=""string"">2014-05-14T20:48:24Z</DateUtc></StartTime><FrequencyChanges><FrequencyChange><Frequency dt:dt=""r8"">2793030000</Frequency><Timestamp dt:dt=""r8"">1.71373784361091E+15</Timestamp><Current dt:dt=""r8"">0</Current><DateUtc dt:dt=""string"">2014-05-14T20:48:24Z</DateUtc></FrequencyChange></FrequencyChanges></Clock>\n",60.03,1,-819504332,0,,-999999,1,44637,t,51424,96061,5/14/2014,13:48:25,8:48:25 PM,1,Session1,SessionsList,,,,,,,,,,1,1,1,3,,,,,3,1,3,,,,NonCued2,MiniBlocks1,,408656,,,6,1,b,-999999,17,497078,b,525,497603,Red,Incongruent,b,White,0,,0,14,493063,,0,0,,,,,,,,,,,,,Pictures\white.bmp,3000,4000,Pictures\RedLeft.bmp,,,,6,1,6,,,,,,,StimulusPr,Pictures\black.bmp,NonCuedStim2,Left
POP_2,16066,1,"<?xml version=""1.0""?>\n<Clock xmlns:dt=""urn:schemas-microsoft-com:datatypes""><Description dt:dt=""string"">E-Prime Primary Realtime Clock</Description><StartTime><Timestamp dt:dt=""int"">0</Timestamp><DateUtc dt:dt=""string"">2014-05-14T20:48:24Z</DateUtc></StartTime><FrequencyChanges><FrequencyChange><Frequency dt:dt=""r8"">2793030000</Frequency><Timestamp dt:dt=""r8"">1.71373784361091E+15</Timestamp><Current dt:dt=""r8"">0</Current><DateUtc dt:dt=""string"">2014-05-14T20:48:24Z</DateUtc></FrequencyChange></FrequencyChanges></Clock>\n",60.03,1,-819504332,0,,-999999,1,44637,t,51424,96061,5/14/2014,13:48:25,8:48:25 PM,1,Session1,SessionsList,,,,,,,,,,1,1,1,3,,,,,3,1,3,,,,NonCued2,MiniBlocks1,,408656,,,7,1,b,-999999,12,508073,b,566,508639,Green,Congruent,b,White,0,,0,14,503075,,0,0,,,,,,,,,,,,,Pictures\white.bmp,4000,16000,Pictures\black.bmp,,,,7,1,7,,,,,,,StimulusPr,Pictures\GreenRight.bmp,NonCuedStim2,Right
POP_2,16066,1,"<?xml version=""1.0""?>\n<Clock xmlns:dt=""urn:schemas-microsoft-com:datatypes""><Description dt:dt=""string"">E-Prime Primary Realtime Clock</Description><StartTime><Timestamp dt:dt=""int"">0</Timestamp><DateUtc dt:dt=""string"">2014-05-14T20:48:24Z</DateUtc></StartTime><FrequencyChanges><FrequencyChange><Frequency dt:dt=""r8"">2793030000</Frequency><Timestamp dt:dt=""r8"">1.71373784361091E+15</Timestamp><Current dt:dt=""r8"">0</Current><DateUtc dt:dt=""string"">2014-05-14T20:48:24Z</DateUtc></FrequencyChange></FrequencyChanges></Clock>\n",60.03,1,-819504332,0,,-999999,1,44637,t,51424,96061,5/14/2014,13:48:25,8:48:25 PM,1,Session1,SessionsList,,,,,,,,,,1,1,1,3,,,,,3,1,3,,,,NonCued2,MiniBlocks1,,408656,,,8,1,r,-999999,10,536059,r,468,536527,Green,Congruent,r,White,0,,0,3,526064,,0,0,,,,,,,,,,,,,Pictures\white.bmp,9000,2000,Pictures\GreenLeft.bmp,,,,8,1,8,,,,,,,StimulusPr,Pictures\black.bmp,NonCuedStim2,Left
POP_2,16066,1,"<?xml version=""1.0""?>\n<Clock xmlns:dt=""urn:schemas-microsoft-com:datatypes""><Description dt:dt=""string"">E-Prime Primary Realtime Clock</Description><StartTime><Timestamp dt:dt=""int"">0</Timestamp><DateUtc dt:dt=""string"">2014-05-14T20:48:24Z</DateUtc></StartTime><FrequencyChanges><FrequencyChange><Frequency dt:dt=""r8"">2793030000</Frequency><Timestamp dt:dt=""r8"">1.71373784361091E+15</Timestamp><Current dt:dt=""r8"">0</Current><DateUtc dt:dt=""string"">2014-05-14T20:48:24Z</DateUtc></FrequencyChange></FrequencyChanges></Clock>\n",60.03,1,-819504332,0,,-999999,1,44637,t,51424,96061,5/14/2014,13:48:25,8:48:25 PM,1,Session1,SessionsList,,,,,,,,,,1,1,1,3,,,,,3,1,3,,,,NonCued2,MiniBlocks1,,408656,,,9,1,b,-999999,10,544071,b,421,544492,Green,Congruent,b,White,0,,0,10,540057,,0,0,,,,,,,,,,,,,Pictures\white.bmp,3000,10000,Pictures\black.bmp,,,,9,1,9,,,,,,,StimulusPr,Pictures\GreenRight.bmp,NonCuedStim2,Right
POP_2,16066,1,"<?xml version=""1.0""?>\n<Clock xmlns:dt=""urn:schemas-microsoft-com:datatypes""><Description dt:dt=""string"">E-Prime Primary Realtime Clock</Description><StartTime><Timestamp dt:dt=""int"">0</Timestamp><DateUtc dt:dt=""string"">2014-05-14T20:48:24Z</DateUtc></StartTime><FrequencyChanges><FrequencyChange><Frequency dt:dt=""r8"">2793030000</Frequency><Timestamp dt:dt=""r8"">1.71373784361091E+15</Timestamp><Current dt:dt=""r8"">0</Current><DateUtc dt:dt=""string"">2014-05-14T20:48:24Z</DateUtc></FrequencyChange></FrequencyChanges></Clock>\n",60.03,1,-819504332,0,,-999999,1,44637,t,51424,96061,5/14/2014,13:48:25,8:48:25 PM,1,Session1,SessionsList,,,,,,,,,,1,1,1,3,,,,,3,1,3,,,,NonCued2,MiniBlocks1,,408656,,,10,1,b,-999999,12,560063,b,414,560477,Green,Congruent,b,White,0,,0,3,556065,,0,0,,,,,,,,,,,,,Pictures\white.bmp,3000,2000,Pictures\black.bmp,,,,10,1,10,,,,,,,StimulusPr,Pictures\GreenRight.bmp,NonCuedStim2,Right
POP_2,16066,1,"<?xml version=""1.0""?>\n<Clock xmlns:dt=""urn:schemas-microsoft-com:datatypes""><Description dt:dt=""string"">E-Prime Primary Realtime Clock</Description><StartTime><Timestamp dt:dt=""int"">0</Timestamp><DateUtc dt:dt=""string"">2014-05-14T20:48:24Z</DateUtc></StartTime><FrequencyChanges><FrequencyChange><Frequency dt:dt=""r8"">2793030000</Frequency><Timestamp dt:dt=""r8"">1.71373784361091E+15</Timestamp><Current dt:dt=""r8"">0</Current><DateUtc dt:dt=""string"">2014-05-14T20:48:24Z</DateUtc></FrequencyChange></FrequencyChanges></Clock>\n",60.03,1,-819504332,0,,-999999,1,44637,t,51424,96061,5/14/2014,13:48:25,8:48:25 PM,1,Session1,SessionsList,,,,,,,,,,1,1,1,4,,562495,,,4,1,4,,,,Cued2,MiniBlocks1,,,,,1,1,b,-999999,9,579070,b,851,579921,White,Congruent,b,Green,0,,0,18,572074,,0,0,,,,1,1,1,,,,,,,Pictures\green.bmp,6000,4000,Pictures\black.bmp,,,,,,,,,,,,,StimulusPr,Pictures\right.bmp,CuedStim2,Right
POP_2,16066,1,"<?xml version=""1.0""?>\n<Clock xmlns:dt=""urn:schemas-microsoft-com:datatypes""><Description dt:dt=""string"">E-Prime Primary Realtime Clock</Description><StartTime><Timestamp dt:dt=""int"">0</Timestamp><DateUtc dt:dt=""string"">2014-05-14T20:48:24Z</DateUtc></StartTime><FrequencyChanges><FrequencyChange><Frequency dt:dt=""r8"">2793030000</Frequency><Timestamp dt:dt=""r8"">1.71373784361091E+15</Timestamp><Current dt:dt=""r8"">0</Current><DateUtc dt:dt=""string"">2014-05-14T20:48:24Z</DateUtc></FrequencyChange></FrequencyChanges></Clock>\n",60.03,1,-819504332,0,,-999999,1,44637,t,51424,96061,5/14/2014,13:48:25,8:48:25 PM,1,Session1,SessionsList,,,,,,,,,,1,1,1,4,,562495,,,4,1,4,,,,Cued2,MiniBlocks1,,,,,2,1,b,-999999,18,595079,b,475,595554,White,Congruent,b,Green,0,,0,6,585067,,0,0,,,,2,1,2,,,,,,,Pictures\green.bmp,9000,10000,Pictures\black.bmp,,,,,,,,,,,,,StimulusPr,Pictures\right.bmp,CuedStim2,Right
POP_2,16066,1,"<?xml version=""1.0""?>\n<Clock xmlns:dt=""urn:schemas-microsoft-com:datatypes""><Description dt:dt=""string"">E-Prime Primary Realtime Clock</Description><StartTime><Timestamp dt:dt=""int"">0</Timestamp><DateUtc dt:dt=""string"">2014-05-14T20:48:24Z</DateUtc></StartTime><FrequencyChanges><FrequencyChange><Frequency dt:dt=""r8"">2793030000</Frequency><Timestamp dt:dt=""r8"">1.71373784361091E+15</Timestamp><Current dt:dt=""r8"">0</Current><DateUtc dt:dt=""string"">2014-05-14T20:48:24Z</DateUtc></FrequencyChange></FrequencyChanges></Clock>\n",60.03,1,-819504332,0,,-999999,1,44637,t,51424,96061,5/14/2014,13:48:25,8:48:25 PM,1,Session1,SessionsList,,,,,,,,,,1,1,1,4,,562495,,,4,1,4,,,,Cued2,MiniBlocks1,,,,,3,1,r,-999999,10,611071,r,448,611519,White,Incongruent,r,Red,0,,0,12,607073,,0,0,,,,3,1,3,,,,,,,Pictures\red.bmp,3000,2000,Pictures\black.bmp,,,,,,,,,,,,,StimulusPr,Pictures\right.bmp,CuedStim2,Right
POP_2,16066,1,"<?xml version=""1.0""?>\n<Clock xmlns:dt=""urn:schemas-microsoft-com:datatypes""><Description dt:dt=""string"">E-Prime Primary Realtime Clock</Description><StartTime><Timestamp dt:dt=""int"">0</Timestamp><DateUtc dt:dt=""string"">2014-05-14T20:48:24Z</DateUtc></StartTime><FrequencyChanges><FrequencyChange><Frequency dt:dt=""r8"">2793030000</Frequency><Timestamp dt:dt=""r8"">1.71373784361091E+15</Timestamp><Current dt:dt=""r8"">0</Current><DateUtc dt:dt=""string"">2014-05-14T20:48:24Z</DateUtc></FrequencyChange></FrequencyChanges></Clock>\n",60.03,1,-819504332,0,,-999999,1,44637,t,51424,96061,5/14/2014,13:48:25,8:48:25 PM,1,Session1,SessionsList,,,,,,,,,,1,1,1,4,,562495,,,4,1,4,,,,Cued2,MiniBlocks1,,,,,4,1,r,-999999,5,622066,r,432,622498,White,Congruent,r,Green,0,,0,8,615069,,0,0,,,,4,1,4,,,,,,,Pictures\green.bmp,6000,16000,Pictures\left.bmp,,,,,,,,,,,,,StimulusPr,Pictures\black.bmp,CuedStim2,Left
POP_2,16066,1,"<?xml version=""1.0""?>\n<Clock xmlns:dt=""urn:schemas-microsoft-com:datatypes""><Description dt:dt=""string"">E-Prime Primary Realtime Clock</Description><StartTime><Timestamp dt:dt=""int"">0</Timestamp><DateUtc dt:dt=""string"">2014-05-14T20:48:24Z</DateUtc></StartTime><FrequencyChanges><FrequencyChange><Frequency dt:dt=""r8"">2793030000</Frequency><Timestamp dt:dt=""r8"">1.71373784361091E+15</Timestamp><Current dt:dt=""r8"">0</Current><DateUtc dt:dt=""string"">2014-05-14T20:48:24Z</DateUtc></FrequencyChange></FrequencyChanges></Clock>\n",60.03,1,-819504332,0,,-999999,1,44637,t,51424,96061,5/14/2014,13:48:25,8:48:25 PM,1,Session1,SessionsList,,,,,,,,,,1,1,1,4,,562495,,,4,1,4,,,,Cued2,MiniBlocks1,,,,,5,1,b,-999999,11,644071,b,489,644560,White,Congruent,b,Green,0,,0,12,640073,,0,0,,,,5,1,5,,,,,,,Pictures\green.bmp,3000,2000,Pictures\black.bmp,,,,,,,,,,,,,StimulusPr,Pictures\right.bmp,CuedStim2,Right
POP_2,16066,1,"<?xml version=""1.0""?>\n<Clock xmlns:dt=""urn:schemas-microsoft-com:datatypes""><Description dt:dt=""string"">E-Prime Primary Realtime Clock</Description><StartTime><Timestamp dt:dt=""int"">0</Timestamp><DateUtc dt:dt=""string"">2014-05-14T20:48:24Z</DateUtc></StartTime><FrequencyChanges><FrequencyChange><Frequency dt:dt=""r8"">2793030000</Frequency><Timestamp dt:dt=""r8"">1.71373784361091E+15</Timestamp><Current dt:dt=""r8"">0</Current><DateUtc dt:dt=""string"">2014-05-14T20:48:24Z</DateUtc></FrequencyChange></FrequencyChanges></Clock>\n",60.03,1,-819504332,0,,-999999,1,44637,t,51424,96061,5/14/2014,13:48:25,8:48:25 PM,1,Session1,SessionsList,,,,,,,,,,1,1,1,4,,562495,,,4,1,4,,,,Cued2,MiniBlocks1,,,,,6,1,r,-999999,6,652067,r,522,652589,White,Congruent,r,Green,0,,0,8,648069,,0,0,,,,6,1,6,,,,,,,Pictures\green.bmp,3000,2000,Pictures\left.bmp,,,,,,,,,,,,,StimulusPr,Pictures\black.bmp,CuedStim2,Left
POP_2,16066,1,"<?xml version=""1.0""?>\n<Clock xmlns:dt=""urn:schemas-microsoft-com:datatypes""><Description dt:dt=""string"">E-Prime Primary Realtime Clock</Description><StartTime><Timestamp dt:dt=""int"">0</Timestamp><DateUtc dt:dt=""string"">2014-05-14T20:48:24Z</DateUtc></StartTime><FrequencyChanges><FrequencyChange><Frequency dt:dt=""r8"">2793030000</Frequency><Timestamp dt:dt=""r8"">1.71373784361091E+15</Timestamp><Current dt:dt=""r8"">0</Current><DateUtc dt:dt=""string"">2014-05-14T20:48:24Z</DateUtc></FrequencyChange></FrequencyChanges></Clock>\n",60.03,1,-819504332,0,,-999999,1,44637,t,51424,96061,5/14/2014,13:48:25,8:48:25 PM,1,Session1,SessionsList,,,,,,,,,,1,1,1,4,,562495,,,4,1,4,,,,Cued2,MiniBlocks1,,,,,7,1,b,-999999,16,663062,b,537,663599,White,Incongruent,b,Red,0,,0,4,656065,,0,0,,,,7,1,7,,,,,,,Pictures\red.bmp,6000,4000,Pictures\left.bmp,,,,,,,,,,,,,StimulusPr,Pictures\black.bmp,CuedStim2,Left
POP_2,16066,1,"<?xml version=""1.0""?>\n<Clock xmlns:dt=""urn:schemas-microsoft-com:datatypes""><Description dt:dt=""string"">E-Prime Primary Realtime Clock</Description><StartTime><Timestamp dt:dt=""int"">0</Timestamp><DateUtc dt:dt=""string"">2014-05-14T20:48:24Z</DateUtc></StartTime><FrequencyChanges><FrequencyChange><Frequency dt:dt=""r8"">2793030000</Frequency><Timestamp dt:dt=""r8"">1.71373784361091E+15</Timestamp><Current dt:dt=""r8"">0</Current><DateUtc dt:dt=""string"">2014-05-14T20:48:24Z</DateUtc></FrequencyChange></FrequencyChanges></Clock>\n",60.03,1,-819504332,0,,-999999,1,44637,t,51424,96061,5/14/2014,13:48:25,8:48:25 PM,1,Session1,SessionsList,,,,,,,,,,1,1,1,4,,562495,,,4,1,4,,,,Cued2,MiniBlocks1,,,,,8,0,b,-999999,12,674073,r,623,674696,White,Congruent,b,Green,0,,0,15,669076,,0,0,,,,8,1,8,,,,,,,Pictures\green.bmp,4000,4000,Pictures\black.bmp,,,,,,,,,,,,,StimulusPr,Pictures\right.bmp,CuedStim2,Right
POP_2,16066,1,"<?xml version=""1.0""?>\n<Clock xmlns:dt=""urn:schemas-microsoft-com:datatypes""><Description dt:dt=""string"">E-Prime Primary Realtime Clock</Description><StartTime><Timestamp dt:dt=""int"">0</Timestamp><DateUtc dt:dt=""string"">2014-05-14T20:48:24Z</DateUtc></StartTime><FrequencyChanges><FrequencyChange><Frequency dt:dt=""r8"">2793030000</Frequency><Timestamp dt:dt=""r8"">1.71373784361091E+15</Timestamp><Current dt:dt=""r8"">0</Current><DateUtc dt:dt=""string"">2014-05-14T20:48:24Z</DateUtc></FrequencyChange></FrequencyChanges></Clock>\n",60.03,1,-819504332,0,,-999999,1,44637,t,51424,96061,5/14/2014,13:48:25,8:48:25 PM,1,Session1,SessionsList,,,,,,,,,,1,1,1,4,,562495,,,4,1,4,,,,Cued2,MiniBlocks1,,,,,9,1,b,-999999,4,690065,b,486,690551,White,Incongruent,b,Red,0,,0,9,680070,,0,0,,,,9,1,9,,,,,,,Pictures\red.bmp,9000,10000,Pictures\left.bmp,,,,,,,,,,,,,StimulusPr,Pictures\black.bmp,CuedStim2,Left
POP_2,16066,1,"<?xml version=""1.0""?>\n<Clock xmlns:dt=""urn:schemas-microsoft-com:datatypes""><Description dt:dt=""string"">E-Prime Primary Realtime Clock</Description><StartTime><Timestamp dt:dt=""int"">0</Timestamp><DateUtc dt:dt=""string"">2014-05-14T20:48:24Z</DateUtc></StartTime><FrequencyChanges><FrequencyChange><Frequency dt:dt=""r8"">2793030000</Frequency><Timestamp dt:dt=""r8"">1.71373784361091E+15</Timestamp><Current dt:dt=""r8"">0</Current><DateUtc dt:dt=""string"">2014-05-14T20:48:24Z</DateUtc></FrequencyChange></FrequencyChanges></Clock>\n",60.03,1,-819504332,0,,-999999,1,44637,t,51424,96061,5/14/2014,13:48:25,8:48:25 PM,1,Session1,SessionsList,,,,,,,,,,1,1,1,4,,562495,,,4,1,4,,,,Cued2,MiniBlocks1,,,,,10,1,r,-999999,10,712071,r,377,712448,White,Congruent,r,Green,0,,0,7,702059,,0,0,,,,10,1,10,,,,,,,Pictures\green.bmp,9000,10000,Pictures\left.bmp,,,,,,,,,,,,,StimulusPr,Pictures\black.bmp,CuedStim2,Left
POP_2,16066,1,"<?xml version=""1.0""?>\n<Clock xmlns:dt=""urn:schemas-microsoft-com:datatypes""><Description dt:dt=""string"">E-Prime Primary Realtime Clock</Description><StartTime><Timestamp dt:dt=""int"">0</Timestamp><DateUtc dt:dt=""string"">2014-05-14T20:48:24Z</DateUtc></StartTime><FrequencyChanges><FrequencyChange><Frequency dt:dt=""r8"">2793030000</Frequency><Timestamp dt:dt=""r8"">1.71373784361091E+15</Timestamp><Current dt:dt=""r8"">0</Current><DateUtc dt:dt=""string"">2014-05-14T20:48:24Z</DateUtc></FrequencyChange></FrequencyChanges></Clock>\n",60.03,1,-819504332,0,,-999999,1,44637,t,51424,96061,5/14/2014,13:48:25,8:48:25 PM,2,Session2,SessionsList,0,,-999999,10,744888,t,38677,783565,722466,2,1,2,1,,,,,,,,1,1,1,NonCued3,MiniBlocks2,,,783568,,1,1,b,-999999,17,803592,b,454,804046,Green,Congruent,b,White,0,,0,17,793597,,0,0,,,,,,,,,,,,,Pictures\white.bmp,9000,10000,Pictures\black.bmp,,,,,,,1,1,1,,,,StimulusPr,Pictures\GreenRight.bmp,NonCuedStim3,Right
POP_2,16066,1,"<?xml version=""1.0""?>\n<Clock xmlns:dt=""urn:schemas-microsoft-com:datatypes""><Description dt:dt=""string"">E-Prime Primary Realtime Clock</Description><StartTime><Timestamp dt:dt=""int"">0</Timestamp><DateUtc dt:dt=""string"">2014-05-14T20:48:24Z</DateUtc></StartTime><FrequencyChanges><FrequencyChange><Frequency dt:dt=""r8"">2793030000</Frequency><Timestamp dt:dt=""r8"">1.71373784361091E+15</Timestamp><Current dt:dt=""r8"">0</Current><DateUtc dt:dt=""string"">2014-05-14T20:48:24Z</DateUtc></FrequencyChange></FrequencyChanges></Clock>\n",60.03,1,-819504332,0,,-999999,1,44637,t,51424,96061,5/14/2014,13:48:25,8:48:25 PM,2,Session2,SessionsList,0,,-999999,10,744888,t,38677,783565,722466,2,1,2,1,,,,,,,,1,1,1,NonCued3,MiniBlocks2,,,783568,,2,1,r,-999999,17,825597,r,580,826177,Red,Incongruent,r,White,0,,0,4,815569,,0,0,,,,,,,,,,,,,Pictures\white.bmp,9000,10000,Pictures\black.bmp,,,,,,,2,1,2,,,,StimulusPr,Pictures\RedRight.bmp,NonCuedStim3,Right
POP_2,16066,1,"<?xml version=""1.0""?>\n<Clock xmlns:dt=""urn:schemas-microsoft-com:datatypes""><Description dt:dt=""string"">E-Prime Primary Realtime Clock</Description><StartTime><Timestamp dt:dt=""int"">0</Timestamp><DateUtc dt:dt=""string"">2014-05-14T20:48:24Z</DateUtc></StartTime><FrequencyChanges><FrequencyChange><Frequency dt:dt=""r8"">2793030000</Frequency><Timestamp dt:dt=""r8"">1.71373784361091E+15</Timestamp><Current dt:dt=""r8"">0</Current><DateUtc dt:dt=""string"">2014-05-14T20:48:24Z</DateUtc></FrequencyChange></FrequencyChanges></Clock>\n",60.03,1,-819504332,0,,-999999,1,44637,t,51424,96061,5/14/2014,13:48:25,8:48:25 PM,2,Session2,SessionsList,0,,-999999,10,744888,t,38677,783565,722466,2,1,2,1,,,,,,,,1,1,1,NonCued3,MiniBlocks2,,,783568,,3,1,r,-999999,9,842589,r,488,843077,Green,Congruent,r,White,0,,0,11,837591,,0,0,,,,,,,,,,,,,Pictures\white.bmp,4000,4000,Pictures\GreenLeft.bmp,,,,,,,3,1,3,,,,StimulusPr,Pictures\black.bmp,NonCuedStim3,Left
POP_2,16066,1,"<?xml version=""1.0""?>\n<Clock xmlns:dt=""urn:schemas-microsoft-com:datatypes""><Description dt:dt=""string"">E-Prime Primary Realtime Clock</Description><StartTime><Timestamp dt:dt=""int"">0</Timestamp><DateUtc dt:dt=""string"">2014-05-14T20:48:24Z</DateUtc></StartTime><FrequencyChanges><FrequencyChange><Frequency dt:dt=""r8"">2793030000</Frequency><Timestamp dt:dt=""r8"">1.71373784361091E+15</Timestamp><Current dt:dt=""r8"">0</Current><DateUtc dt:dt=""string"">2014-05-14T20:48:24Z</DateUtc></FrequencyChange></FrequencyChanges></Clock>\n",60.03,1,-819504332,0,,-999999,1,44637,t,51424,96061,5/14/2014,13:48:25,8:48:25 PM,2,Session2,SessionsList,0,,-999999,10,744888,t,38677,783565,722466,2,1,2,1,,,,,,,,1,1,1,NonCued3,MiniBlocks2,,,783568,,4,1,b,-999999,3,855583,b,489,856072,Red,Incongruent,b,White,0,,0,7,848586,,0,0,,,,,,,,,,,,,Pictures\white.bmp,6000,4000,Pictures\RedLeft.bmp,,,,,,,4,1,4,,,,StimulusPr,Pictures\black.bmp,NonCuedStim3,Left
POP_2,16066,1,"<?xml version=""1.0""?>\n<Clock xmlns:dt=""urn:schemas-microsoft-com:datatypes""><Description dt:dt=""string"">E-Prime Primary Realtime Clock</Description><StartTime><Timestamp dt:dt=""int"">0</Timestamp><DateUtc dt:dt=""string"">2014-05-14T20:48:24Z</DateUtc></StartTime><FrequencyChanges><FrequencyChange><Frequency dt:dt=""r8"">2793030000</Frequency><Timestamp dt:dt=""r8"">1.71373784361091E+15</Timestamp><Current dt:dt=""r8"">0</Current><DateUtc dt:dt=""string"">2014-05-14T20:48:24Z</DateUtc></FrequencyChange></FrequencyChanges></Clock>\n",60.03,1,-819504332,0,,-999999,1,44637,t,51424,96061,5/14/2014,13:48:25,8:48:25 PM,2,Session2,SessionsList,0,,-999999,10,744888,t,38677,783565,722466,2,1,2,1,,,,,,,,1,1,1,NonCued3,MiniBlocks2,,,783568,,5,1,b,-999999,14,865594,b,420,866014,Green,Congruent,b,White,0,,0,16,861596,,0,0,,,,,,,,,,,,,Pictures\white.bmp,3000,2000,Pictures\black.bmp,,,,,,,5,1,5,,,,StimulusPr,Pictures\GreenRight.bmp,NonCuedStim3,Right
POP_2,16066,1,"<?xml version=""1.0""?>\n<Clock xmlns:dt=""urn:schemas-microsoft-com:datatypes""><Description dt:dt=""string"">E-Prime Primary Realtime Clock</Description><StartTime><Timestamp dt:dt=""int"">0</Timestamp><DateUtc dt:dt=""string"">2014-05-14T20:48:24Z</DateUtc></StartTime><FrequencyChanges><FrequencyChange><Frequency dt:dt=""r8"">2793030000</Frequency><Timestamp dt:dt=""r8"">1.71373784361091E+15</Timestamp><Current dt:dt=""r8"">0</Current><DateUtc dt:dt=""string"">2014-05-14T20:48:24Z</DateUtc></FrequencyChange></FrequencyChanges></Clock>\n",60.03,1,-819504332,0,,-999999,1,44637,t,51424,96061,5/14/2014,13:48:25,8:48:25 PM,2,Session2,SessionsList,0,,-999999,10,744888,t,38677,783565,722466,2,1,2,1,,,,,,,,1,1,1,NonCued3,MiniBlocks2,,,783568,,6,1,r,-999999,10,873590,r,404,873994,Green,Congruent,r,White,0,,0,9,869575,,0,0,,,,,,,,,,,,,Pictures\white.bmp,3000,2000,Pictures\GreenLeft.bmp,,,,,,,6,1,6,,,,StimulusPr,Pictures\black.bmp,NonCuedStim3,Left
POP_2,16066,1,"<?xml version=""1.0""?>\n<Clock xmlns:dt=""urn:schemas-microsoft-com:datatypes""><Description dt:dt=""string"">E-Prime Primary Realtime Clock</Description><StartTime><Timestamp dt:dt=""int"">0</Timestamp><DateUtc dt:dt=""string"">2014-05-14T20:48:24Z</DateUtc></StartTime><FrequencyChanges><FrequencyChange><Frequency dt:dt=""r8"">2793030000</Frequency><Timestamp dt:dt=""r8"">1.71373784361091E+15</Timestamp><Current dt:dt=""r8"">0</Current><DateUtc dt:dt=""string"">2014-05-14T20:48:24Z</DateUtc></FrequencyChange></FrequencyChanges></Clock>\n",60.03,1,-819504332,0,,-999999,1,44637,t,51424,96061,5/14/2014,13:48:25,8:48:25 PM,2,Session2,SessionsList,0,,-999999,10,744888,t,38677,783565,722466,2,1,2,1,,,,,,,,1,1,1,NonCued3,MiniBlocks2,,,783568,,7,1,b,-999999,14,884585,b,465,885050,Green,Congruent,b,White,0,,0,8,877588,,0,0,,,,,,,,,,,,,Pictures\white.bmp,6000,16000,Pictures\black.bmp,,,,,,,7,1,7,,,,StimulusPr,Pictures\GreenRight.bmp,NonCuedStim3,Right
POP_2,16066,1,"<?xml version=""1.0""?>\n<Clock xmlns:dt=""urn:schemas-microsoft-com:datatypes""><Description dt:dt=""string"">E-Prime Primary Realtime Clock</Description><StartTime><Timestamp dt:dt=""int"">0</Timestamp><DateUtc dt:dt=""string"">2014-05-14T20:48:24Z</DateUtc></StartTime><FrequencyChanges><FrequencyChange><Frequency dt:dt=""r8"">2793030000</Frequency><Timestamp dt:dt=""r8"">1.71373784361091E+15</Timestamp><Current dt:dt=""r8"">0</Current><DateUtc dt:dt=""string"">2014-05-14T20:48:24Z</DateUtc></FrequencyChange></FrequencyChanges></Clock>\n",60.03,1,-819504332,0,,-999999,1,44637,t,51424,96061,5/14/2014,13:48:25,8:48:25 PM,2,Session2,SessionsList,0,,-999999,10,744888,t,38677,783565,722466,2,1,2,1,,,,,,,,1,1,1,NonCued3,MiniBlocks2,,,783568,,8,1,r,-999999,13,906590,r,841,907431,Red,Incongruent,r,White,0,,0,11,902576,,0,0,,,,,,,,,,,,,Pictures\white.bmp,3000,2000,Pictures\black.bmp,,,,,,,8,1,8,,,,StimulusPr,Pictures\RedRight.bmp,NonCuedStim3,Right
POP_2,16066,1,"<?xml version=""1.0""?>\n<Clock xmlns:dt=""urn:schemas-microsoft-com:datatypes""><Description dt:dt=""string"">E-Prime Primary Realtime Clock</Description><StartTime><Timestamp dt:dt=""int"">0</Timestamp><DateUtc dt:dt=""string"">2014-05-14T20:48:24Z</DateUtc></StartTime><FrequencyChanges><FrequencyChange><Frequency dt:dt=""r8"">2793030000</Frequency><Timestamp dt:dt=""r8"">1.71373784361091E+15</Timestamp><Current dt:dt=""r8"">0</Current><DateUtc dt:dt=""string"">2014-05-14T20:48:24Z</DateUtc></FrequencyChange></FrequencyChanges></Clock>\n",60.03,1,-819504332,0,,-999999,1,44637,t,51424,96061,5/14/2014,13:48:25,8:48:25 PM,2,Session2,SessionsList,0,,-999999,10,744888,t,38677,783565,722466,2,1,2,1,,,,,,,,1,1,1,NonCued3,MiniBlocks2,,,783568,,9,1,r,-999999,3,920583,r,527,921110,Green,Congruent,r,White,0,,0,8,910588,,0,0,,,,,,,,,,,,,Pictures\white.bmp,9000,10000,Pictures\GreenLeft.bmp,,,,,,,9,1,9,,,,StimulusPr,Pictures\black.bmp,NonCuedStim3,Left
POP_2,16066,1,"<?xml version=""1.0""?>\n<Clock xmlns:dt=""urn:schemas-microsoft-com:datatypes""><Description dt:dt=""string"">E-Prime Primary Realtime Clock</Description><StartTime><Timestamp dt:dt=""int"">0</Timestamp><DateUtc dt:dt=""string"">2014-05-14T20:48:24Z</DateUtc></StartTime><FrequencyChanges><FrequencyChange><Frequency dt:dt=""r8"">2793030000</Frequency><Timestamp dt:dt=""r8"">1.71373784361091E+15</Timestamp><Current dt:dt=""r8"">0</Current><DateUtc dt:dt=""string"">2014-05-14T20:48:24Z</DateUtc></FrequencyChange></FrequencyChanges></Clock>\n",60.03,1,-819504332,0,,-999999,1,44637,t,51424,96061,5/14/2014,13:48:25,8:48:25 PM,2,Session2,SessionsList,0,,-999999,10,744888,t,38677,783565,722466,2,1,2,1,,,,,,,,1,1,1,NonCued3,MiniBlocks2,,,783568,,10,1,r,-999999,10,939590,r,453,940043,Green,Congruent,r,White,0,,0,14,932594,,0,0,,,,,,,,,,,,,Pictures\white.bmp,6000,4000,Pictures\GreenLeft.bmp,,,,,,,10,1,10,,,,StimulusPr,Pictures\black.bmp,NonCuedStim3,Left
POP_2,16066,1,"<?xml version=""1.0""?>\n<Clock xmlns:dt=""urn:schemas-microsoft-com:datatypes""><Description dt:dt=""string"">E-Prime Primary Realtime Clock</Description><StartTime><Timestamp dt:dt=""int"">0</Timestamp><DateUtc dt:dt=""string"">2014-05-14T20:48:24Z</DateUtc></StartTime><FrequencyChanges><FrequencyChange><Frequency dt:dt=""r8"">2793030000</Frequency><Timestamp dt:dt=""r8"">1.71373784361091E+15</Timestamp><Current dt:dt=""r8"">0</Current><DateUtc dt:dt=""string"">2014-05-14T20:48:24Z</DateUtc></FrequencyChange></FrequencyChanges></Clock>\n",60.03,1,-819504332,0,,-999999,1,44637,t,51424,96061,5/14/2014,13:48:25,8:48:25 PM,2,Session2,SessionsList,0,,-999999,10,744888,t,38677,783565,722466,2,1,2,2,,,944072,,,,,2,1,2,Cued3,MiniBlocks2,,,,,1,1,b,-999999,18,958598,b,333,958931,White,Congruent,b,Green,0,,0,3,954583,,0,0,,,,,,,1,1,1,,,,Pictures\green.bmp,3000,2000,Pictures\black.bmp,,,,,,,,,,,,,StimulusPr,Pictures\right.bmp,CuedStim3,Right
POP_2,16066,1,"<?xml version=""1.0""?>\n<Clock xmlns:dt=""urn:schemas-microsoft-com:datatypes""><Description dt:dt=""string"">E-Prime Primary Realtime Clock</Description><StartTime><Timestamp dt:dt=""int"">0</Timestamp><DateUtc dt:dt=""string"">2014-05-14T20:48:24Z</DateUtc></StartTime><FrequencyChanges><FrequencyChange><Frequency dt:dt=""r8"">2793030000</Frequency><Timestamp dt:dt=""r8"">1.71373784361091E+15</Timestamp><Current dt:dt=""r8"">0</Current><DateUtc dt:dt=""string"">2014-05-14T20:48:24Z</DateUtc></FrequencyChange></FrequencyChanges></Clock>\n",60.03,1,-819504332,0,,-999999,1,44637,t,51424,96061,5/14/2014,13:48:25,8:48:25 PM,2,Session2,SessionsList,0,,-999999,10,744888,t,38677,783565,722466,2,1,2,2,,,944072,,,,,2,1,2,Cued3,MiniBlocks2,,,,,2,1,b,-999999,14,966594,b,371,966965,White,Congruent,b,Green,0,,0,16,962596,,0,0,,,,,,,2,1,2,,,,Pictures\green.bmp,3000,10000,Pictures\black.bmp,,,,,,,,,,,,,StimulusPr,Pictures\right.bmp,CuedStim3,Right
POP_2,16066,1,"<?xml version=""1.0""?>\n<Clock xmlns:dt=""urn:schemas-microsoft-com:datatypes""><Description dt:dt=""string"">E-Prime Primary Realtime Clock</Description><StartTime><Timestamp dt:dt=""int"">0</Timestamp><DateUtc dt:dt=""string"">2014-05-14T20:48:24Z</DateUtc></StartTime><FrequencyChanges><FrequencyChange><Frequency dt:dt=""r8"">2793030000</Frequency><Timestamp dt:dt=""r8"">1.71373784361091E+15</Timestamp><Current dt:dt=""r8"">0</Current><DateUtc dt:dt=""string"">2014-05-14T20:48:24Z</DateUtc></FrequencyChange></FrequencyChanges></Clock>\n",60.03,1,-819504332,0,,-999999,1,44637,t,51424,96061,5/14/2014,13:48:25,8:48:25 PM,2,Session2,SessionsList,0,,-999999,10,744888,t,38677,783565,722466,2,1,2,2,,,944072,,,,,2,1,2,Cued3,MiniBlocks2,,,,,3,1,r,-999999,8,988583,r,435,989018,White,Congruent,r,Green,0,,0,17,978588,,0,0,,,,,,,3,1,3,,,,Pictures\green.bmp,9000,2000,Pictures\left.bmp,,,,,,,,,,,,,StimulusPr,Pictures\black.bmp,CuedStim3,Left
POP_2,16066,1,"<?xml version=""1.0""?>\n<Clock xmlns:dt=""urn:schemas-microsoft-com:datatypes""><Description dt:dt=""string"">E-Prime Primary Realtime Clock</Description><StartTime><Timestamp dt:dt=""int"">0</Timestamp><DateUtc dt:dt=""string"">2014-05-14T20:48:24Z</DateUtc></StartTime><FrequencyChanges><FrequencyChange><Frequency dt:dt=""r8"">2793030000</Frequency><Timestamp dt:dt=""r8"">1.71373784361091E+15</Timestamp><Current dt:dt=""r8"">0</Current><DateUtc dt:dt=""string"">2014-05-14T20:48:24Z</DateUtc></FrequencyChange></FrequencyChanges></Clock>\n",60.03,1,-819504332,0,,-999999,1,44637,t,51424,96061,5/14/2014,13:48:25,8:48:25 PM,2,Session2,SessionsList,0,,-999999,10,744888,t,38677,783565,722466,2,1,2,2,,,944072,,,,,2,1,2,Cued3,MiniBlocks2,,,,,4,1,r,-999999,14,997578,r,357,997935,White,Congruent,r,Green,0,,0,17,992597,,0,0,,,,,,,4,1,4,,,,Pictures\green.bmp,4000,16000,Pictures\left.bmp,,,,,,,,,,,,,StimulusPr,Pictures\black.bmp,CuedStim3,Left
POP_2,16066,1,"<?xml version=""1.0""?>\n<Clock xmlns:dt=""urn:schemas-microsoft-com:datatypes""><Description dt:dt=""string"">E-Prime Primary Realtime Clock</Description><StartTime><Timestamp dt:dt=""int"">0</Timestamp><DateUtc dt:dt=""string"">2014-05-14T20:48:24Z</DateUtc></StartTime><FrequencyChanges><FrequencyChange><Frequency dt:dt=""r8"">2793030000</Frequency><Timestamp dt:dt=""r8"">1.71373784361091E+15</Timestamp><Current dt:dt=""r8"">0</Current><DateUtc dt:dt=""string"">2014-05-14T20:48:24Z</DateUtc></FrequencyChange></FrequencyChanges></Clock>\n",60.03,1,-819504332,0,,-999999,1,44637,t,51424,96061,5/14/2014,13:48:25,8:48:25 PM,2,Session2,SessionsList,0,,-999999,10,744888,t,38677,783565,722466,2,1,2,2,,,944072,,,,,2,1,2,Cued3,MiniBlocks2,,,,,5,1,r,-999999,4,1019584,r,427,1020011,White,Incongruent,r,Red,0,,0,5,1015569,,0,0,,,,,,,5,1,5,,,,Pictures\red.bmp,3000,4000,Pictures\black.bmp,,,,,,,,,,,,,StimulusPr,Pictures\right.bmp,CuedStim3,Right
POP_2,16066,1,"<?xml version=""1.0""?>\n<Clock xmlns:dt=""urn:schemas-microsoft-com:datatypes""><Description dt:dt=""string"">E-Prime Primary Realtime Clock</Description><StartTime><Timestamp dt:dt=""int"">0</Timestamp><DateUtc dt:dt=""string"">2014-05-14T20:48:24Z</DateUtc></StartTime><FrequencyChanges><FrequencyChange><Frequency dt:dt=""r8"">2793030000</Frequency><Timestamp dt:dt=""r8"">1.71373784361091E+15</Timestamp><Current dt:dt=""r8"">0</Current><DateUtc dt:dt=""string"">2014-05-14T20:48:24Z</DateUtc></FrequencyChange></FrequencyChanges></Clock>\n",60.03,1,-819504332,0,,-999999,1,44637,t,51424,96061,5/14/2014,13:48:25,8:48:25 PM,2,Session2,SessionsList,0,,-999999,10,744888,t,38677,783565,722466,2,1,2,2,,,944072,,,,,2,1,2,Cued3,MiniBlocks2,,,,,6,1,b,-999999,14,1032577,b,306,1032883,White,Congruent,b,Green,0,,0,17,1025581,,0,0,,,,,,,6,1,6,,,,Pictures\green.bmp,6000,4000,Pictures\black.bmp,,,,,,,,,,,,,StimulusPr,Pictures\right.bmp,CuedStim3,Right
POP_2,16066,1,"<?xml version=""1.0""?>\n<Clock xmlns:dt=""urn:schemas-microsoft-com:datatypes""><Description dt:dt=""string"">E-Prime Primary Realtime Clock</Description><StartTime><Timestamp dt:dt=""int"">0</Timestamp><DateUtc dt:dt=""string"">2014-05-14T20:48:24Z</DateUtc></StartTime><FrequencyChanges><FrequencyChange><Frequency dt:dt=""r8"">2793030000</Frequency><Timestamp dt:dt=""r8"">1.71373784361091E+15</Timestamp><Current dt:dt=""r8"">0</Current><DateUtc dt:dt=""string"">2014-05-14T20:48:24Z</DateUtc></FrequencyChange></FrequencyChanges></Clock>\n",60.03,1,-819504332,0,,-999999,1,44637,t,51424,96061,5/14/2014,13:48:25,8:48:25 PM,2,Session2,SessionsList,0,,-999999,10,744888,t,38677,783565,722466,2,1,2,2,,,944072,,,,,2,1,2,Cued3,MiniBlocks2,,,,,7,1,r,-999999,8,1043572,r,301,1043873,White,Congruent,r,Green,0,,0,3,1038574,,0,0,,,,,,,7,1,7,,,,Pictures\green.bmp,4000,16000,Pictures\left.bmp,,,,,,,,,,,,,StimulusPr,Pictures\black.bmp,CuedStim3,Left
POP_2,16066,1,"<?xml version=""1.0""?>\n<Clock xmlns:dt=""urn:schemas-microsoft-com:datatypes""><Description dt:dt=""string"">E-Prime Primary Realtime Clock</Description><StartTime><Timestamp dt:dt=""int"">0</Timestamp><DateUtc dt:dt=""string"">2014-05-14T20:48:24Z</DateUtc></StartTime><FrequencyChanges><FrequencyChange><Frequency dt:dt=""r8"">2793030000</Frequency><Timestamp dt:dt=""r8"">1.71373784361091E+15</Timestamp><Current dt:dt=""r8"">0</Current><DateUtc dt:dt=""string"">2014-05-14T20:48:24Z</DateUtc></FrequencyChange></FrequencyChanges></Clock>\n",60.03,1,-819504332,0,,-999999,1,44637,t,51424,96061,5/14/2014,13:48:25,8:48:25 PM,2,Session2,SessionsList,0,,-999999,10,744888,t,38677,783565,722466,2,1,2,2,,,944072,,,,,2,1,2,Cued3,MiniBlocks2,,,,,8,1,b,-999999,12,1065578,b,509,1066087,White,Incongruent,b,Red,0,,0,16,1061580,,0,0,,,,,,,8,1,8,,,,Pictures\red.bmp,3000,2000,Pictures\left.bmp,,,,,,,,,,,,,StimulusPr,Pictures\black.bmp,CuedStim3,Left
POP_2,16066,1,"<?xml version=""1.0""?>\n<Clock xmlns:dt=""urn:schemas-microsoft-com:datatypes""><Description dt:dt=""string"">E-Prime Primary Realtime Clock</Description><StartTime><Timestamp dt:dt=""int"">0</Timestamp><DateUtc dt:dt=""string"">2014-05-14T20:48:24Z</DateUtc></StartTime><FrequencyChanges><FrequencyChange><Frequency dt:dt=""r8"">2793030000</Frequency><Timestamp dt:dt=""r8"">1.71373784361091E+15</Timestamp><Current dt:dt=""r8"">0</Current><DateUtc dt:dt=""string"">2014-05-14T20:48:24Z</DateUtc></FrequencyChange></FrequencyChanges></Clock>\n",60.03,1,-819504332,0,,-999999,1,44637,t,51424,96061,5/14/2014,13:48:25,8:48:25 PM,2,Session2,SessionsList,0,,-999999,10,744888,t,38677,783565,722466,2,1,2,2,,,944072,,,,,2,1,2,Cued3,MiniBlocks2,,,,,9,1,r,-999999,10,1073590,r,469,1074059,White,Congruent,r,Green,0,,0,5,1069576,,0,0,,,,,,,9,1,9,,,,Pictures\green.bmp,3000,2000,Pictures\left.bmp,,,,,,,,,,,,,StimulusPr,Pictures\black.bmp,CuedStim3,Left
POP_2,16066,1,"<?xml version=""1.0""?>\n<Clock xmlns:dt=""urn:schemas-microsoft-com:datatypes""><Description dt:dt=""string"">E-Prime Primary Realtime Clock</Description><StartTime><Timestamp dt:dt=""int"">0</Timestamp><DateUtc dt:dt=""string"">2014-05-14T20:48:24Z</DateUtc></StartTime><FrequencyChanges><FrequencyChange><Frequency dt:dt=""r8"">2793030000</Frequency><Timestamp dt:dt=""r8"">1.71373784361091E+15</Timestamp><Current dt:dt=""r8"">0</Current><DateUtc dt:dt=""string"">2014-05-14T20:48:24Z</DateUtc></FrequencyChange></FrequencyChanges></Clock>\n",60.03,1,-819504332,0,,-999999,1,44637,t,51424,96061,5/14/2014,13:48:25,8:48:25 PM,2,Session2,SessionsList,0,,-999999,10,744888,t,38677,783565,722466,2,1,2,2,,,944072,,,,,2,1,2,Cued3,MiniBlocks2,,,,,10,1,b,-999999,3,1087583,b,442,1088025,White,Congruent,b,Green,0,,0,8,1077588,,0,0,,,,,,,10,1,10,,,,Pictures\green.bmp,9000,10000,Pictures\black.bmp,,,,,,,,,,,,,StimulusPr,Pictures\right.bmp,CuedStim3,Right
POP_2,16066,1,"<?xml version=""1.0""?>\n<Clock xmlns:dt=""urn:schemas-microsoft-com:datatypes""><Description dt:dt=""string"">E-Prime Primary Realtime Clock</Description><StartTime><Timestamp dt:dt=""int"">0</Timestamp><DateUtc dt:dt=""string"">2014-05-14T20:48:24Z</DateUtc></StartTime><FrequencyChanges><FrequencyChange><Frequency dt:dt=""r8"">2793030000</Frequency><Timestamp dt:dt=""r8"">1.71373784361091E+15</Timestamp><Current dt:dt=""r8"">0</Current><DateUtc dt:dt=""string"">2014-05-14T20:48:24Z</DateUtc></FrequencyChange></FrequencyChanges></Clock>\n",60.03,1,-819504332,0,,-999999,1,44637,t,51424,96061,5/14/2014,13:48:25,8:48:25 PM,2,Session2,SessionsList,0,,-999999,10,744888,t,38677,783565,722466,2,1,2,3,,,,1098045,,,,3,1,3,Cued4,MiniBlocks2,,,,,1,1,b,-999999,6,1115586,b,345,1115931,White,Congruent,b,Green,0,,0,9,1108589,,0,0,,,,,,,,,,1,1,1,Pictures\green.bmp,6000,2000,Pictures\black.bmp,,,,,,,,,,,,,StimulusPr,Pictures\right.bmp,CuedStim4,Right
POP_2,16066,1,"<?xml version=""1.0""?>\n<Clock xmlns:dt=""urn:schemas-microsoft-com:datatypes""><Description dt:dt=""string"">E-Prime Primary Realtime Clock</Description><StartTime><Timestamp dt:dt=""int"">0</Timestamp><DateUtc dt:dt=""string"">2014-05-14T20:48:24Z</DateUtc></StartTime><FrequencyChanges><FrequencyChange><Frequency dt:dt=""r8"">2793030000</Frequency><Timestamp dt:dt=""r8"">1.71373784361091E+15</Timestamp><Current dt:dt=""r8"">0</Current><DateUtc dt:dt=""string"">2014-05-14T20:48:24Z</DateUtc></FrequencyChange></FrequencyChanges></Clock>\n",60.03,1,-819504332,0,,-999999,1,44637,t,51424,96061,5/14/2014,13:48:25,8:48:25 PM,2,Session2,SessionsList,0,,-999999,10,744888,t,38677,783565,722466,2,1,2,3,,,,1098045,,,,3,1,3,Cued4,MiniBlocks2,,,,,2,1,r,-999999,8,1129579,r,584,1130163,White,Incongruent,r,Red,0,,0,4,1119584,,0,0,,,,,,,,,,2,1,2,Pictures\red.bmp,9000,2000,Pictures\black.bmp,,,,,,,,,,,,,StimulusPr,Pictures\right.bmp,CuedStim4,Right
POP_2,16066,1,"<?xml version=""1.0""?>\n<Clock xmlns:dt=""urn:schemas-microsoft-com:datatypes""><Description dt:dt=""string"">E-Prime Primary Realtime Clock</Description><StartTime><Timestamp dt:dt=""int"">0</Timestamp><DateUtc dt:dt=""string"">2014-05-14T20:48:24Z</DateUtc></StartTime><FrequencyChanges><FrequencyChange><Frequency dt:dt=""r8"">2793030000</Frequency><Timestamp dt:dt=""r8"">1.71373784361091E+15</Timestamp><Current dt:dt=""r8"">0</Current><DateUtc dt:dt=""string"">2014-05-14T20:48:24Z</DateUtc></FrequencyChange></FrequencyChanges></Clock>\n",60.03,1,-819504332,0,,-999999,1,44637,t,51424,96061,5/14/2014,13:48:25,8:48:25 PM,2,Session2,SessionsList,0,,-999999,10,744888,t,38677,783565,722466,2,1,2,3,,,,1098045,,,,3,1,3,Cued4,MiniBlocks2,,,,,3,1,b,-999999,3,1137575,b,366,1137941,White,Congruent,b,Green,0,,0,11,1133577,,0,0,,,,,,,,,,3,1,3,Pictures\green.bmp,3000,4000,Pictures\black.bmp,,,,,,,,,,,,,StimulusPr,Pictures\right.bmp,CuedStim4,Right
POP_2,16066,1,"<?xml version=""1.0""?>\n<Clock xmlns:dt=""urn:schemas-microsoft-com:datatypes""><Description dt:dt=""string"">E-Prime Primary Realtime Clock</Description><StartTime><Timestamp dt:dt=""int"">0</Timestamp><DateUtc dt:dt=""string"">2014-05-14T20:48:24Z</DateUtc></StartTime><FrequencyChanges><FrequencyChange><Frequency dt:dt=""r8"">2793030000</Frequency><Timestamp dt:dt=""r8"">1.71373784361091E+15</Timestamp><Current dt:dt=""r8"">0</Current><DateUtc dt:dt=""string"">2014-05-14T20:48:24Z</DateUtc></FrequencyChange></FrequencyChanges></Clock>\n",60.03,1,-819504332,0,,-999999,1,44637,t,51424,96061,5/14/2014,13:48:25,8:48:25 PM,2,Session2,SessionsList,0,,-999999,10,744888,t,38677,783565,722466,2,1,2,3,,,,1098045,,,,3,1,3,Cued4,MiniBlocks2,,,,,4,1,r,-999999,7,1147587,r,380,1147967,White,Congruent,r,Green,0,,0,9,1143589,,0,0,,,,,,,,,,4,1,4,Pictures\green.bmp,3000,4000,Pictures\left.bmp,,,,,,,,,,,,,StimulusPr,Pictures\black.bmp,CuedStim4,Left
POP_2,16066,1,"<?xml version=""1.0""?>\n<Clock xmlns:dt=""urn:schemas-microsoft-com:datatypes""><Description dt:dt=""string"">E-Prime Primary Realtime Clock</Description><StartTime><Timestamp dt:dt=""int"">0</Timestamp><DateUtc dt:dt=""string"">2014-05-14T20:48:24Z</DateUtc></StartTime><FrequencyChanges><FrequencyChange><Frequency dt:dt=""r8"">2793030000</Frequency><Timestamp dt:dt=""r8"">1.71373784361091E+15</Timestamp><Current dt:dt=""r8"">0</Current><DateUtc dt:dt=""string"">2014-05-14T20:48:24Z</DateUtc></FrequencyChange></FrequencyChanges></Clock>\n",60.03,1,-819504332,0,,-999999,1,44637,t,51424,96061,5/14/2014,13:48:25,8:48:25 PM,2,Session2,SessionsList,0,,-999999,10,744888,t,38677,783565,722466,2,1,2,3,,,,1098045,,,,3,1,3,Cued4,MiniBlocks2,,,,,5,1,b,-999999,17,1158581,b,370,1158951,White,Incongruent,b,Red,0,,0,4,1153584,,0,0,,,,,,,,,,5,1,5,Pictures\red.bmp,4000,16000,Pictures\left.bmp,,,,,,,,,,,,,StimulusPr,Pictures\black.bmp,CuedStim4,Left
POP_2,16066,1,"<?xml version=""1.0""?>\n<Clock xmlns:dt=""urn:schemas-microsoft-com:datatypes""><Description dt:dt=""string"">E-Prime Primary Realtime Clock</Description><StartTime><Timestamp dt:dt=""int"">0</Timestamp><DateUtc dt:dt=""string"">2014-05-14T20:48:24Z</DateUtc></StartTime><FrequencyChanges><FrequencyChange><Frequency dt:dt=""r8"">2793030000</Frequency><Timestamp dt:dt=""r8"">1.71373784361091E+15</Timestamp><Current dt:dt=""r8"">0</Current><DateUtc dt:dt=""string"">2014-05-14T20:48:24Z</DateUtc></FrequencyChange></FrequencyChanges></Clock>\n",60.03,1,-819504332,0,,-999999,1,44637,t,51424,96061,5/14/2014,13:48:25,8:48:25 PM,2,Session2,SessionsList,0,,-999999,10,744888,t,38677,783565,722466,2,1,2,3,,,,1098045,,,,3,1,3,Cued4,MiniBlocks2,,,,,6,1,b,-999999,6,1180570,b,358,1180928,White,Congruent,b,Green,0,,0,9,1176589,,0,0,,,,,,,,,,6,1,6,Pictures\green.bmp,3000,2000,Pictures\black.bmp,,,,,,,,,,,,,StimulusPr,Pictures\right.bmp,CuedStim4,Right
POP_2,16066,1,"<?xml version=""1.0""?>\n<Clock xmlns:dt=""urn:schemas-microsoft-com:datatypes""><Description dt:dt=""string"">E-Prime Primary Realtime Clock</Description><StartTime><Timestamp dt:dt=""int"">0</Timestamp><DateUtc dt:dt=""string"">2014-05-14T20:48:24Z</DateUtc></StartTime><FrequencyChanges><FrequencyChange><Frequency dt:dt=""r8"">2793030000</Frequency><Timestamp dt:dt=""r8"">1.71373784361091E+15</Timestamp><Current dt:dt=""r8"">0</Current><DateUtc dt:dt=""string"">2014-05-14T20:48:24Z</DateUtc></FrequencyChange></FrequencyChanges></Clock>\n",60.03,1,-819504332,0,,-999999,1,44637,t,51424,96061,5/14/2014,13:48:25,8:48:25 PM,2,Session2,SessionsList,0,,-999999,10,744888,t,38677,783565,722466,2,1,2,3,,,,1098045,,,,3,1,3,Cued4,MiniBlocks2,,,,,7,1,b,-999999,17,1194580,b,342,1194922,White,Congruent,b,Green,0,,0,5,1184585,,0,0,,,,,,,,,,7,1,7,Pictures\green.bmp,9000,10000,Pictures\black.bmp,,,,,,,,,,,,,StimulusPr,Pictures\right.bmp,CuedStim4,Right
POP_2,16066,1,"<?xml version=""1.0""?>\n<Clock xmlns:dt=""urn:schemas-microsoft-com:datatypes""><Description dt:dt=""string"">E-Prime Primary Realtime Clock</Description><StartTime><Timestamp dt:dt=""int"">0</Timestamp><DateUtc dt:dt=""string"">2014-05-14T20:48:24Z</DateUtc></StartTime><FrequencyChanges><FrequencyChange><Frequency dt:dt=""r8"">2793030000</Frequency><Timestamp dt:dt=""r8"">1.71373784361091E+15</Timestamp><Current dt:dt=""r8"">0</Current><DateUtc dt:dt=""string"">2014-05-14T20:48:24Z</DateUtc></FrequencyChange></FrequencyChanges></Clock>\n",60.03,1,-819504332,0,,-999999,1,44637,t,51424,96061,5/14/2014,13:48:25,8:48:25 PM,2,Session2,SessionsList,0,,-999999,10,744888,t,38677,783565,722466,2,1,2,3,,,,1098045,,,,3,1,3,Cued4,MiniBlocks2,,,,,8,1,b,-999999,7,1213587,b,589,1214176,White,Incongruent,b,Red,0,,0,10,1206590,,0,0,,,,,,,,,,8,1,8,Pictures\red.bmp,6000,10000,Pictures\left.bmp,,,,,,,,,,,,,StimulusPr,Pictures\black.bmp,CuedStim4,Left
POP_2,16066,1,"<?xml version=""1.0""?>\n<Clock xmlns:dt=""urn:schemas-microsoft-com:datatypes""><Description dt:dt=""string"">E-Prime Primary Realtime Clock</Description><StartTime><Timestamp dt:dt=""int"">0</Timestamp><DateUtc dt:dt=""string"">2014-05-14T20:48:24Z</DateUtc></StartTime><FrequencyChanges><FrequencyChange><Frequency dt:dt=""r8"">2793030000</Frequency><Timestamp dt:dt=""r8"">1.71373784361091E+15</Timestamp><Current dt:dt=""r8"">0</Current><DateUtc dt:dt=""string"">2014-05-14T20:48:24Z</DateUtc></FrequencyChange></FrequencyChanges></Clock>\n",60.03,1,-819504332,0,,-999999,1,44637,t,51424,96061,5/14/2014,13:48:25,8:48:25 PM,2,Session2,SessionsList,0,,-999999,10,744888,t,38677,783565,722466,2,1,2,3,,,,1098045,,,,3,1,3,Cued4,MiniBlocks2,,,,,9,1,r,-999999,13,1232577,r,649,1233226,White,Congruent,r,Green,0,,0,10,1225581,,0,0,,,,,,,,,,9,1,9,Pictures\green.bmp,6000,16000,Pictures\left.bmp,,,,,,,,,,,,,StimulusPr,Pictures\black.bmp,CuedStim4,Left
POP_2,16066,1,"<?xml version=""1.0""?>\n<Clock xmlns:dt=""urn:schemas-microsoft-com:datatypes""><Description dt:dt=""string"">E-Prime Primary Realtime Clock</Description><StartTime><Timestamp dt:dt=""int"">0</Timestamp><DateUtc dt:dt=""string"">2014-05-14T20:48:24Z</DateUtc></StartTime><FrequencyChanges><FrequencyChange><Frequency dt:dt=""r8"">2793030000</Frequency><Timestamp dt:dt=""r8"">1.71373784361091E+15</Timestamp><Current dt:dt=""r8"">0</Current><DateUtc dt:dt=""string"">2014-05-14T20:48:24Z</DateUtc></FrequencyChange></FrequencyChanges></Clock>\n",60.03,1,-819504332,0,,-999999,1,44637,t,51424,96061,5/14/2014,13:48:25,8:48:25 PM,2,Session2,SessionsList,0,,-999999,10,744888,t,38677,783565,722466,2,1,2,3,,,,1098045,,,,3,1,3,Cued4,MiniBlocks2,,,,,10,1,r,-999999,11,1255583,r,357,1255940,White,Congruent,r,Green,0,,0,5,1250585,,0,0,,,,,,,,,,10,1,10,Pictures\green.bmp,4000,2000,Pictures\left.bmp,,,,,,,,,,,,,StimulusPr,Pictures\black.bmp,CuedStim4,Left
POP_2,16066,1,"<?xml version=""1.0""?>\n<Clock xmlns:dt=""urn:schemas-microsoft-com:datatypes""><Description dt:dt=""string"">E-Prime Primary Realtime Clock</Description><StartTime><Timestamp dt:dt=""int"">0</Timestamp><DateUtc dt:dt=""string"">2014-05-14T20:48:24Z</DateUtc></StartTime><FrequencyChanges><FrequencyChange><Frequency dt:dt=""r8"">2793030000</Frequency><Timestamp dt:dt=""r8"">1.71373784361091E+15</Timestamp><Current dt:dt=""r8"">0</Current><DateUtc dt:dt=""string"">2014-05-14T20:48:24Z</DateUtc></FrequencyChange></FrequencyChanges></Clock>\n",60.03,1,-819504332,0,,-999999,1,44637,t,51424,96061,5/14/2014,13:48:25,8:48:25 PM,2,Session2,SessionsList,0,,-999999,10,744888,t,38677,783565,722466,2,1,2,4,,,,,,,,4,1,4,NonCued4,MiniBlocks2,,,,1257965,1,1,r,-999999,7,1271575,r,376,1271951,Green,Congruent,r,White,0,,0,13,1267593,,0,0,,,,,,,,,,,,,Pictures\white.bmp,3000,2000,Pictures\GreenLeft.bmp,,,,,,,,,,1,1,1,StimulusPr,Pictures\black.bmp,NonCuedStim4,Left
POP_2,16066,1,"<?xml version=""1.0""?>\n<Clock xmlns:dt=""urn:schemas-microsoft-com:datatypes""><Description dt:dt=""string"">E-Prime Primary Realtime Clock</Description><StartTime><Timestamp dt:dt=""int"">0</Timestamp><DateUtc dt:dt=""string"">2014-05-14T20:48:24Z</DateUtc></StartTime><FrequencyChanges><FrequencyChange><Frequency dt:dt=""r8"">2793030000</Frequency><Timestamp dt:dt=""r8"">1.71373784361091E+15</Timestamp><Current dt:dt=""r8"">0</Current><DateUtc dt:dt=""string"">2014-05-14T20:48:24Z</DateUtc></FrequencyChange></FrequencyChanges></Clock>\n",60.03,1,-819504332,0,,-999999,1,44637,t,51424,96061,5/14/2014,13:48:25,8:48:25 PM,2,Session2,SessionsList,0,,-999999,10,744888,t,38677,783565,722466,2,1,2,4,,,,,,,,4,1,4,NonCued4,MiniBlocks2,,,,1257965,2,1,r,-999999,18,1280587,r,381,1280968,Green,Congruent,r,White,0,,0,9,1275589,,0,0,,,,,,,,,,,,,Pictures\white.bmp,4000,2000,Pictures\GreenLeft.bmp,,,,,,,,,,2,1,2,StimulusPr,Pictures\black.bmp,NonCuedStim4,Left
POP_2,16066,1,"<?xml version=""1.0""?>\n<Clock xmlns:dt=""urn:schemas-microsoft-com:datatypes""><Description dt:dt=""string"">E-Prime Primary Realtime Clock</Description><StartTime><Timestamp dt:dt=""int"">0</Timestamp><DateUtc dt:dt=""string"">2014-05-14T20:48:24Z</DateUtc></StartTime><FrequencyChanges><FrequencyChange><Frequency dt:dt=""r8"">2793030000</Frequency><Timestamp dt:dt=""r8"">1.71373784361091E+15</Timestamp><Current dt:dt=""r8"">0</Current><DateUtc dt:dt=""string"">2014-05-14T20:48:24Z</DateUtc></FrequencyChange></FrequencyChanges></Clock>\n",60.03,1,-819504332,0,,-999999,1,44637,t,51424,96061,5/14/2014,13:48:25,8:48:25 PM,2,Session2,SessionsList,0,,-999999,10,744888,t,38677,783565,722466,2,1,2,4,,,,,,,,4,1,4,NonCued4,MiniBlocks2,,,,1257965,3,1,r,-999999,2,1289582,r,511,1290093,Red,Incongruent,r,White,0,,0,5,1284585,,0,0,,,,,,,,,,,,,Pictures\white.bmp,4000,2000,Pictures\black.bmp,,,,,,,,,,3,1,3,StimulusPr,Pictures\RedRight.bmp,NonCuedStim4,Right
POP_2,16066,1,"<?xml version=""1.0""?>\n<Clock xmlns:dt=""urn:schemas-microsoft-com:datatypes""><Description dt:dt=""string"">E-Prime Primary Realtime Clock</Description><StartTime><Timestamp dt:dt=""int"">0</Timestamp><DateUtc dt:dt=""string"">2014-05-14T20:48:24Z</DateUtc></StartTime><FrequencyChanges><FrequencyChange><Frequency dt:dt=""r8"">2793030000</Frequency><Timestamp dt:dt=""r8"">1.71373784361091E+15</Timestamp><Current dt:dt=""r8"">0</Current><DateUtc dt:dt=""string"">2014-05-14T20:48:24Z</DateUtc></FrequencyChange></FrequencyChanges></Clock>\n",60.03,1,-819504332,0,,-999999,1,44637,t,51424,96061,5/14/2014,13:48:25,8:48:25 PM,2,Session2,SessionsList,0,,-999999,10,744888,t,38677,783565,722466,2,1,2,4,,,,,,,,4,1,4,NonCued4,MiniBlocks2,,,,1257965,4,1,b,-999999,15,1297595,b,350,1297945,Green,Congruent,b,White,0,,0,16,1293580,,0,0,,,,,,,,,,,,,Pictures\white.bmp,3000,16000,Pictures\black.bmp,,,,,,,,,,4,1,4,StimulusPr,Pictures\GreenRight.bmp,NonCuedStim4,Right
POP_2,16066,1,"<?xml version=""1.0""?>\n<Clock xmlns:dt=""urn:schemas-microsoft-com:datatypes""><Description dt:dt=""string"">E-Prime Primary Realtime Clock</Description><StartTime><Timestamp dt:dt=""int"">0</Timestamp><DateUtc dt:dt=""string"">2014-05-14T20:48:24Z</DateUtc></StartTime><FrequencyChanges><FrequencyChange><Frequency dt:dt=""r8"">2793030000</Frequency><Timestamp dt:dt=""r8"">1.71373784361091E+15</Timestamp><Current dt:dt=""r8"">0</Current><DateUtc dt:dt=""string"">2014-05-14T20:48:24Z</DateUtc></FrequencyChange></FrequencyChanges></Clock>\n",60.03,1,-819504332,0,,-999999,1,44637,t,51424,96061,5/14/2014,13:48:25,8:48:25 PM,2,Session2,SessionsList,0,,-999999,10,744888,t,38677,783565,722466,2,1,2,4,,,,,,,,4,1,4,NonCued4,MiniBlocks2,,,,1257965,5,1,r,-999999,18,1325598,r,393,1325991,Green,Congruent,r,White,0,,0,5,1315569,,0,0,,,,,,,,,,,,,Pictures\white.bmp,9000,10000,Pictures\GreenLeft.bmp,,,,,,,,,,5,1,5,StimulusPr,Pictures\black.bmp,NonCuedStim4,Left
POP_2,16066,1,"<?xml version=""1.0""?>\n<Clock xmlns:dt=""urn:schemas-microsoft-com:datatypes""><Description dt:dt=""string"">E-Prime Primary Realtime Clock</Description><StartTime><Timestamp dt:dt=""int"">0</Timestamp><DateUtc dt:dt=""string"">2014-05-14T20:48:24Z</DateUtc></StartTime><FrequencyChanges><FrequencyChange><Frequency dt:dt=""r8"">2793030000</Frequency><Timestamp dt:dt=""r8"">1.71373784361091E+15</Timestamp><Current dt:dt=""r8"">0</Current><DateUtc dt:dt=""string"">2014-05-14T20:48:24Z</DateUtc></FrequencyChange></FrequencyChanges></Clock>\n",60.03,1,-819504332,0,,-999999,1,44637,t,51424,96061,5/14/2014,13:48:25,8:48:25 PM,2,Session2,SessionsList,0,,-999999,10,744888,t,38677,783565,722466,2,1,2,4,,,,,,,,4,1,4,NonCued4,MiniBlocks2,,,,1257965,6,1,b,-999999,10,1341590,b,404,1341994,Green,Congruent,b,White,0,,0,12,1337592,,0,0,,,,,,,,,,,,,Pictures\white.bmp,3000,16000,Pictures\black.bmp,,,,,,,,,,6,1,6,StimulusPr,Pictures\GreenRight.bmp,NonCuedStim4,Right
POP_2,16066,1,"<?xml version=""1.0""?>\n<Clock xmlns:dt=""urn:schemas-microsoft-com:datatypes""><Description dt:dt=""string"">E-Prime Primary Realtime Clock</Description><StartTime><Timestamp dt:dt=""int"">0</Timestamp><DateUtc dt:dt=""string"">2014-05-14T20:48:24Z</DateUtc></StartTime><FrequencyChanges><FrequencyChange><Frequency dt:dt=""r8"">2793030000</Frequency><Timestamp dt:dt=""r8"">1.71373784361091E+15</Timestamp><Current dt:dt=""r8"">0</Current><DateUtc dt:dt=""string"">2014-05-14T20:48:24Z</DateUtc></FrequencyChange></FrequencyChanges></Clock>\n",60.03,1,-819504332,0,,-999999,1,44637,t,51424,96061,5/14/2014,13:48:25,8:48:25 PM,2,Session2,SessionsList,0,,-999999,10,744888,t,38677,783565,722466,2,1,2,4,,,,,,,,4,1,4,NonCued4,MiniBlocks2,,,,1257965,7,1,b,-999999,15,1363595,b,518,1364113,Red,Incongruent,b,White,0,,0,17,1359597,,0,0,,,,,,,,,,,,,Pictures\white.bmp,3000,16000,Pictures\RedLeft.bmp,,,,,,,,,,7,1,7,StimulusPr,Pictures\black.bmp,NonCuedStim4,Left
POP_2,16066,1,"<?xml version=""1.0""?>\n<Clock xmlns:dt=""urn:schemas-microsoft-com:datatypes""><Description dt:dt=""string"">E-Prime Primary Realtime Clock</Description><StartTime><Timestamp dt:dt=""int"">0</Timestamp><DateUtc dt:dt=""string"">2014-05-14T20:48:24Z</DateUtc></StartTime><FrequencyChanges><FrequencyChange><Frequency dt:dt=""r8"">2793030000</Frequency><Timestamp dt:dt=""r8"">1.71373784361091E+15</Timestamp><Current dt:dt=""r8"">0</Current><DateUtc dt:dt=""string"">2014-05-14T20:48:24Z</DateUtc></FrequencyChange></FrequencyChanges></Clock>\n",60.03,1,-819504332,0,,-999999,1,44637,t,51424,96061,5/14/2014,13:48:25,8:48:25 PM,2,Session2,SessionsList,0,,-999999,10,744888,t,38677,783565,722466,2,1,2,4,,,,,,,,4,1,4,NonCued4,MiniBlocks2,,,,1257965,8,1,r,-999999,4,1385568,r,453,1386021,Green,Congruent,r,White,0,,0,15,1381586,,0,0,,,,,,,,,,,,,Pictures\white.bmp,3000,2000,Pictures\GreenLeft.bmp,,,,,,,,,,8,1,8,StimulusPr,Pictures\black.bmp,NonCuedStim4,Left
POP_2,16066,1,"<?xml version=""1.0""?>\n<Clock xmlns:dt=""urn:schemas-microsoft-com:datatypes""><Description dt:dt=""string"">E-Prime Primary Realtime Clock</Description><StartTime><Timestamp dt:dt=""int"">0</Timestamp><DateUtc dt:dt=""string"">2014-05-14T20:48:24Z</DateUtc></StartTime><FrequencyChanges><FrequencyChange><Frequency dt:dt=""r8"">2793030000</Frequency><Timestamp dt:dt=""r8"">1.71373784361091E+15</Timestamp><Current dt:dt=""r8"">0</Current><DateUtc dt:dt=""string"">2014-05-14T20:48:24Z</DateUtc></FrequencyChange></FrequencyChanges></Clock>\n",60.03,1,-819504332,0,,-999999,1,44637,t,51424,96061,5/14/2014,13:48:25,8:48:25 PM,2,Session2,SessionsList,0,,-999999,10,744888,t,38677,783565,722466,2,1,2,4,,,,,,,,4,1,4,NonCued4,MiniBlocks2,,,,1257965,9,1,b,-999999,17,1396596,b,372,1396968,Green,Congruent,b,White,0,,0,2,1389582,,0,0,,,,,,,,,,,,,Pictures\white.bmp,6000,2000,Pictures\black.bmp,,,,,,,,,,9,1,9,StimulusPr,Pictures\GreenRight.bmp,NonCuedStim4,Right
POP_2,16066,1,"<?xml version=""1.0""?>\n<Clock xmlns:dt=""urn:schemas-microsoft-com:datatypes""><Description dt:dt=""string"">E-Prime Primary Realtime Clock</Description><StartTime><Timestamp dt:dt=""int"">0</Timestamp><DateUtc dt:dt=""string"">2014-05-14T20:48:24Z</DateUtc></StartTime><FrequencyChanges><FrequencyChange><Frequency dt:dt=""r8"">2793030000</Frequency><Timestamp dt:dt=""r8"">1.71373784361091E+15</Timestamp><Current dt:dt=""r8"">0</Current><DateUtc dt:dt=""string"">2014-05-14T20:48:24Z</DateUtc></FrequencyChange></FrequencyChanges></Clock>\n",60.03,1,-819504332,0,,-999999,1,44637,t,51424,96061,5/14/2014,13:48:25,8:48:25 PM,2,Session2,SessionsList,0,,-999999,10,744888,t,38677,783565,722466,2,1,2,4,,,,,,,,4,1,4,NonCued4,MiniBlocks2,,,,1257965,10,1,b,-999999,11,1405591,b,369,1405960,Green,Congruent,b,White,0,,0,13,1400577,,0,0,,,,,,,,,,,,,Pictures\white.bmp,4000,4000,Pictures\black.bmp,,,,,,,,,,10,1,10,StimulusPr,Pictures\GreenRight.bmp,NonCuedStim4,Right
