ExperimentName,Subject,Session,Clock.Information,Display.RefreshRate,Group,RandomSeed,Session1Onset.ACC,Session1Onset.CRESP,Session1Onset.DurationError,Session1Onset.OnsetDelay,Session1Onset.OnsetTime,Session1Onset.RESP,Session1Onset.RT,Session1Onset.RTTime,SessionDate,SessionTime,SessionTimeUtc,Block,Procedure[Block],Running[Block],Session2Onset.ACC,Session2Onset.CRESP,Session2Onset.DurationError,Session2Onset.OnsetDelay,Session2Onset.OnsetTime,Session2Onset.RESP,Session2Onset.RT,Session2Onset.RTTime,SessionBreak.OnsetTime,SessionsList,SessionsList.Cycle,SessionsList.Sample,Trial,CuedPrompt1.OnsetTime,CuedPrompt2.OnsetTime,CuedPrompt3.OnsetTime,CuedPrompt4.OnsetTime,MiniBlocks1,MiniBlocks1.Cycle,MiniBlocks1.Sample,MiniBlocks2,MiniBlocks2.Cycle,MiniBlocks2.Sample,Procedure[Trial],Running[Trial],UncuedPrompt1.OnsetTime,UncuedPrompt2.OnsetTime,UncuedPrompt3.OnsetTime,UncuedPrompt4.OnsetTime,SubTrial,Arrow1.ACC,Arrow1.CRESP,Arrow1.DurationError,Arrow1.OnsetDelay,Arrow1.OnsetTime,Arrow1.RESP,Arrow1.RT,Arrow1.RTTime,ArrowColor,Congruence,CorrectResp,Cue,Cue.ACC,Cue.CRESP,Cue.DurationError,Cue.OnsetDelay,Cue.OnsetTime,Cue.RESP,Cue.RT,Cue.RTTime,CuedStim1,CuedStim1.Cycle,CuedStim1.Sample,CuedStim2,CuedStim2.Cycle,CuedStim2.Sample,CuedStim3,CuedStim3.Cycle,CuedStim3.Sample,CuedStim4,CuedStim4.Cycle,CuedStim4.Sample,CueImage,JitterCue,JitterTrial,LeftImage,NonCuedStim1,NonCuedStim1.Cycle,NonCuedStim1.Sample,NonCuedStim2,NonCuedStim2.Cycle,NonCuedStim2.Sample,NonCuedStim3,NonCuedStim3.Cycle,NonCuedStim3.Sample,NonCuedStim4,NonCuedStim4.Cycle,NonCuedStim4.Sample,Procedure[SubTrial],RightImage,Running[SubTrial],Stimulus
POP_2,16064,1,"<?xml version=""1.0""?>\n<Clock xmlns:dt=""urn:schemas-microsoft-com:datatypes""><Description dt:dt=""string"">E-Prime Primary Realtime Clock</Description><StartTime><Timestamp dt:dt=""int"">0</Timestamp><DateUtc dt:dt=""string"">2014-06-04T17:35:11Z</DateUtc></StartTime><FrequencyChanges><FrequencyChange><Frequency dt:dt=""r8"">2793040000</Frequency><Timestamp dt:dt=""r8"">281790947641761</Timestamp><Current dt:dt=""r8"">0</Current><DateUtc dt:dt=""string"">2014-06-04T17:35:11Z</DateUtc></FrequencyChange></FrequencyChanges></Clock>\n",60.03,1,-1310773526,0,,-999999,5,21893,t,181891,203784,6/4/2014,10:35:11,5:35:11 PM,1,Session1,SessionsList,,,,,,,,,,1,1,1,1,,,,,,,,1,1,1,NonCued3,MiniBlocks2,,,203802,,1,1,b,-999999,8,223792,b,1034,224826,Green,Congruent,b,White,0,,0,4,213780,,0,0,,,,,,,,,,,,,Pictures\white.bmp,9000,10000,Pictures\black.bmp,,,,,,,1,1,1,,,,StimulusPr,Pictures\GreenRight.bmp,NonCuedStim3,Right
POP_2,16064,1,"<?xml version=""1.0""?>\n<Clock xmlns:dt=""urn:schemas-microsoft-com:datatypes""><Description dt:dt=""string"">E-Prime Primary Realtime Clock</Description><StartTime><Timestamp dt:dt=""int"">0</Timestamp><DateUtc dt:dt=""string"">2014-06-04T17:35:11Z</DateUtc></StartTime><FrequencyChanges><FrequencyChange><Frequency dt:dt=""r8"">2793040000</Frequency><Timestamp dt:dt=""r8"">281790947641761</Timestamp><Current dt:dt=""r8"">0</Current><DateUtc dt:dt=""string"">2014-06-04T17:35:11Z</DateUtc></FrequencyChange></FrequencyChanges></Clock>\n",60.03,1,-1310773526,0,,-999999,5,21893,t,181891,203784,6/4/2014,10:35:11,5:35:11 PM,1,Session1,SessionsList,,,,,,,,,,1,1,1,1,,,,,,,,1,1,1,NonCued3,MiniBlocks2,,,203802,,2,1,r,-999999,12,246780,r,764,247544,Red,Incongruent,r,White,0,,0,2,236786,,0,0,,,,,,,,,,,,,Pictures\white.bmp,9000,10000,Pictures\black.bmp,,,,,,,2,1,2,,,,StimulusPr,Pictures\RedRight.bmp,NonCuedStim3,Right
POP_2,16064,1,"<?xml version=""1.0""?>\n<Clock xmlns:dt=""urn:schemas-microsoft-com:datatypes""><Description dt:dt=""string"">E-Prime Primary Realtime Clock</Description><StartTime><Timestamp dt:dt=""int"">0</Timestamp><DateUtc dt:dt=""string"">2014-06-04T17:35:11Z</DateUtc></StartTime><FrequencyChanges><FrequencyChange><Frequency dt:dt=""r8"">2793040000</Frequency><Timestamp dt:dt=""r8"">281790947641761</Timestamp><Current dt:dt=""r8"">0</Current><DateUtc dt:dt=""string"">2014-06-04T17:35:11Z</DateUtc></FrequencyChange></FrequencyChanges></Clock>\n",60.03,1,-1310773526,0,,-999999,5,21893,t,181891,203784,6/4/2014,10:35:11,5:35:11 PM,1,Session1,SessionsList,,,,,,,,,,1,1,1,1,,,,,,,,1,1,1,NonCued3,MiniBlocks2,,,203802,,3,1,r,-999999,5,263788,r,894,264682,Green,Congruent,r,White,0,,0,8,258791,,0,0,,,,,,,,,,,,,Pictures\white.bmp,4000,4000,Pictures\GreenLeft.bmp,,,,,,,3,1,3,,,,StimulusPr,Pictures\black.bmp,NonCuedStim3,Left
POP_2,16064,1,"<?xml version=""1.0""?>\n<Clock xmlns:dt=""urn:schemas-microsoft-com:datatypes""><Description dt:dt=""string"">E-Prime Primary Realtime Clock</Description><StartTime><Timestamp dt:dt=""int"">0</Timestamp><DateUtc dt:dt=""string"">2014-06-04T17:35:11Z</DateUtc></StartTime><FrequencyChanges><FrequencyChange><Frequency dt:dt=""r8"">2793040000</Frequency><Timestamp dt:dt=""r8"">281790947641761</Timestamp><Current dt:dt=""r8"">0</Current><DateUtc dt:dt=""string"">2014-06-04T17:35:11Z</DateUtc></FrequencyChange></FrequencyChanges></Clock>\n",60.03,1,-1310773526,0,,-999999,5,21893,t,181891,203784,6/4/2014,10:35:11,5:35:11 PM,1,Session1,SessionsList,,,,,,,,,,1,1,1,1,,,,,,,,1,1,1,NonCued3,MiniBlocks2,,,203802,,4,1,b,-999999,14,276798,b,721,277519,Red,Incongruent,b,White,0,,0,2,269786,,0,0,,,,,,,,,,,,,Pictures\white.bmp,6000,4000,Pictures\RedLeft.bmp,,,,,,,4,1,4,,,,StimulusPr,Pictures\black.bmp,NonCuedStim3,Left
POP_2,16064,1,"<?xml version=""1.0""?>\n<Clock xmlns:dt=""urn:schemas-microsoft-com:datatypes""><Description dt:dt=""string"">E-Prime Primary Realtime Clock</Description><StartTime><Timestamp dt:dt=""int"">0</Timestamp><DateUtc dt:dt=""string"">2014-06-04T17:35:11Z</DateUtc></StartTime><FrequencyChanges><FrequencyChange><Frequency dt:dt=""r8"">2793040000</Frequency><Timestamp dt:dt=""r8"">281790947641761</Timestamp><Current dt:dt=""r8"">0</Current><DateUtc dt:dt=""string"">2014-06-04T17:35:11Z</DateUtc></FrequencyChange></FrequencyChanges></Clock>\n",60.03,1,-1310773526,0,,-999999,5,21893,t,181891,203784,6/4/2014,10:35:11,5:35:11 PM,1,Session1,SessionsList,,,,,,,,,,1,1,1,1,,,,,,,,1,1,1,NonCued3,MiniBlocks2,,,203802,,5,1,b,-999999,9,286793,b,770,287563,Green,Congruent,b,White,0,,0,11,282795,,0,0,,,,,,,,,,,,,Pictures\white.bmp,3000,2000,Pictures\black.bmp,,,,,,,5,1,5,,,,StimulusPr,Pictures\GreenRight.bmp,NonCuedStim3,Right
POP_2,16064,1,"<?xml version=""1.0""?>\n<Clock xmlns:dt=""urn:schemas-microsoft-com:datatypes""><Description dt:dt=""string"">E-Prime Primary Realtime Clock</Description><StartTime><Timestamp dt:dt=""int"">0</Timestamp><DateUtc dt:dt=""string"">2014-06-04T17:35:11Z</DateUtc></StartTime><FrequencyChanges><FrequencyChange><Frequency dt:dt=""r8"">2793040000</Frequency><Timestamp dt:dt=""r8"">281790947641761</Timestamp><Current dt:dt=""r8"">0</Current><DateUtc dt:dt=""string"">2014-06-04T17:35:11Z</DateUtc></FrequencyChange></FrequencyChanges></Clock>\n",60.03,1,-1310773526,0,,-999999,5,21893,t,181891,203784,6/4/2014,10:35:11,5:35:11 PM,1,Session1,SessionsList,,,,,,,,,,1,1,1,1,,,,,,,,1,1,1,NonCued3,MiniBlocks2,,,203802,,6,1,r,-999999,6,294789,r,699,295488,Green,Congruent,r,White,0,,0,3,290775,,0,0,,,,,,,,,,,,,Pictures\white.bmp,3000,2000,Pictures\GreenLeft.bmp,,,,,,,6,1,6,,,,StimulusPr,Pictures\black.bmp,NonCuedStim3,Left
POP_2,16064,1,"<?xml version=""1.0""?>\n<Clock xmlns:dt=""urn:schemas-microsoft-com:datatypes""><Description dt:dt=""string"">E-Prime Primary Realtime Clock</Description><StartTime><Timestamp dt:dt=""int"">0</Timestamp><DateUtc dt:dt=""string"">2014-06-04T17:35:11Z</DateUtc></StartTime><FrequencyChanges><FrequencyChange><Frequency dt:dt=""r8"">2793040000</Frequency><Timestamp dt:dt=""r8"">281790947641761</Timestamp><Current dt:dt=""r8"">0</Current><DateUtc dt:dt=""string"">2014-06-04T17:35:11Z</DateUtc></FrequencyChange></FrequencyChanges></Clock>\n",60.03,1,-1310773526,0,,-999999,5,21893,t,181891,203784,6/4/2014,10:35:11,5:35:11 PM,1,Session1,SessionsList,,,,,,,,,,1,1,1,1,,,,,,,,1,1,1,NonCued3,MiniBlocks2,,,203802,,7,1,b,-999999,18,305801,b,681,306482,Green,Congruent,b,White,0,,0,4,298787,,0,0,,,,,,,,,,,,,Pictures\white.bmp,6000,16000,Pictures\black.bmp,,,,,,,7,1,7,,,,StimulusPr,Pictures\GreenRight.bmp,NonCuedStim3,Right
POP_2,16064,1,"<?xml version=""1.0""?>\n<Clock xmlns:dt=""urn:schemas-microsoft-com:datatypes""><Description dt:dt=""string"">E-Prime Primary Realtime Clock</Description><StartTime><Timestamp dt:dt=""int"">0</Timestamp><DateUtc dt:dt=""string"">2014-06-04T17:35:11Z</DateUtc></StartTime><FrequencyChanges><FrequencyChange><Frequency dt:dt=""r8"">2793040000</Frequency><Timestamp dt:dt=""r8"">281790947641761</Timestamp><Current dt:dt=""r8"">0</Current><DateUtc dt:dt=""string"">2014-06-04T17:35:11Z</DateUtc></FrequencyChange></FrequencyChanges></Clock>\n",60.03,1,-1310773526,0,,-999999,5,21893,t,181891,203784,6/4/2014,10:35:11,5:35:11 PM,1,Session1,SessionsList,,,,,,,,,,1,1,1,1,,,,,,,,1,1,1,NonCued3,MiniBlocks2,,,203802,,8,1,r,-999999,7,327789,r,768,328557,Red,Incongruent,r,White,0,,0,8,323791,,0,0,,,,,,,,,,,,,Pictures\white.bmp,3000,2000,Pictures\black.bmp,,,,,,,8,1,8,,,,StimulusPr,Pictures\RedRight.bmp,NonCuedStim3,Right
POP_2,16064,1,"<?xml version=""1.0""?>\n<Clock xmlns:dt=""urn:schemas-microsoft-com:datatypes""><Description dt:dt=""string"">E-Prime Primary Realtime Clock</Description><StartTime><Timestamp dt:dt=""int"">0</Timestamp><DateUtc dt:dt=""string"">2014-06-04T17:35:11Z</DateUtc></StartTime><FrequencyChanges><FrequencyChange><Frequency dt:dt=""r8"">2793040000</Frequency><Timestamp dt:dt=""r8"">281790947641761</Timestamp><Current dt:dt=""r8"">0</Current><DateUtc dt:dt=""string"">2014-06-04T17:35:11Z</DateUtc></FrequencyChange></FrequencyChanges></Clock>\n",60.03,1,-1310773526,0,,-999999,5,21893,t,181891,203784,6/4/2014,10:35:11,5:35:11 PM,1,Session1,SessionsList,,,,,,,,,,1,1,1,1,,,,,,,,1,1,1,NonCued3,MiniBlocks2,,,203802,,9,1,r,-999999,16,341799,r,846,342645,Green,Congruent,r,White,0,,0,4,331787,,0,0,,,,,,,,,,,,,Pictures\white.bmp,9000,10000,Pictures\GreenLeft.bmp,,,,,,,9,1,9,,,,StimulusPr,Pictures\black.bmp,NonCuedStim3,Left
POP_2,16064,1,"<?xml version=""1.0""?>\n<Clock xmlns:dt=""urn:schemas-microsoft-com:datatypes""><Description dt:dt=""string"">E-Prime Primary Realtime Clock</Description><StartTime><Timestamp dt:dt=""int"">0</Timestamp><DateUtc dt:dt=""string"">2014-06-04T17:35:11Z</DateUtc></StartTime><FrequencyChanges><FrequencyChange><Frequency dt:dt=""r8"">2793040000</Frequency><Timestamp dt:dt=""r8"">281790947641761</Timestamp><Current dt:dt=""r8"">0</Current><DateUtc dt:dt=""string"">2014-06-04T17:35:11Z</DateUtc></FrequencyChange></FrequencyChanges></Clock>\n",60.03,1,-1310773526,0,,-999999,5,21893,t,181891,203784,6/4/2014,10:35:11,5:35:11 PM,1,Session1,SessionsList,,,,,,,,,,1,1,1,1,,,,,,,,1,1,1,NonCued3,MiniBlocks2,,,203802,,10,1,r,-999999,18,360790,r,665,361455,Green,Congruent,r,White,0,,0,4,353776,,0,0,,,,,,,,,,,,,Pictures\white.bmp,6000,4000,Pictures\GreenLeft.bmp,,,,,,,10,1,10,,,,StimulusPr,Pictures\black.bmp,NonCuedStim3,Left
POP_2,16064,1,"<?xml version=""1.0""?>\n<Clock xmlns:dt=""urn:schemas-microsoft-com:datatypes""><Description dt:dt=""string"">E-Prime Primary Realtime Clock</Description><StartTime><Timestamp dt:dt=""int"">0</Timestamp><DateUtc dt:dt=""string"">2014-06-04T17:35:11Z</DateUtc></StartTime><FrequencyChanges><FrequencyChange><Frequency dt:dt=""r8"">2793040000</Frequency><Timestamp dt:dt=""r8"">281790947641761</Timestamp><Current dt:dt=""r8"">0</Current><DateUtc dt:dt=""string"">2014-06-04T17:35:11Z</DateUtc></FrequencyChange></FrequencyChanges></Clock>\n",60.03,1,-1310773526,0,,-999999,5,21893,t,181891,203784,6/4/2014,10:35:11,5:35:11 PM,1,Session1,SessionsList,,,,,,,,,,1,1,1,2,,,365471,,,,,2,1,2,Cued3,MiniBlocks2,,,,,1,1,b,-999999,14,379797,b,703,380500,White,Congruent,b,Green,0,,0,16,375799,,0,0,,,,,,,1,1,1,,,,Pictures\green.bmp,3000,2000,Pictures\black.bmp,,,,,,,,,,,,,StimulusPr,Pictures\right.bmp,CuedStim3,Right
POP_2,16064,1,"<?xml version=""1.0""?>\n<Clock xmlns:dt=""urn:schemas-microsoft-com:datatypes""><Description dt:dt=""string"">E-Prime Primary Realtime Clock</Description><StartTime><Timestamp dt:dt=""int"">0</Timestamp><DateUtc dt:dt=""string"">2014-06-04T17:35:11Z</DateUtc></StartTime><FrequencyChanges><FrequencyChange><Frequency dt:dt=""r8"">2793040000</Frequency><Timestamp dt:dt=""r8"">281790947641761</Timestamp><Current dt:dt=""r8"">0</Current><DateUtc dt:dt=""string"">2014-06-04T17:35:11Z</DateUtc></FrequencyChange></FrequencyChanges></Clock>\n",60.03,1,-1310773526,0,,-999999,5,21893,t,181891,203784,6/4/2014,10:35:11,5:35:11 PM,1,Session1,SessionsList,,,,,,,,,,1,1,1,2,,,365471,,,,,2,1,2,Cued3,MiniBlocks2,,,,,2,1,b,-999999,10,387793,b,688,388481,White,Congruent,b,Green,0,,0,13,383778,,0,0,,,,,,,2,1,2,,,,Pictures\green.bmp,3000,10000,Pictures\black.bmp,,,,,,,,,,,,,StimulusPr,Pictures\right.bmp,CuedStim3,Right
POP_2,16064,1,"<?xml version=""1.0""?>\n<Clock xmlns:dt=""urn:schemas-microsoft-com:datatypes""><Description dt:dt=""string"">E-Prime Primary Realtime Clock</Description><StartTime><Timestamp dt:dt=""int"">0</Timestamp><DateUtc dt:dt=""string"">2014-06-04T17:35:11Z</DateUtc></StartTime><FrequencyChanges><FrequencyChange><Frequency dt:dt=""r8"">2793040000</Frequency><Timestamp dt:dt=""r8"">281790947641761</Timestamp><Current dt:dt=""r8"">0</Current><DateUtc dt:dt=""string"">2014-06-04T17:35:11Z</DateUtc></FrequencyChange></FrequencyChanges></Clock>\n",60.03,1,-1310773526,0,,-999999,5,21893,t,181891,203784,6/4/2014,10:35:11,5:35:11 PM,1,Session1,SessionsList,,,,,,,,,,1,1,1,2,,,365471,,,,,2,1,2,Cued3,MiniBlocks2,,,,,3,1,r,-999999,13,409782,r,646,410428,White,Congruent,r,Green,0,,0,4,399787,,0,0,,,,,,,3,1,3,,,,Pictures\green.bmp,9000,2000,Pictures\left.bmp,,,,,,,,,,,,,StimulusPr,Pictures\black.bmp,CuedStim3,Left
POP_2,16064,1,"<?xml version=""1.0""?>\n<Clock xmlns:dt=""urn:schemas-microsoft-com:datatypes""><Description dt:dt=""string"">E-Prime Primary Realtime Clock</Description><StartTime><Timestamp dt:dt=""int"">0</Timestamp><DateUtc dt:dt=""string"">2014-06-04T17:35:11Z</DateUtc></StartTime><FrequencyChanges><FrequencyChange><Frequency dt:dt=""r8"">2793040000</Frequency><Timestamp dt:dt=""r8"">281790947641761</Timestamp><Current dt:dt=""r8"">0</Current><DateUtc dt:dt=""string"">2014-06-04T17:35:11Z</DateUtc></FrequencyChange></FrequencyChanges></Clock>\n",60.03,1,-1310773526,0,,-999999,5,21893,t,181891,203784,6/4/2014,10:35:11,5:35:11 PM,1,Session1,SessionsList,,,,,,,,,,1,1,1,2,,,365471,,,,,2,1,2,Cued3,MiniBlocks2,,,,,4,1,r,-999999,11,418794,r,654,419448,White,Congruent,r,Green,0,,0,4,413780,,0,0,,,,,,,4,1,4,,,,Pictures\green.bmp,4000,16000,Pictures\left.bmp,,,,,,,,,,,,,StimulusPr,Pictures\black.bmp,CuedStim3,Left
POP_2,16064,1,"<?xml version=""1.0""?>\n<Clock xmlns:dt=""urn:schemas-microsoft-com:datatypes""><Description dt:dt=""string"">E-Prime Primary Realtime Clock</Description><StartTime><Timestamp dt:dt=""int"">0</Timestamp><DateUtc dt:dt=""string"">2014-06-04T17:35:11Z</DateUtc></StartTime><FrequencyChanges><FrequencyChange><Frequency dt:dt=""r8"">2793040000</Frequency><Timestamp dt:dt=""r8"">281790947641761</Timestamp><Current dt:dt=""r8"">0</Current><DateUtc dt:dt=""string"">2014-06-04T17:35:11Z</DateUtc></FrequencyChange></FrequencyChanges></Clock>\n",60.03,1,-1310773526,0,,-999999,5,21893,t,181891,203784,6/4/2014,10:35:11,5:35:11 PM,1,Session1,SessionsList,,,,,,,,,,1,1,1,2,,,365471,,,,,2,1,2,Cued3,MiniBlocks2,,,,,5,1,r,-999999,16,440799,r,655,441454,White,Incongruent,r,Red,0,,0,14,436785,,0,0,,,,,,,5,1,5,,,,Pictures\red.bmp,3000,4000,Pictures\black.bmp,,,,,,,,,,,,,StimulusPr,Pictures\right.bmp,CuedStim3,Right
POP_2,16064,1,"<?xml version=""1.0""?>\n<Clock xmlns:dt=""urn:schemas-microsoft-com:datatypes""><Description dt:dt=""string"">E-Prime Primary Realtime Clock</Description><StartTime><Timestamp dt:dt=""int"">0</Timestamp><DateUtc dt:dt=""string"">2014-06-04T17:35:11Z</DateUtc></StartTime><FrequencyChanges><FrequencyChange><Frequency dt:dt=""r8"">2793040000</Frequency><Timestamp dt:dt=""r8"">281790947641761</Timestamp><Current dt:dt=""r8"">0</Current><DateUtc dt:dt=""string"">2014-06-04T17:35:11Z</DateUtc></FrequencyChange></FrequencyChanges></Clock>\n",60.03,1,-1310773526,0,,-999999,5,21893,t,181891,203784,6/4/2014,10:35:11,5:35:11 PM,1,Session1,SessionsList,,,,,,,,,,1,1,1,2,,,365471,,,,,2,1,2,Cued3,MiniBlocks2,,,,,6,1,b,-999999,5,453776,b,780,454556,White,Congruent,b,Green,0,,0,9,446780,,0,0,,,,,,,6,1,6,,,,Pictures\green.bmp,6000,4000,Pictures\black.bmp,,,,,,,,,,,,,StimulusPr,Pictures\right.bmp,CuedStim3,Right
POP_2,16064,1,"<?xml version=""1.0""?>\n<Clock xmlns:dt=""urn:schemas-microsoft-com:datatypes""><Description dt:dt=""string"">E-Prime Primary Realtime Clock</Description><StartTime><Timestamp dt:dt=""int"">0</Timestamp><DateUtc dt:dt=""string"">2014-06-04T17:35:11Z</DateUtc></StartTime><FrequencyChanges><FrequencyChange><Frequency dt:dt=""r8"">2793040000</Frequency><Timestamp dt:dt=""r8"">281790947641761</Timestamp><Current dt:dt=""r8"">0</Current><DateUtc dt:dt=""string"">2014-06-04T17:35:11Z</DateUtc></FrequencyChange></FrequencyChanges></Clock>\n",60.03,1,-1310773526,0,,-999999,5,21893,t,181891,203784,6/4/2014,10:35:11,5:35:11 PM,1,Session1,SessionsList,,,,,,,,,,1,1,1,2,,,365471,,,,,2,1,2,Cued3,MiniBlocks2,,,,,7,1,r,-999999,4,464787,r,657,465444,White,Congruent,r,Green,0,,0,7,459790,,0,0,,,,,,,7,1,7,,,,Pictures\green.bmp,4000,16000,Pictures\left.bmp,,,,,,,,,,,,,StimulusPr,Pictures\black.bmp,CuedStim3,Left
POP_2,16064,1,"<?xml version=""1.0""?>\n<Clock xmlns:dt=""urn:schemas-microsoft-com:datatypes""><Description dt:dt=""string"">E-Prime Primary Realtime Clock</Description><StartTime><Timestamp dt:dt=""int"">0</Timestamp><DateUtc dt:dt=""string"">2014-06-04T17:35:11Z</DateUtc></StartTime><FrequencyChanges><FrequencyChange><Frequency dt:dt=""r8"">2793040000</Frequency><Timestamp dt:dt=""r8"">281790947641761</Timestamp><Current dt:dt=""r8"">0</Current><DateUtc dt:dt=""string"">2014-06-04T17:35:11Z</DateUtc></FrequencyChange></FrequencyChanges></Clock>\n",60.03,1,-1310773526,0,,-999999,5,21893,t,181891,203784,6/4/2014,10:35:11,5:35:11 PM,1,Session1,SessionsList,,,,,,,,,,1,1,1,2,,,365471,,,,,2,1,2,Cued3,MiniBlocks2,,,,,8,1,b,-999999,10,486793,b,886,487679,White,Incongruent,b,Red,0,,0,12,482795,,0,0,,,,,,,8,1,8,,,,Pictures\red.bmp,3000,2000,Pictures\left.bmp,,,,,,,,,,,,,StimulusPr,Pictures\black.bmp,CuedStim3,Left
POP_2,16064,1,"<?xml version=""1.0""?>\n<Clock xmlns:dt=""urn:schemas-microsoft-com:datatypes""><Description dt:dt=""string"">E-Prime Primary Realtime Clock</Description><StartTime><Timestamp dt:dt=""int"">0</Timestamp><DateUtc dt:dt=""string"">2014-06-04T17:35:11Z</DateUtc></StartTime><FrequencyChanges><FrequencyChange><Frequency dt:dt=""r8"">2793040000</Frequency><Timestamp dt:dt=""r8"">281790947641761</Timestamp><Current dt:dt=""r8"">0</Current><DateUtc dt:dt=""string"">2014-06-04T17:35:11Z</DateUtc></FrequencyChange></FrequencyChanges></Clock>\n",60.03,1,-1310773526,0,,-999999,5,21893,t,181891,203784,6/4/2014,10:35:11,5:35:11 PM,1,Session1,SessionsList,,,,,,,,,,1,1,1,2,,,365471,,,,,2,1,2,Cued3,MiniBlocks2,,,,,9,1,r,-999999,7,494789,r,678,495467,White,Congruent,r,Green,0,,0,9,490791,,0,0,,,,,,,9,1,9,,,,Pictures\green.bmp,3000,2000,Pictures\left.bmp,,,,,,,,,,,,,StimulusPr,Pictures\black.bmp,CuedStim3,Left
POP_2,16064,1,"<?xml version=""1.0""?>\n<Clock xmlns:dt=""urn:schemas-microsoft-com:datatypes""><Description dt:dt=""string"">E-Prime Primary Realtime Clock</Description><StartTime><Timestamp dt:dt=""int"">0</Timestamp><DateUtc dt:dt=""string"">2014-06-04T17:35:11Z</DateUtc></StartTime><FrequencyChanges><FrequencyChange><Frequency dt:dt=""r8"">2793040000</Frequency><Timestamp dt:dt=""r8"">281790947641761</Timestamp><Current dt:dt=""r8"">0</Current><DateUtc dt:dt=""string"">2014-06-04T17:35:11Z</DateUtc></FrequencyChange></FrequencyChanges></Clock>\n",60.03,1,-1310773526,0,,-999999,5,21893,t,181891,203784,6/4/2014,10:35:11,5:35:11 PM,1,Session1,SessionsList,,,,,,,,,,1,1,1,2,,,365471,,,,,2,1,2,Cued3,MiniBlocks2,,,,,10,1,b,-999999,11,508782,b,673,509455,White,Congruent,b,Green,0,,0,3,498770,,0,0,,,,,,,10,1,10,,,,Pictures\green.bmp,9000,10000,Pictures\black.bmp,,,,,,,,,,,,,StimulusPr,Pictures\right.bmp,CuedStim3,Right
POP_2,16064,1,"<?xml version=""1.0""?>\n<Clock xmlns:dt=""urn:schemas-microsoft-com:datatypes""><Description dt:dt=""string"">E-Prime Primary Realtime Clock</Description><StartTime><Timestamp dt:dt=""int"">0</Timestamp><DateUtc dt:dt=""string"">2014-06-04T17:35:11Z</DateUtc></StartTime><FrequencyChanges><FrequencyChange><Frequency dt:dt=""r8"">2793040000</Frequency><Timestamp dt:dt=""r8"">281790947641761</Timestamp><Current dt:dt=""r8"">0</Current><DateUtc dt:dt=""string"">2014-06-04T17:35:11Z</DateUtc></FrequencyChange></FrequencyChanges></Clock>\n",60.03,1,-1310773526,0,,-999999,5,21893,t,181891,203784,6/4/2014,10:35:11,5:35:11 PM,1,Session1,SessionsList,,,,,,,,,,1,1,1,3,,,,519476,,,,3,1,3,Cued4,MiniBlocks2,,,,,1,1,b,-999999,18,536801,b,781,537582,White,Congruent,b,Green,0,,0,6,529788,,0,0,,,,,,,,,,1,1,1,Pictures\green.bmp,6000,2000,Pictures\black.bmp,,,,,,,,,,,,,StimulusPr,Pictures\right.bmp,CuedStim4,Right
POP_2,16064,1,"<?xml version=""1.0""?>\n<Clock xmlns:dt=""urn:schemas-microsoft-com:datatypes""><Description dt:dt=""string"">E-Prime Primary Realtime Clock</Description><StartTime><Timestamp dt:dt=""int"">0</Timestamp><DateUtc dt:dt=""string"">2014-06-04T17:35:11Z</DateUtc></StartTime><FrequencyChanges><FrequencyChange><Frequency dt:dt=""r8"">2793040000</Frequency><Timestamp dt:dt=""r8"">281790947641761</Timestamp><Current dt:dt=""r8"">0</Current><DateUtc dt:dt=""string"">2014-06-04T17:35:11Z</DateUtc></FrequencyChange></FrequencyChanges></Clock>\n",60.03,1,-1310773526,0,,-999999,5,21893,t,181891,203784,6/4/2014,10:35:11,5:35:11 PM,1,Session1,SessionsList,,,,,,,,,,1,1,1,3,,,,519476,,,,3,1,3,Cued4,MiniBlocks2,,,,,2,1,r,-999999,12,550777,r,667,551444,White,Incongruent,r,Red,0,,0,11,540782,,0,0,,,,,,,,,,2,1,2,Pictures\red.bmp,9000,2000,Pictures\black.bmp,,,,,,,,,,,,,StimulusPr,Pictures\right.bmp,CuedStim4,Right
POP_2,16064,1,"<?xml version=""1.0""?>\n<Clock xmlns:dt=""urn:schemas-microsoft-com:datatypes""><Description dt:dt=""string"">E-Prime Primary Realtime Clock</Description><StartTime><Timestamp dt:dt=""int"">0</Timestamp><DateUtc dt:dt=""string"">2014-06-04T17:35:11Z</DateUtc></StartTime><FrequencyChanges><FrequencyChange><Frequency dt:dt=""r8"">2793040000</Frequency><Timestamp dt:dt=""r8"">281790947641761</Timestamp><Current dt:dt=""r8"">0</Current><DateUtc dt:dt=""string"">2014-06-04T17:35:11Z</DateUtc></FrequencyChange></FrequencyChanges></Clock>\n",60.03,1,-1310773526,0,,-999999,5,21893,t,181891,203784,6/4/2014,10:35:11,5:35:11 PM,1,Session1,SessionsList,,,,,,,,,,1,1,1,3,,,,519476,,,,3,1,3,Cued4,MiniBlocks2,,,,,3,1,b,-999999,7,558790,b,716,559506,White,Congruent,b,Green,0,,0,5,554775,,0,0,,,,,,,,,,3,1,3,Pictures\green.bmp,3000,4000,Pictures\black.bmp,,,,,,,,,,,,,StimulusPr,Pictures\right.bmp,CuedStim4,Right
POP_2,16064,1,"<?xml version=""1.0""?>\n<Clock xmlns:dt=""urn:schemas-microsoft-com:datatypes""><Description dt:dt=""string"">E-Prime Primary Realtime Clock</Description><StartTime><Timestamp dt:dt=""int"">0</Timestamp><DateUtc dt:dt=""string"">2014-06-04T17:35:11Z</DateUtc></StartTime><FrequencyChanges><FrequencyChange><Frequency dt:dt=""r8"">2793040000</Frequency><Timestamp dt:dt=""r8"">281790947641761</Timestamp><Current dt:dt=""r8"">0</Current><DateUtc dt:dt=""string"">2014-06-04T17:35:11Z</DateUtc></FrequencyChange></FrequencyChanges></Clock>\n",60.03,1,-1310773526,0,,-999999,5,21893,t,181891,203784,6/4/2014,10:35:11,5:35:11 PM,1,Session1,SessionsList,,,,,,,,,,1,1,1,3,,,,519476,,,,3,1,3,Cued4,MiniBlocks2,,,,,4,1,r,-999999,18,568785,r,786,569571,White,Congruent,r,Green,0,,0,16,564787,,0,0,,,,,,,,,,4,1,4,Pictures\green.bmp,3000,4000,Pictures\left.bmp,,,,,,,,,,,,,StimulusPr,Pictures\black.bmp,CuedStim4,Left
POP_2,16064,1,"<?xml version=""1.0""?>\n<Clock xmlns:dt=""urn:schemas-microsoft-com:datatypes""><Description dt:dt=""string"">E-Prime Primary Realtime Clock</Description><StartTime><Timestamp dt:dt=""int"">0</Timestamp><DateUtc dt:dt=""string"">2014-06-04T17:35:11Z</DateUtc></StartTime><FrequencyChanges><FrequencyChange><Frequency dt:dt=""r8"">2793040000</Frequency><Timestamp dt:dt=""r8"">281790947641761</Timestamp><Current dt:dt=""r8"">0</Current><DateUtc dt:dt=""string"">2014-06-04T17:35:11Z</DateUtc></FrequencyChange></FrequencyChanges></Clock>\n",60.03,1,-1310773526,0,,-999999,5,21893,t,181891,203784,6/4/2014,10:35:11,5:35:11 PM,1,Session1,SessionsList,,,,,,,,,,1,1,1,3,,,,519476,,,,3,1,3,Cued4,MiniBlocks2,,,,,5,1,b,-999999,14,579796,b,750,580546,White,Incongruent,b,Red,0,,0,11,574782,,0,0,,,,,,,,,,5,1,5,Pictures\red.bmp,4000,16000,Pictures\left.bmp,,,,,,,,,,,,,StimulusPr,Pictures\black.bmp,CuedStim4,Left
POP_2,16064,1,"<?xml version=""1.0""?>\n<Clock xmlns:dt=""urn:schemas-microsoft-com:datatypes""><Description dt:dt=""string"">E-Prime Primary Realtime Clock</Description><StartTime><Timestamp dt:dt=""int"">0</Timestamp><DateUtc dt:dt=""string"">2014-06-04T17:35:11Z</DateUtc></StartTime><FrequencyChanges><FrequencyChange><Frequency dt:dt=""r8"">2793040000</Frequency><Timestamp dt:dt=""r8"">281790947641761</Timestamp><Current dt:dt=""r8"">0</Current><DateUtc dt:dt=""string"">2014-06-04T17:35:11Z</DateUtc></FrequencyChange></FrequencyChanges></Clock>\n",60.03,1,-1310773526,0,,-999999,5,21893,t,181891,203784,6/4/2014,10:35:11,5:35:11 PM,1,Session1,SessionsList,,,,,,,,,,1,1,1,3,,,,519476,,,,3,1,3,Cued4,MiniBlocks2,,,,,6,1,b,-999999,3,601785,b,595,602380,White,Congruent,b,Green,0,,0,16,597787,,0,0,,,,,,,,,,6,1,6,Pictures\green.bmp,3000,2000,Pictures\black.bmp,,,,,,,,,,,,,StimulusPr,Pictures\right.bmp,CuedStim4,Right
POP_2,16064,1,"<?xml version=""1.0""?>\n<Clock xmlns:dt=""urn:schemas-microsoft-com:datatypes""><Description dt:dt=""string"">E-Prime Primary Realtime Clock</Description><StartTime><Timestamp dt:dt=""int"">0</Timestamp><DateUtc dt:dt=""string"">2014-06-04T17:35:11Z</DateUtc></StartTime><FrequencyChanges><FrequencyChange><Frequency dt:dt=""r8"">2793040000</Frequency><Timestamp dt:dt=""r8"">281790947641761</Timestamp><Current dt:dt=""r8"">0</Current><DateUtc dt:dt=""string"">2014-06-04T17:35:11Z</DateUtc></FrequencyChange></FrequencyChanges></Clock>\n",60.03,1,-1310773526,0,,-999999,5,21893,t,181891,203784,6/4/2014,10:35:11,5:35:11 PM,1,Session1,SessionsList,,,,,,,,,,1,1,1,3,,,,519476,,,,3,1,3,Cued4,MiniBlocks2,,,,,7,1,b,-999999,7,615778,b,549,616327,White,Congruent,b,Green,0,,0,12,605783,,0,0,,,,,,,,,,7,1,7,Pictures\green.bmp,9000,10000,Pictures\black.bmp,,,,,,,,,,,,,StimulusPr,Pictures\right.bmp,CuedStim4,Right
POP_2,16064,1,"<?xml version=""1.0""?>\n<Clock xmlns:dt=""urn:schemas-microsoft-com:datatypes""><Description dt:dt=""string"">E-Prime Primary Realtime Clock</Description><StartTime><Timestamp dt:dt=""int"">0</Timestamp><DateUtc dt:dt=""string"">2014-06-04T17:35:11Z</DateUtc></StartTime><FrequencyChanges><FrequencyChange><Frequency dt:dt=""r8"">2793040000</Frequency><Timestamp dt:dt=""r8"">281790947641761</Timestamp><Current dt:dt=""r8"">0</Current><DateUtc dt:dt=""string"">2014-06-04T17:35:11Z</DateUtc></FrequencyChange></FrequencyChanges></Clock>\n",60.03,1,-1310773526,0,,-999999,5,21893,t,181891,203784,6/4/2014,10:35:11,5:35:11 PM,1,Session1,SessionsList,,,,,,,,,,1,1,1,3,,,,519476,,,,3,1,3,Cued4,MiniBlocks2,,,,,8,1,b,-999999,2,634785,b,749,635534,White,Incongruent,b,Red,0,,0,6,627789,,0,0,,,,,,,,,,8,1,8,Pictures\red.bmp,6000,10000,Pictures\left.bmp,,,,,,,,,,,,,StimulusPr,Pictures\black.bmp,CuedStim4,Left
POP_2,16064,1,"<?xml version=""1.0""?>\n<Clock xmlns:dt=""urn:schemas-microsoft-com:datatypes""><Description dt:dt=""string"">E-Prime Primary Realtime Clock</Description><StartTime><Timestamp dt:dt=""int"">0</Timestamp><DateUtc dt:dt=""string"">2014-06-04T17:35:11Z</DateUtc></StartTime><FrequencyChanges><FrequencyChange><Frequency dt:dt=""r8"">2793040000</Frequency><Timestamp dt:dt=""r8"">281790947641761</Timestamp><Current dt:dt=""r8"">0</Current><DateUtc dt:dt=""string"">2014-06-04T17:35:11Z</DateUtc></FrequencyChange></FrequencyChanges></Clock>\n",60.03,1,-1310773526,0,,-999999,5,21893,t,181891,203784,6/4/2014,10:35:11,5:35:11 PM,1,Session1,SessionsList,,,,,,,,,,1,1,1,3,,,,519476,,,,3,1,3,Cued4,MiniBlocks2,,,,,9,1,r,-999999,6,653776,r,739,654515,White,Congruent,r,Green,0,,0,9,646779,,0,0,,,,,,,,,,9,1,9,Pictures\green.bmp,6000,16000,Pictures\left.bmp,,,,,,,,,,,,,StimulusPr,Pictures\black.bmp,CuedStim4,Left
POP_2,16064,1,"<?xml version=""1.0""?>\n<Clock xmlns:dt=""urn:schemas-microsoft-com:datatypes""><Description dt:dt=""string"">E-Prime Primary Realtime Clock</Description><StartTime><Timestamp dt:dt=""int"">0</Timestamp><DateUtc dt:dt=""string"">2014-06-04T17:35:11Z</DateUtc></StartTime><FrequencyChanges><FrequencyChange><Frequency dt:dt=""r8"">2793040000</Frequency><Timestamp dt:dt=""r8"">281790947641761</Timestamp><Current dt:dt=""r8"">0</Current><DateUtc dt:dt=""string"">2014-06-04T17:35:11Z</DateUtc></FrequencyChange></FrequencyChanges></Clock>\n",60.03,1,-1310773526,0,,-999999,5,21893,t,181891,203784,6/4/2014,10:35:11,5:35:11 PM,1,Session1,SessionsList,,,,,,,,,,1,1,1,3,,,,519476,,,,3,1,3,Cued4,MiniBlocks2,,,,,10,1,r,-999999,11,676781,r,645,677426,White,Congruent,r,Green,0,,0,11,671783,,0,0,,,,,,,,,,10,1,10,Pictures\green.bmp,4000,2000,Pictures\left.bmp,,,,,,,,,,,,,StimulusPr,Pictures\black.bmp,CuedStim4,Left
POP_2,16064,1,"<?xml version=""1.0""?>\n<Clock xmlns:dt=""urn:schemas-microsoft-com:datatypes""><Description dt:dt=""string"">E-Prime Primary Realtime Clock</Description><StartTime><Timestamp dt:dt=""int"">0</Timestamp><DateUtc dt:dt=""string"">2014-06-04T17:35:11Z</DateUtc></StartTime><FrequencyChanges><FrequencyChange><Frequency dt:dt=""r8"">2793040000</Frequency><Timestamp dt:dt=""r8"">281790947641761</Timestamp><Current dt:dt=""r8"">0</Current><DateUtc dt:dt=""string"">2014-06-04T17:35:11Z</DateUtc></FrequencyChange></FrequencyChanges></Clock>\n",60.03,1,-1310773526,0,,-999999,5,21893,t,181891,203784,6/4/2014,10:35:11,5:35:11 PM,1,Session1,SessionsList,,,,,,,,,,1,1,1,4,,,,,,,,4,1,4,NonCued4,MiniBlocks2,,,,679446,1,1,r,-999999,19,693789,r,683,694472,Green,Congruent,r,White,0,,0,2,689774,,0,0,,,,,,,,,,,,,Pictures\white.bmp,3000,2000,Pictures\GreenLeft.bmp,,,,,,,,,,1,1,1,StimulusPr,Pictures\black.bmp,NonCuedStim4,Left
POP_2,16064,1,"<?xml version=""1.0""?>\n<Clock xmlns:dt=""urn:schemas-microsoft-com:datatypes""><Description dt:dt=""string"">E-Prime Primary Realtime Clock</Description><StartTime><Timestamp dt:dt=""int"">0</Timestamp><DateUtc dt:dt=""string"">2014-06-04T17:35:11Z</DateUtc></StartTime><FrequencyChanges><FrequencyChange><Frequency dt:dt=""r8"">2793040000</Frequency><Timestamp dt:dt=""r8"">281790947641761</Timestamp><Current dt:dt=""r8"">0</Current><DateUtc dt:dt=""string"">2014-06-04T17:35:11Z</DateUtc></FrequencyChange></FrequencyChanges></Clock>\n",60.03,1,-1310773526,0,,-999999,5,21893,t,181891,203784,6/4/2014,10:35:11,5:35:11 PM,1,Session1,SessionsList,,,,,,,,,,1,1,1,4,,,,,,,,4,1,4,NonCued4,MiniBlocks2,,,,679446,2,1,r,-999999,18,702801,r,661,703462,Green,Congruent,r,White,0,,0,5,697787,,0,0,,,,,,,,,,,,,Pictures\white.bmp,4000,2000,Pictures\GreenLeft.bmp,,,,,,,,,,2,1,2,StimulusPr,Pictures\black.bmp,NonCuedStim4,Left
POP_2,16064,1,"<?xml version=""1.0""?>\n<Clock xmlns:dt=""urn:schemas-microsoft-com:datatypes""><Description dt:dt=""string"">E-Prime Primary Realtime Clock</Description><StartTime><Timestamp dt:dt=""int"">0</Timestamp><DateUtc dt:dt=""string"">2014-06-04T17:35:11Z</DateUtc></StartTime><FrequencyChanges><FrequencyChange><Frequency dt:dt=""r8"">2793040000</Frequency><Timestamp dt:dt=""r8"">281790947641761</Timestamp><Current dt:dt=""r8"">0</Current><DateUtc dt:dt=""string"">2014-06-04T17:35:11Z</DateUtc></FrequencyChange></FrequencyChanges></Clock>\n",60.03,1,-1310773526,0,,-999999,5,21893,t,181891,203784,6/4/2014,10:35:11,5:35:11 PM,1,Session1,SessionsList,,,,,,,,,,1,1,1,4,,,,,,,,4,1,4,NonCued4,MiniBlocks2,,,,679446,3,1,r,-999999,13,711796,r,657,712453,Red,Incongruent,r,White,0,,0,16,706799,,0,0,,,,,,,,,,,,,Pictures\white.bmp,4000,2000,Pictures\black.bmp,,,,,,,,,,3,1,3,StimulusPr,Pictures\RedRight.bmp,NonCuedStim4,Right
POP_2,16064,1,"<?xml version=""1.0""?>\n<Clock xmlns:dt=""urn:schemas-microsoft-com:datatypes""><Description dt:dt=""string"">E-Prime Primary Realtime Clock</Description><StartTime><Timestamp dt:dt=""int"">0</Timestamp><DateUtc dt:dt=""string"">2014-06-04T17:35:11Z</DateUtc></StartTime><FrequencyChanges><FrequencyChange><Frequency dt:dt=""r8"">2793040000</Frequency><Timestamp dt:dt=""r8"">281790947641761</Timestamp><Current dt:dt=""r8"">0</Current><DateUtc dt:dt=""string"">2014-06-04T17:35:11Z</DateUtc></FrequencyChange></FrequencyChanges></Clock>\n",60.03,1,-1310773526,0,,-999999,5,21893,t,181891,203784,6/4/2014,10:35:11,5:35:11 PM,1,Session1,SessionsList,,,,,,,,,,1,1,1,4,,,,,,,,4,1,4,NonCued4,MiniBlocks2,,,,679446,4,1,b,-999999,6,719776,b,864,720640,Green,Congruent,b,White,0,,0,12,715794,,0,0,,,,,,,,,,,,,Pictures\white.bmp,3000,16000,Pictures\black.bmp,,,,,,,,,,4,1,4,StimulusPr,Pictures\GreenRight.bmp,NonCuedStim4,Right
POP_2,16064,1,"<?xml version=""1.0""?>\n<Clock xmlns:dt=""urn:schemas-microsoft-com:datatypes""><Description dt:dt=""string"">E-Prime Primary Realtime Clock</Description><StartTime><Timestamp dt:dt=""int"">0</Timestamp><DateUtc dt:dt=""string"">2014-06-04T17:35:11Z</DateUtc></StartTime><FrequencyChanges><FrequencyChange><Frequency dt:dt=""r8"">2793040000</Frequency><Timestamp dt:dt=""r8"">281790947641761</Timestamp><Current dt:dt=""r8"">0</Current><DateUtc dt:dt=""string"">2014-06-04T17:35:11Z</DateUtc></FrequencyChange></FrequencyChanges></Clock>\n",60.03,1,-1310773526,0,,-999999,5,21893,t,181891,203784,6/4/2014,10:35:11,5:35:11 PM,1,Session1,SessionsList,,,,,,,,,,1,1,1,4,,,,,,,,4,1,4,NonCued4,MiniBlocks2,,,,679446,5,1,r,-999999,13,747795,r,832,748627,Green,Congruent,r,White,0,,0,13,737783,,0,0,,,,,,,,,,,,,Pictures\white.bmp,9000,10000,Pictures\GreenLeft.bmp,,,,,,,,,,5,1,5,StimulusPr,Pictures\black.bmp,NonCuedStim4,Left
POP_2,16064,1,"<?xml version=""1.0""?>\n<Clock xmlns:dt=""urn:schemas-microsoft-com:datatypes""><Description dt:dt=""string"">E-Prime Primary Realtime Clock</Description><StartTime><Timestamp dt:dt=""int"">0</Timestamp><DateUtc dt:dt=""string"">2014-06-04T17:35:11Z</DateUtc></StartTime><FrequencyChanges><FrequencyChange><Frequency dt:dt=""r8"">2793040000</Frequency><Timestamp dt:dt=""r8"">281790947641761</Timestamp><Current dt:dt=""r8"">0</Current><DateUtc dt:dt=""string"">2014-06-04T17:35:11Z</DateUtc></FrequencyChange></FrequencyChanges></Clock>\n",60.03,1,-1310773526,0,,-999999,5,21893,t,181891,203784,6/4/2014,10:35:11,5:35:11 PM,1,Session1,SessionsList,,,,,,,,,,1,1,1,4,,,,,,,,4,1,4,NonCued4,MiniBlocks2,,,,679446,6,1,b,-999999,5,763787,b,695,764482,Green,Congruent,b,White,0,,0,7,759789,,0,0,,,,,,,,,,,,,Pictures\white.bmp,3000,16000,Pictures\black.bmp,,,,,,,,,,6,1,6,StimulusPr,Pictures\GreenRight.bmp,NonCuedStim4,Right
POP_2,16064,1,"<?xml version=""1.0""?>\n<Clock xmlns:dt=""urn:schemas-microsoft-com:datatypes""><Description dt:dt=""string"">E-Prime Primary Realtime Clock</Description><StartTime><Timestamp dt:dt=""int"">0</Timestamp><DateUtc dt:dt=""string"">2014-06-04T17:35:11Z</DateUtc></StartTime><FrequencyChanges><FrequencyChange><Frequency dt:dt=""r8"">2793040000</Frequency><Timestamp dt:dt=""r8"">281790947641761</Timestamp><Current dt:dt=""r8"">0</Current><DateUtc dt:dt=""string"">2014-06-04T17:35:11Z</DateUtc></FrequencyChange></FrequencyChanges></Clock>\n",60.03,1,-1310773526,0,,-999999,5,21893,t,181891,203784,6/4/2014,10:35:11,5:35:11 PM,1,Session1,SessionsList,,,,,,,,,,1,1,1,4,,,,,,,,4,1,4,NonCued4,MiniBlocks2,,,,679446,7,1,b,-999999,11,785793,b,848,786641,Red,Incongruent,b,White,0,,0,13,781795,,0,0,,,,,,,,,,,,,Pictures\white.bmp,3000,16000,Pictures\RedLeft.bmp,,,,,,,,,,7,1,7,StimulusPr,Pictures\black.bmp,NonCuedStim4,Left
POP_2,16064,1,"<?xml version=""1.0""?>\n<Clock xmlns:dt=""urn:schemas-microsoft-com:datatypes""><Description dt:dt=""string"">E-Prime Primary Realtime Clock</Description><StartTime><Timestamp dt:dt=""int"">0</Timestamp><DateUtc dt:dt=""string"">2014-06-04T17:35:11Z</DateUtc></StartTime><FrequencyChanges><FrequencyChange><Frequency dt:dt=""r8"">2793040000</Frequency><Timestamp dt:dt=""r8"">281790947641761</Timestamp><Current dt:dt=""r8"">0</Current><DateUtc dt:dt=""string"">2014-06-04T17:35:11Z</DateUtc></FrequencyChange></FrequencyChanges></Clock>\n",60.03,1,-1310773526,0,,-999999,5,21893,t,181891,203784,6/4/2014,10:35:11,5:35:11 PM,1,Session1,SessionsList,,,,,,,,,,1,1,1,4,,,,,,,,4,1,4,NonCued4,MiniBlocks2,,,,679446,8,1,r,-999999,16,807798,r,689,808487,Green,Congruent,r,White,0,,0,18,803800,,0,0,,,,,,,,,,,,,Pictures\white.bmp,3000,2000,Pictures\GreenLeft.bmp,,,,,,,,,,8,1,8,StimulusPr,Pictures\black.bmp,NonCuedStim4,Left
POP_2,16064,1,"<?xml version=""1.0""?>\n<Clock xmlns:dt=""urn:schemas-microsoft-com:datatypes""><Description dt:dt=""string"">E-Prime Primary Realtime Clock</Description><StartTime><Timestamp dt:dt=""int"">0</Timestamp><DateUtc dt:dt=""string"">2014-06-04T17:35:11Z</DateUtc></StartTime><FrequencyChanges><FrequencyChange><Frequency dt:dt=""r8"">2793040000</Frequency><Timestamp dt:dt=""r8"">281790947641761</Timestamp><Current dt:dt=""r8"">0</Current><DateUtc dt:dt=""string"">2014-06-04T17:35:11Z</DateUtc></FrequencyChange></FrequencyChanges></Clock>\n",60.03,1,-1310773526,0,,-999999,5,21893,t,181891,203784,6/4/2014,10:35:11,5:35:11 PM,1,Session1,SessionsList,,,,,,,,,,1,1,1,4,,,,,,,,4,1,4,NonCued4,MiniBlocks2,,,,679446,9,1,b,-999999,7,818776,b,670,819446,Green,Congruent,b,White,0,,0,10,811780,,0,0,,,,,,,,,,,,,Pictures\white.bmp,6000,2000,Pictures\black.bmp,,,,,,,,,,9,1,9,StimulusPr,Pictures\GreenRight.bmp,NonCuedStim4,Right
POP_2,16064,1,"<?xml version=""1.0""?>\n<Clock xmlns:dt=""urn:schemas-microsoft-com:datatypes""><Description dt:dt=""string"">E-Prime Primary Realtime Clock</Description><StartTime><Timestamp dt:dt=""int"">0</Timestamp><DateUtc dt:dt=""string"">2014-06-04T17:35:11Z</DateUtc></StartTime><FrequencyChanges><FrequencyChange><Frequency dt:dt=""r8"">2793040000</Frequency><Timestamp dt:dt=""r8"">281790947641761</Timestamp><Current dt:dt=""r8"">0</Current><DateUtc dt:dt=""string"">2014-06-04T17:35:11Z</DateUtc></FrequencyChange></FrequencyChanges></Clock>\n",60.03,1,-1310773526,0,,-999999,5,21893,t,181891,203784,6/4/2014,10:35:11,5:35:11 PM,1,Session1,SessionsList,,,,,,,,,,1,1,1,4,,,,,,,,4,1,4,NonCued4,MiniBlocks2,,,,679446,10,1,b,-999999,11,827788,b,638,828426,Green,Congruent,b,White,0,,0,9,822791,,0,0,,,,,,,,,,,,,Pictures\white.bmp,4000,4000,Pictures\black.bmp,,,,,,,,,,10,1,10,StimulusPr,Pictures\GreenRight.bmp,NonCuedStim4,Right
POP_2,16064,1,"<?xml version=""1.0""?>\n<Clock xmlns:dt=""urn:schemas-microsoft-com:datatypes""><Description dt:dt=""string"">E-Prime Primary Realtime Clock</Description><StartTime><Timestamp dt:dt=""int"">0</Timestamp><DateUtc dt:dt=""string"">2014-06-04T17:35:11Z</DateUtc></StartTime><FrequencyChanges><FrequencyChange><Frequency dt:dt=""r8"">2793040000</Frequency><Timestamp dt:dt=""r8"">281790947641761</Timestamp><Current dt:dt=""r8"">0</Current><DateUtc dt:dt=""string"">2014-06-04T17:35:11Z</DateUtc></FrequencyChange></FrequencyChanges></Clock>\n",60.03,1,-1310773526,0,,-999999,5,21893,t,181891,203784,6/4/2014,10:35:11,5:35:11 PM,2,Session2,SessionsList,0,,-999999,10,852576,t,34955,887531,832452,2,1,2,1,887541,,,,1,1,1,,,,Cued1,MiniBlocks1,,,,,1,1,r,-999999,3,901534,r,574,902108,White,Congruent,r,Green,0,,0,8,896520,,0,0,1,1,1,,,,,,,,,,Pictures\green.bmp,4000,4000,Pictures\left.bmp,,,,,,,,,,,,,StimulusPr,Pictures\black.bmp,CuedStim1,Left
POP_2,16064,1,"<?xml version=""1.0""?>\n<Clock xmlns:dt=""urn:schemas-microsoft-com:datatypes""><Description dt:dt=""string"">E-Prime Primary Realtime Clock</Description><StartTime><Timestamp dt:dt=""int"">0</Timestamp><DateUtc dt:dt=""string"">2014-06-04T17:35:11Z</DateUtc></StartTime><FrequencyChanges><FrequencyChange><Frequency dt:dt=""r8"">2793040000</Frequency><Timestamp dt:dt=""r8"">281790947641761</Timestamp><Current dt:dt=""r8"">0</Current><DateUtc dt:dt=""string"">2014-06-04T17:35:11Z</DateUtc></FrequencyChange></FrequencyChanges></Clock>\n",60.03,1,-1310773526,0,,-999999,5,21893,t,181891,203784,6/4/2014,10:35:11,5:35:11 PM,2,Session2,SessionsList,0,,-999999,10,852576,t,34955,887531,832452,2,1,2,1,887541,,,,1,1,1,,,,Cued1,MiniBlocks1,,,,,2,1,b,-999999,15,914545,b,479,915024,White,Congruent,b,Green,0,,0,4,907531,,0,0,2,1,2,,,,,,,,,,Pictures\green.bmp,6000,2000,Pictures\black.bmp,,,,,,,,,,,,,StimulusPr,Pictures\right.bmp,CuedStim1,Right
POP_2,16064,1,"<?xml version=""1.0""?>\n<Clock xmlns:dt=""urn:schemas-microsoft-com:datatypes""><Description dt:dt=""string"">E-Prime Primary Realtime Clock</Description><StartTime><Timestamp dt:dt=""int"">0</Timestamp><DateUtc dt:dt=""string"">2014-06-04T17:35:11Z</DateUtc></StartTime><FrequencyChanges><FrequencyChange><Frequency dt:dt=""r8"">2793040000</Frequency><Timestamp dt:dt=""r8"">281790947641761</Timestamp><Current dt:dt=""r8"">0</Current><DateUtc dt:dt=""string"">2014-06-04T17:35:11Z</DateUtc></FrequencyChange></FrequencyChanges></Clock>\n",60.03,1,-1310773526,0,,-999999,5,21893,t,181891,203784,6/4/2014,10:35:11,5:35:11 PM,2,Session2,SessionsList,0,,-999999,10,852576,t,34955,887531,832452,2,1,2,1,887541,,,,1,1,1,,,,Cued1,MiniBlocks1,,,,,3,1,b,-999999,5,922524,b,589,923113,White,Congruent,b,Green,0,,0,13,918543,,0,0,3,1,3,,,,,,,,,,Pictures\green.bmp,3000,2000,Pictures\black.bmp,,,,,,,,,,,,,StimulusPr,Pictures\right.bmp,CuedStim1,Right
POP_2,16064,1,"<?xml version=""1.0""?>\n<Clock xmlns:dt=""urn:schemas-microsoft-com:datatypes""><Description dt:dt=""string"">E-Prime Primary Realtime Clock</Description><StartTime><Timestamp dt:dt=""int"">0</Timestamp><DateUtc dt:dt=""string"">2014-06-04T17:35:11Z</DateUtc></StartTime><FrequencyChanges><FrequencyChange><Frequency dt:dt=""r8"">2793040000</Frequency><Timestamp dt:dt=""r8"">281790947641761</Timestamp><Current dt:dt=""r8"">0</Current><DateUtc dt:dt=""string"">2014-06-04T17:35:11Z</DateUtc></FrequencyChange></FrequencyChanges></Clock>\n",60.03,1,-1310773526,0,,-999999,5,21893,t,181891,203784,6/4/2014,10:35:11,5:35:11 PM,2,Session2,SessionsList,0,,-999999,10,852576,t,34955,887531,832452,2,1,2,1,887541,,,,1,1,1,,,,Cued1,MiniBlocks1,,,,,4,1,b,-999999,6,930536,b,439,930975,White,Incongruent,b,Red,0,,0,17,926539,,0,0,4,1,4,,,,,,,,,,Pictures\red.bmp,3000,16000,Pictures\left.bmp,,,,,,,,,,,,,StimulusPr,Pictures\black.bmp,CuedStim1,Left
POP_2,16064,1,"<?xml version=""1.0""?>\n<Clock xmlns:dt=""urn:schemas-microsoft-com:datatypes""><Description dt:dt=""string"">E-Prime Primary Realtime Clock</Description><StartTime><Timestamp dt:dt=""int"">0</Timestamp><DateUtc dt:dt=""string"">2014-06-04T17:35:11Z</DateUtc></StartTime><FrequencyChanges><FrequencyChange><Frequency dt:dt=""r8"">2793040000</Frequency><Timestamp dt:dt=""r8"">281790947641761</Timestamp><Current dt:dt=""r8"">0</Current><DateUtc dt:dt=""string"">2014-06-04T17:35:11Z</DateUtc></FrequencyChange></FrequencyChanges></Clock>\n",60.03,1,-1310773526,0,,-999999,5,21893,t,181891,203784,6/4/2014,10:35:11,5:35:11 PM,2,Session2,SessionsList,0,,-999999,10,852576,t,34955,887531,832452,2,1,2,1,887541,,,,1,1,1,,,,Cued1,MiniBlocks1,,,,,5,1,r,-999999,13,952525,r,668,953193,White,Congruent,r,Green,0,,0,13,948544,,0,0,5,1,5,,,,,,,,,,Pictures\green.bmp,3000,16000,Pictures\left.bmp,,,,,,,,,,,,,StimulusPr,Pictures\black.bmp,CuedStim1,Left
POP_2,16064,1,"<?xml version=""1.0""?>\n<Clock xmlns:dt=""urn:schemas-microsoft-com:datatypes""><Description dt:dt=""string"">E-Prime Primary Realtime Clock</Description><StartTime><Timestamp dt:dt=""int"">0</Timestamp><DateUtc dt:dt=""string"">2014-06-04T17:35:11Z</DateUtc></StartTime><FrequencyChanges><FrequencyChange><Frequency dt:dt=""r8"">2793040000</Frequency><Timestamp dt:dt=""r8"">281790947641761</Timestamp><Current dt:dt=""r8"">0</Current><DateUtc dt:dt=""string"">2014-06-04T17:35:11Z</DateUtc></FrequencyChange></FrequencyChanges></Clock>\n",60.03,1,-1310773526,0,,-999999,5,21893,t,181891,203784,6/4/2014,10:35:11,5:35:11 PM,2,Session2,SessionsList,0,,-999999,10,852576,t,34955,887531,832452,2,1,2,1,887541,,,,1,1,1,,,,Cued1,MiniBlocks1,,,,,6,1,r,-999999,14,980545,r,603,981148,White,Congruent,r,Green,0,,0,2,970533,,0,0,6,1,6,,,,,,,,,,Pictures\green.bmp,9000,10000,Pictures\left.bmp,,,,,,,,,,,,,StimulusPr,Pictures\black.bmp,CuedStim1,Left
POP_2,16064,1,"<?xml version=""1.0""?>\n<Clock xmlns:dt=""urn:schemas-microsoft-com:datatypes""><Description dt:dt=""string"">E-Prime Primary Realtime Clock</Description><StartTime><Timestamp dt:dt=""int"">0</Timestamp><DateUtc dt:dt=""string"">2014-06-04T17:35:11Z</DateUtc></StartTime><FrequencyChanges><FrequencyChange><Frequency dt:dt=""r8"">2793040000</Frequency><Timestamp dt:dt=""r8"">281790947641761</Timestamp><Current dt:dt=""r8"">0</Current><DateUtc dt:dt=""string"">2014-06-04T17:35:11Z</DateUtc></FrequencyChange></FrequencyChanges></Clock>\n",60.03,1,-1310773526,0,,-999999,5,21893,t,181891,203784,6/4/2014,10:35:11,5:35:11 PM,2,Session2,SessionsList,0,,-999999,10,852576,t,34955,887531,832452,2,1,2,1,887541,,,,1,1,1,,,,Cued1,MiniBlocks1,,,,,7,1,b,-999999,15,996537,b,635,997172,White,Congruent,b,Green,0,,0,9,992539,,0,0,7,1,7,,,,,,,,,,Pictures\green.bmp,3000,16000,Pictures\black.bmp,,,,,,,,,,,,,StimulusPr,Pictures\right.bmp,CuedStim1,Right
POP_2,16064,1,"<?xml version=""1.0""?>\n<Clock xmlns:dt=""urn:schemas-microsoft-com:datatypes""><Description dt:dt=""string"">E-Prime Primary Realtime Clock</Description><StartTime><Timestamp dt:dt=""int"">0</Timestamp><DateUtc dt:dt=""string"">2014-06-04T17:35:11Z</DateUtc></StartTime><FrequencyChanges><FrequencyChange><Frequency dt:dt=""r8"">2793040000</Frequency><Timestamp dt:dt=""r8"">281790947641761</Timestamp><Current dt:dt=""r8"">0</Current><DateUtc dt:dt=""string"">2014-06-04T17:35:11Z</DateUtc></FrequencyChange></FrequencyChanges></Clock>\n",60.03,1,-1310773526,0,,-999999,5,21893,t,181891,203784,6/4/2014,10:35:11,5:35:11 PM,2,Session2,SessionsList,0,,-999999,10,852576,t,34955,887531,832452,2,1,2,1,887541,,,,1,1,1,,,,Cued1,MiniBlocks1,,,,,8,1,r,-999999,12,1019542,r,494,1020036,White,Incongruent,r,Red,0,,0,14,1014544,,0,0,8,1,8,,,,,,,,,,Pictures\red.bmp,4000,2000,Pictures\black.bmp,,,,,,,,,,,,,StimulusPr,Pictures\right.bmp,CuedStim1,Right
POP_2,16064,1,"<?xml version=""1.0""?>\n<Clock xmlns:dt=""urn:schemas-microsoft-com:datatypes""><Description dt:dt=""string"">E-Prime Primary Realtime Clock</Description><StartTime><Timestamp dt:dt=""int"">0</Timestamp><DateUtc dt:dt=""string"">2014-06-04T17:35:11Z</DateUtc></StartTime><FrequencyChanges><FrequencyChange><Frequency dt:dt=""r8"">2793040000</Frequency><Timestamp dt:dt=""r8"">281790947641761</Timestamp><Current dt:dt=""r8"">0</Current><DateUtc dt:dt=""string"">2014-06-04T17:35:11Z</DateUtc></FrequencyChange></FrequencyChanges></Clock>\n",60.03,1,-1310773526,0,,-999999,5,21893,t,181891,203784,6/4/2014,10:35:11,5:35:11 PM,2,Session2,SessionsList,0,,-999999,10,852576,t,34955,887531,832452,2,1,2,1,887541,,,,1,1,1,,,,Cued1,MiniBlocks1,,,,,9,1,b,-999999,6,1028537,b,551,1029088,White,Congruent,b,Green,0,,0,4,1023523,,0,0,9,1,9,,,,,,,,,,Pictures\green.bmp,4000,2000,Pictures\black.bmp,,,,,,,,,,,,,StimulusPr,Pictures\right.bmp,CuedStim1,Right
POP_2,16064,1,"<?xml version=""1.0""?>\n<Clock xmlns:dt=""urn:schemas-microsoft-com:datatypes""><Description dt:dt=""string"">E-Prime Primary Realtime Clock</Description><StartTime><Timestamp dt:dt=""int"">0</Timestamp><DateUtc dt:dt=""string"">2014-06-04T17:35:11Z</DateUtc></StartTime><FrequencyChanges><FrequencyChange><Frequency dt:dt=""r8"">2793040000</Frequency><Timestamp dt:dt=""r8"">281790947641761</Timestamp><Current dt:dt=""r8"">0</Current><DateUtc dt:dt=""string"">2014-06-04T17:35:11Z</DateUtc></FrequencyChange></FrequencyChanges></Clock>\n",60.03,1,-1310773526,0,,-999999,5,21893,t,181891,203784,6/4/2014,10:35:11,5:35:11 PM,2,Session2,SessionsList,0,,-999999,10,852576,t,34955,887531,832452,2,1,2,1,887541,,,,1,1,1,,,,Cued1,MiniBlocks1,,,,,10,1,r,-999999,2,1036533,r,464,1036997,White,Congruent,r,Green,0,,0,4,1032535,,0,0,10,1,10,,,,,,,,,,Pictures\green.bmp,3000,2000,Pictures\left.bmp,,,,,,,,,,,,,StimulusPr,Pictures\black.bmp,CuedStim1,Left
POP_2,16064,1,"<?xml version=""1.0""?>\n<Clock xmlns:dt=""urn:schemas-microsoft-com:datatypes""><Description dt:dt=""string"">E-Prime Primary Realtime Clock</Description><StartTime><Timestamp dt:dt=""int"">0</Timestamp><DateUtc dt:dt=""string"">2014-06-04T17:35:11Z</DateUtc></StartTime><FrequencyChanges><FrequencyChange><Frequency dt:dt=""r8"">2793040000</Frequency><Timestamp dt:dt=""r8"">281790947641761</Timestamp><Current dt:dt=""r8"">0</Current><DateUtc dt:dt=""string"">2014-06-04T17:35:11Z</DateUtc></FrequencyChange></FrequencyChanges></Clock>\n",60.03,1,-1310773526,0,,-999999,5,21893,t,181891,203784,6/4/2014,10:35:11,5:35:11 PM,2,Session2,SessionsList,0,,-999999,10,852576,t,34955,887531,832452,2,1,2,2,,,,,2,1,2,,,,NonCued1,MiniBlocks1,1039015,,,,1,1,r,-999999,10,1054524,r,898,1055422,Green,Congruent,r,White,0,,0,12,1049543,,0,0,,,,,,,,,,,,,Pictures\white.bmp,4000,2000,Pictures\GreenLeft.bmp,1,1,1,,,,,,,,,,StimulusPr,Pictures\black.bmp,NonCuedStim1,Left
POP_2,16064,1,"<?xml version=""1.0""?>\n<Clock xmlns:dt=""urn:schemas-microsoft-com:datatypes""><Description dt:dt=""string"">E-Prime Primary Realtime Clock</Description><StartTime><Timestamp dt:dt=""int"">0</Timestamp><DateUtc dt:dt=""string"">2014-06-04T17:35:11Z</DateUtc></StartTime><FrequencyChanges><FrequencyChange><Frequency dt:dt=""r8"">2793040000</Frequency><Timestamp dt:dt=""r8"">281790947641761</Timestamp><Current dt:dt=""r8"">0</Current><DateUtc dt:dt=""string"">2014-06-04T17:35:11Z</DateUtc></FrequencyChange></FrequencyChanges></Clock>\n",60.03,1,-1310773526,0,,-999999,5,21893,t,181891,203784,6/4/2014,10:35:11,5:35:11 PM,2,Session2,SessionsList,0,,-999999,10,852576,t,34955,887531,832452,2,1,2,2,,,,,2,1,2,,,,NonCued1,MiniBlocks1,1039015,,,,2,1,b,-999999,17,1065535,b,553,1066088,Green,Congruent,b,White,0,,0,4,1058522,,0,0,,,,,,,,,,,,,Pictures\white.bmp,6000,16000,Pictures\black.bmp,2,1,2,,,,,,,,,,StimulusPr,Pictures\GreenRight.bmp,NonCuedStim1,Right
POP_2,16064,1,"<?xml version=""1.0""?>\n<Clock xmlns:dt=""urn:schemas-microsoft-com:datatypes""><Description dt:dt=""string"">E-Prime Primary Realtime Clock</Description><StartTime><Timestamp dt:dt=""int"">0</Timestamp><DateUtc dt:dt=""string"">2014-06-04T17:35:11Z</DateUtc></StartTime><FrequencyChanges><FrequencyChange><Frequency dt:dt=""r8"">2793040000</Frequency><Timestamp dt:dt=""r8"">281790947641761</Timestamp><Current dt:dt=""r8"">0</Current><DateUtc dt:dt=""string"">2014-06-04T17:35:11Z</DateUtc></FrequencyChange></FrequencyChanges></Clock>\n",60.03,1,-1310773526,0,,-999999,5,21893,t,181891,203784,6/4/2014,10:35:11,5:35:11 PM,2,Session2,SessionsList,0,,-999999,10,852576,t,34955,887531,832452,2,1,2,2,,,,,2,1,2,,,,NonCued1,MiniBlocks1,1039015,,,,3,1,r,-999999,5,1090523,r,795,1091318,Red,Incongruent,r,White,0,,0,13,1083543,,0,0,,,,,,,,,,,,,Pictures\white.bmp,6000,10000,Pictures\black.bmp,3,1,3,,,,,,,,,,StimulusPr,Pictures\RedRight.bmp,NonCuedStim1,Right
POP_2,16064,1,"<?xml version=""1.0""?>\n<Clock xmlns:dt=""urn:schemas-microsoft-com:datatypes""><Description dt:dt=""string"">E-Prime Primary Realtime Clock</Description><StartTime><Timestamp dt:dt=""int"">0</Timestamp><DateUtc dt:dt=""string"">2014-06-04T17:35:11Z</DateUtc></StartTime><FrequencyChanges><FrequencyChange><Frequency dt:dt=""r8"">2793040000</Frequency><Timestamp dt:dt=""r8"">281790947641761</Timestamp><Current dt:dt=""r8"">0</Current><DateUtc dt:dt=""string"">2014-06-04T17:35:11Z</DateUtc></FrequencyChange></FrequencyChanges></Clock>\n",60.03,1,-1310773526,0,,-999999,5,21893,t,181891,203784,6/4/2014,10:35:11,5:35:11 PM,2,Session2,SessionsList,0,,-999999,10,852576,t,34955,887531,832452,2,1,2,2,,,,,2,1,2,,,,NonCued1,MiniBlocks1,1039015,,,,4,1,r,-999999,14,1112545,r,536,1113081,Green,Congruent,r,White,0,,0,3,1102517,,0,0,,,,,,,,,,,,,Pictures\white.bmp,9000,10000,Pictures\GreenLeft.bmp,4,1,4,,,,,,,,,,StimulusPr,Pictures\black.bmp,NonCuedStim1,Left
POP_2,16064,1,"<?xml version=""1.0""?>\n<Clock xmlns:dt=""urn:schemas-microsoft-com:datatypes""><Description dt:dt=""string"">E-Prime Primary Realtime Clock</Description><StartTime><Timestamp dt:dt=""int"">0</Timestamp><DateUtc dt:dt=""string"">2014-06-04T17:35:11Z</DateUtc></StartTime><FrequencyChanges><FrequencyChange><Frequency dt:dt=""r8"">2793040000</Frequency><Timestamp dt:dt=""r8"">281790947641761</Timestamp><Current dt:dt=""r8"">0</Current><DateUtc dt:dt=""string"">2014-06-04T17:35:11Z</DateUtc></FrequencyChange></FrequencyChanges></Clock>\n",60.03,1,-1310773526,0,,-999999,5,21893,t,181891,203784,6/4/2014,10:35:11,5:35:11 PM,2,Session2,SessionsList,0,,-999999,10,852576,t,34955,887531,832452,2,1,2,2,,,,,2,1,2,,,,NonCued1,MiniBlocks1,1039015,,,,5,1,b,-999999,3,1128521,b,569,1129090,Green,Congruent,b,White,0,,0,4,1124522,,0,0,,,,,,,,,,,,,Pictures\white.bmp,3000,2000,Pictures\black.bmp,5,1,5,,,,,,,,,,StimulusPr,Pictures\GreenRight.bmp,NonCuedStim1,Right
POP_2,16064,1,"<?xml version=""1.0""?>\n<Clock xmlns:dt=""urn:schemas-microsoft-com:datatypes""><Description dt:dt=""string"">E-Prime Primary Realtime Clock</Description><StartTime><Timestamp dt:dt=""int"">0</Timestamp><DateUtc dt:dt=""string"">2014-06-04T17:35:11Z</DateUtc></StartTime><FrequencyChanges><FrequencyChange><Frequency dt:dt=""r8"">2793040000</Frequency><Timestamp dt:dt=""r8"">281790947641761</Timestamp><Current dt:dt=""r8"">0</Current><DateUtc dt:dt=""string"">2014-06-04T17:35:11Z</DateUtc></FrequencyChange></FrequencyChanges></Clock>\n",60.03,1,-1310773526,0,,-999999,5,21893,t,181891,203784,6/4/2014,10:35:11,5:35:11 PM,2,Session2,SessionsList,0,,-999999,10,852576,t,34955,887531,832452,2,1,2,2,,,,,2,1,2,,,,NonCued1,MiniBlocks1,1039015,,,,6,1,b,-999999,19,1137549,b,823,1138372,Red,Incongruent,b,White,0,,0,17,1132535,,0,0,,,,,,,,,,,,,Pictures\white.bmp,4000,16000,Pictures\RedLeft.bmp,6,1,6,,,,,,,,,,StimulusPr,Pictures\black.bmp,NonCuedStim1,Left
POP_2,16064,1,"<?xml version=""1.0""?>\n<Clock xmlns:dt=""urn:schemas-microsoft-com:datatypes""><Description dt:dt=""string"">E-Prime Primary Realtime Clock</Description><StartTime><Timestamp dt:dt=""int"">0</Timestamp><DateUtc dt:dt=""string"">2014-06-04T17:35:11Z</DateUtc></StartTime><FrequencyChanges><FrequencyChange><Frequency dt:dt=""r8"">2793040000</Frequency><Timestamp dt:dt=""r8"">281790947641761</Timestamp><Current dt:dt=""r8"">0</Current><DateUtc dt:dt=""string"">2014-06-04T17:35:11Z</DateUtc></FrequencyChange></FrequencyChanges></Clock>\n",60.03,1,-1310773526,0,,-999999,5,21893,t,181891,203784,6/4/2014,10:35:11,5:35:11 PM,2,Session2,SessionsList,0,,-999999,10,852576,t,34955,887531,832452,2,1,2,2,,,,,2,1,2,,,,NonCued1,MiniBlocks1,1039015,,,,7,1,b,-999999,8,1159538,b,583,1160121,Green,Congruent,b,White,0,,0,10,1155540,,0,0,,,,,,,,,,,,,Pictures\white.bmp,3000,4000,Pictures\black.bmp,7,1,7,,,,,,,,,,StimulusPr,Pictures\GreenRight.bmp,NonCuedStim1,Right
POP_2,16064,1,"<?xml version=""1.0""?>\n<Clock xmlns:dt=""urn:schemas-microsoft-com:datatypes""><Description dt:dt=""string"">E-Prime Primary Realtime Clock</Description><StartTime><Timestamp dt:dt=""int"">0</Timestamp><DateUtc dt:dt=""string"">2014-06-04T17:35:11Z</DateUtc></StartTime><FrequencyChanges><FrequencyChange><Frequency dt:dt=""r8"">2793040000</Frequency><Timestamp dt:dt=""r8"">281790947641761</Timestamp><Current dt:dt=""r8"">0</Current><DateUtc dt:dt=""string"">2014-06-04T17:35:11Z</DateUtc></FrequencyChange></FrequencyChanges></Clock>\n",60.03,1,-1310773526,0,,-999999,5,21893,t,181891,203784,6/4/2014,10:35:11,5:35:11 PM,2,Session2,SessionsList,0,,-999999,10,852576,t,34955,887531,832452,2,1,2,2,,,,,2,1,2,,,,NonCued1,MiniBlocks1,1039015,,,,8,1,b,-999999,15,1169533,b,602,1170135,Green,Congruent,b,White,0,,0,5,1165535,,0,0,,,,,,,,,,,,,Pictures\white.bmp,3000,4000,Pictures\black.bmp,8,1,8,,,,,,,,,,StimulusPr,Pictures\GreenRight.bmp,NonCuedStim1,Right
POP_2,16064,1,"<?xml version=""1.0""?>\n<Clock xmlns:dt=""urn:schemas-microsoft-com:datatypes""><Description dt:dt=""string"">E-Prime Primary Realtime Clock</Description><StartTime><Timestamp dt:dt=""int"">0</Timestamp><DateUtc dt:dt=""string"">2014-06-04T17:35:11Z</DateUtc></StartTime><FrequencyChanges><FrequencyChange><Frequency dt:dt=""r8"">2793040000</Frequency><Timestamp dt:dt=""r8"">281790947641761</Timestamp><Current dt:dt=""r8"">0</Current><DateUtc dt:dt=""string"">2014-06-04T17:35:11Z</DateUtc></FrequencyChange></FrequencyChanges></Clock>\n",60.03,1,-1310773526,0,,-999999,5,21893,t,181891,203784,6/4/2014,10:35:11,5:35:11 PM,2,Session2,SessionsList,0,,-999999,10,852576,t,34955,887531,832452,2,1,2,2,,,,,2,1,2,,,,NonCued1,MiniBlocks1,1039015,,,,9,1,b,-999999,12,1185542,b,605,1186147,Red,Incongruent,b,White,0,,0,17,1175547,,0,0,,,,,,,,,,,,,Pictures\white.bmp,9000,2000,Pictures\RedLeft.bmp,9,1,9,,,,,,,,,,StimulusPr,Pictures\black.bmp,NonCuedStim1,Left
POP_2,16064,1,"<?xml version=""1.0""?>\n<Clock xmlns:dt=""urn:schemas-microsoft-com:datatypes""><Description dt:dt=""string"">E-Prime Primary Realtime Clock</Description><StartTime><Timestamp dt:dt=""int"">0</Timestamp><DateUtc dt:dt=""string"">2014-06-04T17:35:11Z</DateUtc></StartTime><FrequencyChanges><FrequencyChange><Frequency dt:dt=""r8"">2793040000</Frequency><Timestamp dt:dt=""r8"">281790947641761</Timestamp><Current dt:dt=""r8"">0</Current><DateUtc dt:dt=""string"">2014-06-04T17:35:11Z</DateUtc></FrequencyChange></FrequencyChanges></Clock>\n",60.03,1,-1310773526,0,,-999999,5,21893,t,181891,203784,6/4/2014,10:35:11,5:35:11 PM,2,Session2,SessionsList,0,,-999999,10,852576,t,34955,887531,832452,2,1,2,2,,,,,2,1,2,,,,NonCued1,MiniBlocks1,1039015,,,,10,1,r,-999999,7,1196536,r,705,1197241,Green,Congruent,r,White,0,,0,10,1189540,,0,0,,,,,,,,,,,,,Pictures\white.bmp,6000,2000,Pictures\GreenLeft.bmp,10,1,10,,,,,,,,,,StimulusPr,Pictures\black.bmp,NonCuedStim1,Left
POP_2,16064,1,"<?xml version=""1.0""?>\n<Clock xmlns:dt=""urn:schemas-microsoft-com:datatypes""><Description dt:dt=""string"">E-Prime Primary Realtime Clock</Description><StartTime><Timestamp dt:dt=""int"">0</Timestamp><DateUtc dt:dt=""string"">2014-06-04T17:35:11Z</DateUtc></StartTime><FrequencyChanges><FrequencyChange><Frequency dt:dt=""r8"">2793040000</Frequency><Timestamp dt:dt=""r8"">281790947641761</Timestamp><Current dt:dt=""r8"">0</Current><DateUtc dt:dt=""string"">2014-06-04T17:35:11Z</DateUtc></FrequencyChange></FrequencyChanges></Clock>\n",60.03,1,-1310773526,0,,-999999,5,21893,t,181891,203784,6/4/2014,10:35:11,5:35:11 PM,2,Session2,SessionsList,0,,-999999,10,852576,t,34955,887531,832452,2,1,2,3,,,,,3,1,3,,,,NonCued2,MiniBlocks1,,1199268,,,1,1,b,-999999,11,1219541,b,694,1220235,Green,Congruent,b,White,0,,0,16,1209546,,0,0,,,,,,,,,,,,,Pictures\white.bmp,9000,10000,Pictures\black.bmp,,,,1,1,1,,,,,,,StimulusPr,Pictures\GreenRight.bmp,NonCuedStim2,Right
POP_2,16064,1,"<?xml version=""1.0""?>\n<Clock xmlns:dt=""urn:schemas-microsoft-com:datatypes""><Description dt:dt=""string"">E-Prime Primary Realtime Clock</Description><StartTime><Timestamp dt:dt=""int"">0</Timestamp><DateUtc dt:dt=""string"">2014-06-04T17:35:11Z</DateUtc></StartTime><FrequencyChanges><FrequencyChange><Frequency dt:dt=""r8"">2793040000</Frequency><Timestamp dt:dt=""r8"">281790947641761</Timestamp><Current dt:dt=""r8"">0</Current><DateUtc dt:dt=""string"">2014-06-04T17:35:11Z</DateUtc></FrequencyChange></FrequencyChanges></Clock>\n",60.03,1,-1310773526,0,,-999999,5,21893,t,181891,203784,6/4/2014,10:35:11,5:35:11 PM,2,Session2,SessionsList,0,,-999999,10,852576,t,34955,887531,832452,2,1,2,3,,,,,3,1,3,,,,NonCued2,MiniBlocks1,,1199268,,,2,1,r,-999999,3,1235533,r,539,1236072,Green,Congruent,r,White,0,,0,5,1231535,,0,0,,,,,,,,,,,,,Pictures\white.bmp,3000,2000,Pictures\GreenLeft.bmp,,,,2,1,2,,,,,,,StimulusPr,Pictures\black.bmp,NonCuedStim2,Left
POP_2,16064,1,"<?xml version=""1.0""?>\n<Clock xmlns:dt=""urn:schemas-microsoft-com:datatypes""><Description dt:dt=""string"">E-Prime Primary Realtime Clock</Description><StartTime><Timestamp dt:dt=""int"">0</Timestamp><DateUtc dt:dt=""string"">2014-06-04T17:35:11Z</DateUtc></StartTime><FrequencyChanges><FrequencyChange><Frequency dt:dt=""r8"">2793040000</Frequency><Timestamp dt:dt=""r8"">281790947641761</Timestamp><Current dt:dt=""r8"">0</Current><DateUtc dt:dt=""string"">2014-06-04T17:35:11Z</DateUtc></FrequencyChange></FrequencyChanges></Clock>\n",60.03,1,-1310773526,0,,-999999,5,21893,t,181891,203784,6/4/2014,10:35:11,5:35:11 PM,2,Session2,SessionsList,0,,-999999,10,852576,t,34955,887531,832452,2,1,2,3,,,,,3,1,3,,,,NonCued2,MiniBlocks1,,1199268,,,3,1,r,-999999,16,1243546,r,771,1244317,Red,Incongruent,r,White,0,,0,18,1239548,,0,0,,,,,,,,,,,,,Pictures\white.bmp,3000,2000,Pictures\black.bmp,,,,3,1,3,,,,,,,StimulusPr,Pictures\RedRight.bmp,NonCuedStim2,Right
POP_2,16064,1,"<?xml version=""1.0""?>\n<Clock xmlns:dt=""urn:schemas-microsoft-com:datatypes""><Description dt:dt=""string"">E-Prime Primary Realtime Clock</Description><StartTime><Timestamp dt:dt=""int"">0</Timestamp><DateUtc dt:dt=""string"">2014-06-04T17:35:11Z</DateUtc></StartTime><FrequencyChanges><FrequencyChange><Frequency dt:dt=""r8"">2793040000</Frequency><Timestamp dt:dt=""r8"">281790947641761</Timestamp><Current dt:dt=""r8"">0</Current><DateUtc dt:dt=""string"">2014-06-04T17:35:11Z</DateUtc></FrequencyChange></FrequencyChanges></Clock>\n",60.03,1,-1310773526,0,,-999999,5,21893,t,181891,203784,6/4/2014,10:35:11,5:35:11 PM,2,Session2,SessionsList,0,,-999999,10,852576,t,34955,887531,832452,2,1,2,3,,,,,3,1,3,,,,NonCued2,MiniBlocks1,,1199268,,,4,1,r,-999999,14,1252525,r,706,1253231,Green,Congruent,r,White,0,,0,14,1247544,,0,0,,,,,,,,,,,,,Pictures\white.bmp,4000,16000,Pictures\GreenLeft.bmp,,,,4,1,4,,,,,,,StimulusPr,Pictures\black.bmp,NonCuedStim2,Left
POP_2,16064,1,"<?xml version=""1.0""?>\n<Clock xmlns:dt=""urn:schemas-microsoft-com:datatypes""><Description dt:dt=""string"">E-Prime Primary Realtime Clock</Description><StartTime><Timestamp dt:dt=""int"">0</Timestamp><DateUtc dt:dt=""string"">2014-06-04T17:35:11Z</DateUtc></StartTime><FrequencyChanges><FrequencyChange><Frequency dt:dt=""r8"">2793040000</Frequency><Timestamp dt:dt=""r8"">281790947641761</Timestamp><Current dt:dt=""r8"">0</Current><DateUtc dt:dt=""string"">2014-06-04T17:35:11Z</DateUtc></FrequencyChange></FrequencyChanges></Clock>\n",60.03,1,-1310773526,0,,-999999,5,21893,t,181891,203784,6/4/2014,10:35:11,5:35:11 PM,2,Session2,SessionsList,0,,-999999,10,852576,t,34955,887531,832452,2,1,2,3,,,,,3,1,3,,,,NonCued2,MiniBlocks1,,1199268,,,5,1,r,-999999,16,1277545,r,563,1278108,Green,Congruent,r,White,0,,0,3,1270532,,0,0,,,,,,,,,,,,,Pictures\white.bmp,6000,4000,Pictures\GreenLeft.bmp,,,,5,1,5,,,,,,,StimulusPr,Pictures\black.bmp,NonCuedStim2,Left
POP_2,16064,1,"<?xml version=""1.0""?>\n<Clock xmlns:dt=""urn:schemas-microsoft-com:datatypes""><Description dt:dt=""string"">E-Prime Primary Realtime Clock</Description><StartTime><Timestamp dt:dt=""int"">0</Timestamp><DateUtc dt:dt=""string"">2014-06-04T17:35:11Z</DateUtc></StartTime><FrequencyChanges><FrequencyChange><Frequency dt:dt=""r8"">2793040000</Frequency><Timestamp dt:dt=""r8"">281790947641761</Timestamp><Current dt:dt=""r8"">0</Current><DateUtc dt:dt=""string"">2014-06-04T17:35:11Z</DateUtc></FrequencyChange></FrequencyChanges></Clock>\n",60.03,1,-1310773526,0,,-999999,5,21893,t,181891,203784,6/4/2014,10:35:11,5:35:11 PM,2,Session2,SessionsList,0,,-999999,10,852576,t,34955,887531,832452,2,1,2,3,,,,,3,1,3,,,,NonCued2,MiniBlocks1,,1199268,,,6,1,b,-999999,11,1287540,b,676,1288216,Red,Incongruent,b,White,0,,0,13,1283542,,0,0,,,,,,,,,,,,,Pictures\white.bmp,3000,4000,Pictures\RedLeft.bmp,,,,6,1,6,,,,,,,StimulusPr,Pictures\black.bmp,NonCuedStim2,Left
POP_2,16064,1,"<?xml version=""1.0""?>\n<Clock xmlns:dt=""urn:schemas-microsoft-com:datatypes""><Description dt:dt=""string"">E-Prime Primary Realtime Clock</Description><StartTime><Timestamp dt:dt=""int"">0</Timestamp><DateUtc dt:dt=""string"">2014-06-04T17:35:11Z</DateUtc></StartTime><FrequencyChanges><FrequencyChange><Frequency dt:dt=""r8"">2793040000</Frequency><Timestamp dt:dt=""r8"">281790947641761</Timestamp><Current dt:dt=""r8"">0</Current><DateUtc dt:dt=""string"">2014-06-04T17:35:11Z</DateUtc></FrequencyChange></FrequencyChanges></Clock>\n",60.03,1,-1310773526,0,,-999999,5,21893,t,181891,203784,6/4/2014,10:35:11,5:35:11 PM,2,Session2,SessionsList,0,,-999999,10,852576,t,34955,887531,832452,2,1,2,3,,,,,3,1,3,,,,NonCued2,MiniBlocks1,,1199268,,,7,1,b,-999999,18,1298535,b,620,1299155,Green,Congruent,b,White,0,,0,7,1293537,,0,0,,,,,,,,,,,,,Pictures\white.bmp,4000,16000,Pictures\black.bmp,,,,7,1,7,,,,,,,StimulusPr,Pictures\GreenRight.bmp,NonCuedStim2,Right
POP_2,16064,1,"<?xml version=""1.0""?>\n<Clock xmlns:dt=""urn:schemas-microsoft-com:datatypes""><Description dt:dt=""string"">E-Prime Primary Realtime Clock</Description><StartTime><Timestamp dt:dt=""int"">0</Timestamp><DateUtc dt:dt=""string"">2014-06-04T17:35:11Z</DateUtc></StartTime><FrequencyChanges><FrequencyChange><Frequency dt:dt=""r8"">2793040000</Frequency><Timestamp dt:dt=""r8"">281790947641761</Timestamp><Current dt:dt=""r8"">0</Current><DateUtc dt:dt=""string"">2014-06-04T17:35:11Z</DateUtc></FrequencyChange></FrequencyChanges></Clock>\n",60.03,1,-1310773526,0,,-999999,5,21893,t,181891,203784,6/4/2014,10:35:11,5:35:11 PM,2,Session2,SessionsList,0,,-999999,10,852576,t,34955,887531,832452,2,1,2,3,,,,,3,1,3,,,,NonCued2,MiniBlocks1,,1199268,,,8,1,r,-999999,4,1326521,r,582,1327103,Green,Congruent,r,White,0,,0,9,1316526,,0,0,,,,,,,,,,,,,Pictures\white.bmp,9000,2000,Pictures\GreenLeft.bmp,,,,8,1,8,,,,,,,StimulusPr,Pictures\black.bmp,NonCuedStim2,Left
POP_2,16064,1,"<?xml version=""1.0""?>\n<Clock xmlns:dt=""urn:schemas-microsoft-com:datatypes""><Description dt:dt=""string"">E-Prime Primary Realtime Clock</Description><StartTime><Timestamp dt:dt=""int"">0</Timestamp><DateUtc dt:dt=""string"">2014-06-04T17:35:11Z</DateUtc></StartTime><FrequencyChanges><FrequencyChange><Frequency dt:dt=""r8"">2793040000</Frequency><Timestamp dt:dt=""r8"">281790947641761</Timestamp><Current dt:dt=""r8"">0</Current><DateUtc dt:dt=""string"">2014-06-04T17:35:11Z</DateUtc></FrequencyChange></FrequencyChanges></Clock>\n",60.03,1,-1310773526,0,,-999999,5,21893,t,181891,203784,6/4/2014,10:35:11,5:35:11 PM,2,Session2,SessionsList,0,,-999999,10,852576,t,34955,887531,832452,2,1,2,3,,,,,3,1,3,,,,NonCued2,MiniBlocks1,,1199268,,,9,1,b,-999999,3,1334533,b,543,1335076,Green,Congruent,b,White,0,,0,6,1330536,,0,0,,,,,,,,,,,,,Pictures\white.bmp,3000,10000,Pictures\black.bmp,,,,9,1,9,,,,,,,StimulusPr,Pictures\GreenRight.bmp,NonCuedStim2,Right
POP_2,16064,1,"<?xml version=""1.0""?>\n<Clock xmlns:dt=""urn:schemas-microsoft-com:datatypes""><Description dt:dt=""string"">E-Prime Primary Realtime Clock</Description><StartTime><Timestamp dt:dt=""int"">0</Timestamp><DateUtc dt:dt=""string"">2014-06-04T17:35:11Z</DateUtc></StartTime><FrequencyChanges><FrequencyChange><Frequency dt:dt=""r8"">2793040000</Frequency><Timestamp dt:dt=""r8"">281790947641761</Timestamp><Current dt:dt=""r8"">0</Current><DateUtc dt:dt=""string"">2014-06-04T17:35:11Z</DateUtc></FrequencyChange></FrequencyChanges></Clock>\n",60.03,1,-1310773526,0,,-999999,5,21893,t,181891,203784,6/4/2014,10:35:11,5:35:11 PM,2,Session2,SessionsList,0,,-999999,10,852576,t,34955,887531,832452,2,1,2,3,,,,,3,1,3,,,,NonCued2,MiniBlocks1,,1199268,,,10,1,b,-999999,8,1350525,b,497,1351022,Green,Congruent,b,White,0,,0,15,1346544,,0,0,,,,,,,,,,,,,Pictures\white.bmp,3000,2000,Pictures\black.bmp,,,,10,1,10,,,,,,,StimulusPr,Pictures\GreenRight.bmp,NonCuedStim2,Right
POP_2,16064,1,"<?xml version=""1.0""?>\n<Clock xmlns:dt=""urn:schemas-microsoft-com:datatypes""><Description dt:dt=""string"">E-Prime Primary Realtime Clock</Description><StartTime><Timestamp dt:dt=""int"">0</Timestamp><DateUtc dt:dt=""string"">2014-06-04T17:35:11Z</DateUtc></StartTime><FrequencyChanges><FrequencyChange><Frequency dt:dt=""r8"">2793040000</Frequency><Timestamp dt:dt=""r8"">281790947641761</Timestamp><Current dt:dt=""r8"">0</Current><DateUtc dt:dt=""string"">2014-06-04T17:35:11Z</DateUtc></FrequencyChange></FrequencyChanges></Clock>\n",60.03,1,-1310773526,0,,-999999,5,21893,t,181891,203784,6/4/2014,10:35:11,5:35:11 PM,2,Session2,SessionsList,0,,-999999,10,852576,t,34955,887531,832452,2,1,2,4,,1353041,,,4,1,4,,,,Cued2,MiniBlocks1,,,,,1,1,b,-999999,3,1370532,b,983,1371515,White,Congruent,b,Green,0,,0,7,1363536,,0,0,,,,1,1,1,,,,,,,Pictures\green.bmp,6000,4000,Pictures\black.bmp,,,,,,,,,,,,,StimulusPr,Pictures\right.bmp,CuedStim2,Right
POP_2,16064,1,"<?xml version=""1.0""?>\n<Clock xmlns:dt=""urn:schemas-microsoft-com:datatypes""><Description dt:dt=""string"">E-Prime Primary Realtime Clock</Description><StartTime><Timestamp dt:dt=""int"">0</Timestamp><DateUtc dt:dt=""string"">2014-06-04T17:35:11Z</DateUtc></StartTime><FrequencyChanges><FrequencyChange><Frequency dt:dt=""r8"">2793040000</Frequency><Timestamp dt:dt=""r8"">281790947641761</Timestamp><Current dt:dt=""r8"">0</Current><DateUtc dt:dt=""string"">2014-06-04T17:35:11Z</DateUtc></FrequencyChange></FrequencyChanges></Clock>\n",60.03,1,-1310773526,0,,-999999,5,21893,t,181891,203784,6/4/2014,10:35:11,5:35:11 PM,2,Session2,SessionsList,0,,-999999,10,852576,t,34955,887531,832452,2,1,2,4,,1353041,,,4,1,4,,,,Cued2,MiniBlocks1,,,,,2,1,b,-999999,10,1387540,b,543,1388083,White,Congruent,b,Green,0,,0,12,1377529,,0,0,,,,2,1,2,,,,,,,Pictures\green.bmp,9000,10000,Pictures\black.bmp,,,,,,,,,,,,,StimulusPr,Pictures\right.bmp,CuedStim2,Right
POP_2,16064,1,"<?xml version=""1.0""?>\n<Clock xmlns:dt=""urn:schemas-microsoft-com:datatypes""><Description dt:dt=""string"">E-Prime Primary Realtime Clock</Description><StartTime><Timestamp dt:dt=""int"">0</Timestamp><DateUtc dt:dt=""string"">2014-06-04T17:35:11Z</DateUtc></StartTime><FrequencyChanges><FrequencyChange><Frequency dt:dt=""r8"">2793040000</Frequency><Timestamp dt:dt=""r8"">281790947641761</Timestamp><Current dt:dt=""r8"">0</Current><DateUtc dt:dt=""string"">2014-06-04T17:35:11Z</DateUtc></FrequencyChange></FrequencyChanges></Clock>\n",60.03,1,-1310773526,0,,-999999,5,21893,t,181891,203784,6/4/2014,10:35:11,5:35:11 PM,2,Session2,SessionsList,0,,-999999,10,852576,t,34955,887531,832452,2,1,2,4,,1353041,,,4,1,4,,,,Cued2,MiniBlocks1,,,,,3,1,r,-999999,3,1403533,r,715,1404248,White,Incongruent,r,Red,0,,0,4,1399534,,0,0,,,,3,1,3,,,,,,,Pictures\red.bmp,3000,2000,Pictures\black.bmp,,,,,,,,,,,,,StimulusPr,Pictures\right.bmp,CuedStim2,Right
POP_2,16064,1,"<?xml version=""1.0""?>\n<Clock xmlns:dt=""urn:schemas-microsoft-com:datatypes""><Description dt:dt=""string"">E-Prime Primary Realtime Clock</Description><StartTime><Timestamp dt:dt=""int"">0</Timestamp><DateUtc dt:dt=""string"">2014-06-04T17:35:11Z</DateUtc></StartTime><FrequencyChanges><FrequencyChange><Frequency dt:dt=""r8"">2793040000</Frequency><Timestamp dt:dt=""r8"">281790947641761</Timestamp><Current dt:dt=""r8"">0</Current><DateUtc dt:dt=""string"">2014-06-04T17:35:11Z</DateUtc></FrequencyChange></FrequencyChanges></Clock>\n",60.03,1,-1310773526,0,,-999999,5,21893,t,181891,203784,6/4/2014,10:35:11,5:35:11 PM,2,Session2,SessionsList,0,,-999999,10,852576,t,34955,887531,832452,2,1,2,4,,1353041,,,4,1,4,,,,Cued2,MiniBlocks1,,,,,4,1,r,-999999,13,1414543,r,531,1415074,White,Congruent,r,Green,0,,0,17,1407547,,0,0,,,,4,1,4,,,,,,,Pictures\green.bmp,6000,16000,Pictures\left.bmp,,,,,,,,,,,,,StimulusPr,Pictures\black.bmp,CuedStim2,Left
POP_2,16064,1,"<?xml version=""1.0""?>\n<Clock xmlns:dt=""urn:schemas-microsoft-com:datatypes""><Description dt:dt=""string"">E-Prime Primary Realtime Clock</Description><StartTime><Timestamp dt:dt=""int"">0</Timestamp><DateUtc dt:dt=""string"">2014-06-04T17:35:11Z</DateUtc></StartTime><FrequencyChanges><FrequencyChange><Frequency dt:dt=""r8"">2793040000</Frequency><Timestamp dt:dt=""r8"">281790947641761</Timestamp><Current dt:dt=""r8"">0</Current><DateUtc dt:dt=""string"">2014-06-04T17:35:11Z</DateUtc></FrequencyChange></FrequencyChanges></Clock>\n",60.03,1,-1310773526,0,,-999999,5,21893,t,181891,203784,6/4/2014,10:35:11,5:35:11 PM,2,Session2,SessionsList,0,,-999999,10,852576,t,34955,887531,832452,2,1,2,4,,1353041,,,4,1,4,,,,Cued2,MiniBlocks1,,,,,5,1,b,-999999,3,1436532,b,673,1437205,White,Congruent,b,Green,0,,0,17,1432534,,0,0,,,,5,1,5,,,,,,,Pictures\green.bmp,3000,2000,Pictures\black.bmp,,,,,,,,,,,,,StimulusPr,Pictures\right.bmp,CuedStim2,Right
POP_2,16064,1,"<?xml version=""1.0""?>\n<Clock xmlns:dt=""urn:schemas-microsoft-com:datatypes""><Description dt:dt=""string"">E-Prime Primary Realtime Clock</Description><StartTime><Timestamp dt:dt=""int"">0</Timestamp><DateUtc dt:dt=""string"">2014-06-04T17:35:11Z</DateUtc></StartTime><FrequencyChanges><FrequencyChange><Frequency dt:dt=""r8"">2793040000</Frequency><Timestamp dt:dt=""r8"">281790947641761</Timestamp><Current dt:dt=""r8"">0</Current><DateUtc dt:dt=""string"">2014-06-04T17:35:11Z</DateUtc></FrequencyChange></FrequencyChanges></Clock>\n",60.03,1,-1310773526,0,,-999999,5,21893,t,181891,203784,6/4/2014,10:35:11,5:35:11 PM,2,Session2,SessionsList,0,,-999999,10,852576,t,34955,887531,832452,2,1,2,4,,1353041,,,4,1,4,,,,Cued2,MiniBlocks1,,,,,6,1,r,-999999,16,1444545,r,651,1445196,White,Congruent,r,Green,0,,0,18,1440547,,0,0,,,,6,1,6,,,,,,,Pictures\green.bmp,3000,2000,Pictures\left.bmp,,,,,,,,,,,,,StimulusPr,Pictures\black.bmp,CuedStim2,Left
POP_2,16064,1,"<?xml version=""1.0""?>\n<Clock xmlns:dt=""urn:schemas-microsoft-com:datatypes""><Description dt:dt=""string"">E-Prime Primary Realtime Clock</Description><StartTime><Timestamp dt:dt=""int"">0</Timestamp><DateUtc dt:dt=""string"">2014-06-04T17:35:11Z</DateUtc></StartTime><FrequencyChanges><FrequencyChange><Frequency dt:dt=""r8"">2793040000</Frequency><Timestamp dt:dt=""r8"">281790947641761</Timestamp><Current dt:dt=""r8"">0</Current><DateUtc dt:dt=""string"">2014-06-04T17:35:11Z</DateUtc></FrequencyChange></FrequencyChanges></Clock>\n",60.03,1,-1310773526,0,,-999999,5,21893,t,181891,203784,6/4/2014,10:35:11,5:35:11 PM,2,Session2,SessionsList,0,,-999999,10,852576,t,34955,887531,832452,2,1,2,4,,1353041,,,4,1,4,,,,Cued2,MiniBlocks1,,,,,7,1,b,-999999,10,1455539,b,798,1456337,White,Incongruent,b,Red,0,,0,14,1448543,,0,0,,,,7,1,7,,,,,,,Pictures\red.bmp,6000,4000,Pictures\left.bmp,,,,,,,,,,,,,StimulusPr,Pictures\black.bmp,CuedStim2,Left
POP_2,16064,1,"<?xml version=""1.0""?>\n<Clock xmlns:dt=""urn:schemas-microsoft-com:datatypes""><Description dt:dt=""string"">E-Prime Primary Realtime Clock</Description><StartTime><Timestamp dt:dt=""int"">0</Timestamp><DateUtc dt:dt=""string"">2014-06-04T17:35:11Z</DateUtc></StartTime><FrequencyChanges><FrequencyChange><Frequency dt:dt=""r8"">2793040000</Frequency><Timestamp dt:dt=""r8"">281790947641761</Timestamp><Current dt:dt=""r8"">0</Current><DateUtc dt:dt=""string"">2014-06-04T17:35:11Z</DateUtc></FrequencyChange></FrequencyChanges></Clock>\n",60.03,1,-1310773526,0,,-999999,5,21893,t,181891,203784,6/4/2014,10:35:11,5:35:11 PM,2,Session2,SessionsList,0,,-999999,10,852576,t,34955,887531,832452,2,1,2,4,,1353041,,,4,1,4,,,,Cued2,MiniBlocks1,,,,,8,1,b,-999999,4,1466534,b,526,1467060,White,Congruent,b,Green,0,,0,7,1461536,,0,0,,,,8,1,8,,,,,,,Pictures\green.bmp,4000,4000,Pictures\black.bmp,,,,,,,,,,,,,StimulusPr,Pictures\right.bmp,CuedStim2,Right
POP_2,16064,1,"<?xml version=""1.0""?>\n<Clock xmlns:dt=""urn:schemas-microsoft-com:datatypes""><Description dt:dt=""string"">E-Prime Primary Realtime Clock</Description><StartTime><Timestamp dt:dt=""int"">0</Timestamp><DateUtc dt:dt=""string"">2014-06-04T17:35:11Z</DateUtc></StartTime><FrequencyChanges><FrequencyChange><Frequency dt:dt=""r8"">2793040000</Frequency><Timestamp dt:dt=""r8"">281790947641761</Timestamp><Current dt:dt=""r8"">0</Current><DateUtc dt:dt=""string"">2014-06-04T17:35:11Z</DateUtc></FrequencyChange></FrequencyChanges></Clock>\n",60.03,1,-1310773526,0,,-999999,5,21893,t,181891,203784,6/4/2014,10:35:11,5:35:11 PM,2,Session2,SessionsList,0,,-999999,10,852576,t,34955,887531,832452,2,1,2,4,,1353041,,,4,1,4,,,,Cued2,MiniBlocks1,,,,,9,1,b,-999999,12,1482542,b,730,1483272,White,Incongruent,b,Red,0,,0,17,1472547,,0,0,,,,9,1,9,,,,,,,Pictures\red.bmp,9000,10000,Pictures\left.bmp,,,,,,,,,,,,,StimulusPr,Pictures\black.bmp,CuedStim2,Left
POP_2,16064,1,"<?xml version=""1.0""?>\n<Clock xmlns:dt=""urn:schemas-microsoft-com:datatypes""><Description dt:dt=""string"">E-Prime Primary Realtime Clock</Description><StartTime><Timestamp dt:dt=""int"">0</Timestamp><DateUtc dt:dt=""string"">2014-06-04T17:35:11Z</DateUtc></StartTime><FrequencyChanges><FrequencyChange><Frequency dt:dt=""r8"">2793040000</Frequency><Timestamp dt:dt=""r8"">281790947641761</Timestamp><Current dt:dt=""r8"">0</Current><DateUtc dt:dt=""string"">2014-06-04T17:35:11Z</DateUtc></FrequencyChange></FrequencyChanges></Clock>\n",60.03,1,-1310773526,0,,-999999,5,21893,t,181891,203784,6/4/2014,10:35:11,5:35:11 PM,2,Session2,SessionsList,0,,-999999,10,852576,t,34955,887531,832452,2,1,2,4,,1353041,,,4,1,4,,,,Cued2,MiniBlocks1,,,,,10,1,r,-999999,18,1504548,r,556,1505104,White,Congruent,r,Green,0,,0,6,1494536,,0,0,,,,10,1,10,,,,,,,Pictures\green.bmp,9000,10000,Pictures\left.bmp,,,,,,,,,,,,,StimulusPr,Pictures\black.bmp,CuedStim2,Left
