ExperimentName,Subject,Session,Clock.Information,Display.RefreshRate,Group,RandomSeed,Session1Onset.ACC,Session1Onset.CRESP,Session1Onset.DurationError,Session1Onset.OnsetDelay,Session1Onset.OnsetTime,Session1Onset.RESP,Session1Onset.RT,Session1Onset.RTTime,SessionDate,SessionTime,SessionTimeUtc,Block,Procedure[Block],Running[Block],Session2Onset.ACC,Session2Onset.CRESP,Session2Onset.DurationError,Session2Onset.OnsetDelay,Session2Onset.OnsetTime,Session2Onset.RESP,Session2Onset.RT,Session2Onset.RTTime,SessionBreak.OnsetTime,SessionsList,SessionsList.Cycle,SessionsList.Sample,Trial,CuedPrompt1.OnsetTime,CuedPrompt2.OnsetTime,CuedPrompt3.OnsetTime,CuedPrompt4.OnsetTime,MiniBlocks1,MiniBlocks1.Cycle,MiniBlocks1.Sample,MiniBlocks2,MiniBlocks2.Cycle,MiniBlocks2.Sample,Procedure[Trial],Running[Trial],UncuedPrompt1.OnsetTime,UncuedPrompt2.OnsetTime,UncuedPrompt3.OnsetTime,UncuedPrompt4.OnsetTime,SubTrial,Arrow1.ACC,Arrow1.CRESP,Arrow1.DurationError,Arrow1.OnsetDelay,Arrow1.OnsetTime,Arrow1.RESP,Arrow1.RT,Arrow1.RTTime,ArrowColor,Congruence,CorrectResp,Cue,Cue.ACC,Cue.CRESP,Cue.DurationError,Cue.OnsetDelay,Cue.OnsetTime,Cue.RESP,Cue.RT,Cue.RTTime,CuedStim1,CuedStim1.Cycle,CuedStim1.Sample,CuedStim2,CuedStim2.Cycle,CuedStim2.Sample,CuedStim3,CuedStim3.Cycle,CuedStim3.Sample,CuedStim4,CuedStim4.Cycle,CuedStim4.Sample,CueImage,JitterCue,JitterTrial,LeftImage,NonCuedStim1,NonCuedStim1.Cycle,NonCuedStim1.Sample,NonCuedStim2,NonCuedStim2.Cycle,NonCuedStim2.Sample,NonCuedStim3,NonCuedStim3.Cycle,NonCuedStim3.Sample,NonCuedStim4,NonCuedStim4.Cycle,NonCuedStim4.Sample,Procedure[SubTrial],RightImage,Running[SubTrial],Stimulus
POP_2,27018,1,"<?xml version=""1.0""?>\n<Clock xmlns:dt=""urn:schemas-microsoft-com:datatypes""><Description dt:dt=""string"">E-Prime Primary Realtime Clock</Description><StartTime><Timestamp dt:dt=""int"">0</Timestamp><DateUtc dt:dt=""string"">2014-05-21T22:42:00Z</DateUtc></StartTime><FrequencyChanges><FrequencyChange><Frequency dt:dt=""r8"">2793030000</Frequency><Timestamp dt:dt=""r8"">3.42207729461381E+15</Timestamp><Current dt:dt=""r8"">0</Current><DateUtc dt:dt=""string"">2014-05-21T22:42:00Z</DateUtc></FrequencyChange></FrequencyChanges></Clock>\n",60.031,1,-1783402202,0,,-999999,1,14875,t,44662,59537,5/21/2014,15:42:00,,1,Session1,SessionsList,,,,,,,,,,1,1,1,1,59552,,,,1,1,1,,,,Cued1,MiniBlocks1,,,,,1,1,r,-999999,8,73545,r,742,74287,White,Congruent,r,Green,0,,0,12,68548,,0,0,1,1,1,,,,,,,,,,Pictures\green.bmp,4000,4000,Pictures\left.bmp,,,,,,,,,,,,,StimulusPr,Pictures\black.bmp,CuedStim1,Left
POP_2,27018,1,"<?xml version=""1.0""?>\n<Clock xmlns:dt=""urn:schemas-microsoft-com:datatypes""><Description dt:dt=""string"">E-Prime Primary Realtime Clock</Description><StartTime><Timestamp dt:dt=""int"">0</Timestamp><DateUtc dt:dt=""string"">2014-05-21T22:42:00Z</DateUtc></StartTime><FrequencyChanges><FrequencyChange><Frequency dt:dt=""r8"">2793030000</Frequency><Timestamp dt:dt=""r8"">3.42207729461381E+15</Timestamp><Current dt:dt=""r8"">0</Current><DateUtc dt:dt=""string"">2014-05-21T22:42:00Z</DateUtc></FrequencyChange></FrequencyChanges></Clock>\n",60.031,1,-1783402202,0,,-999999,1,14875,t,44662,59537,5/21/2014,15:42:00,,1,Session1,SessionsList,,,,,,,,,,1,1,1,1,59552,,,,1,1,1,,,,Cued1,MiniBlocks1,,,,,2,1,b,-999999,7,86539,b,395,86934,White,Congruent,b,Green,0,,0,9,79542,,0,0,2,1,2,,,,,,,,,,Pictures\green.bmp,6000,2000,Pictures\black.bmp,,,,,,,,,,,,,StimulusPr,Pictures\right.bmp,CuedStim1,Right
POP_2,27018,1,"<?xml version=""1.0""?>\n<Clock xmlns:dt=""urn:schemas-microsoft-com:datatypes""><Description dt:dt=""string"">E-Prime Primary Realtime Clock</Description><StartTime><Timestamp dt:dt=""int"">0</Timestamp><DateUtc dt:dt=""string"">2014-05-21T22:42:00Z</DateUtc></StartTime><FrequencyChanges><FrequencyChange><Frequency dt:dt=""r8"">2793030000</Frequency><Timestamp dt:dt=""r8"">3.42207729461381E+15</Timestamp><Current dt:dt=""r8"">0</Current><DateUtc dt:dt=""string"">2014-05-21T22:42:00Z</DateUtc></FrequencyChange></FrequencyChanges></Clock>\n",60.031,1,-1783402202,0,,-999999,1,14875,t,44662,59537,5/21/2014,15:42:00,,1,Session1,SessionsList,,,,,,,,,,1,1,1,1,59552,,,,1,1,1,,,,Cued1,MiniBlocks1,,,,,3,1,b,-999999,15,94552,b,385,94937,White,Congruent,b,Green,0,,0,7,90537,,0,0,3,1,3,,,,,,,,,,Pictures\green.bmp,3000,2000,Pictures\black.bmp,,,,,,,,,,,,,StimulusPr,Pictures\right.bmp,CuedStim1,Right
POP_2,27018,1,"<?xml version=""1.0""?>\n<Clock xmlns:dt=""urn:schemas-microsoft-com:datatypes""><Description dt:dt=""string"">E-Prime Primary Realtime Clock</Description><StartTime><Timestamp dt:dt=""int"">0</Timestamp><DateUtc dt:dt=""string"">2014-05-21T22:42:00Z</DateUtc></StartTime><FrequencyChanges><FrequencyChange><Frequency dt:dt=""r8"">2793030000</Frequency><Timestamp dt:dt=""r8"">3.42207729461381E+15</Timestamp><Current dt:dt=""r8"">0</Current><DateUtc dt:dt=""string"">2014-05-21T22:42:00Z</DateUtc></FrequencyChange></FrequencyChanges></Clock>\n",60.031,1,-1783402202,0,,-999999,1,14875,t,44662,59537,5/21/2014,15:42:00,,1,Session1,SessionsList,,,,,,,,,,1,1,1,1,59552,,,,1,1,1,,,,Cued1,MiniBlocks1,,,,,4,1,b,-999999,10,102531,b,1044,103575,White,Incongruent,b,Red,0,,0,5,98533,,0,0,4,1,4,,,,,,,,,,Pictures\red.bmp,3000,16000,Pictures\left.bmp,,,,,,,,,,,,,StimulusPr,Pictures\black.bmp,CuedStim1,Left
POP_2,27018,1,"<?xml version=""1.0""?>\n<Clock xmlns:dt=""urn:schemas-microsoft-com:datatypes""><Description dt:dt=""string"">E-Prime Primary Realtime Clock</Description><StartTime><Timestamp dt:dt=""int"">0</Timestamp><DateUtc dt:dt=""string"">2014-05-21T22:42:00Z</DateUtc></StartTime><FrequencyChanges><FrequencyChange><Frequency dt:dt=""r8"">2793030000</Frequency><Timestamp dt:dt=""r8"">3.42207729461381E+15</Timestamp><Current dt:dt=""r8"">0</Current><DateUtc dt:dt=""string"">2014-05-21T22:42:00Z</DateUtc></FrequencyChange></FrequencyChanges></Clock>\n",60.031,1,-1783402202,0,,-999999,1,14875,t,44662,59537,5/21/2014,15:42:00,,1,Session1,SessionsList,,,,,,,,,,1,1,1,1,59552,,,,1,1,1,,,,Cued1,MiniBlocks1,,,,,5,1,r,-999999,16,125553,r,737,126290,White,Congruent,r,Green,0,,0,14,121538,,0,0,5,1,5,,,,,,,,,,Pictures\green.bmp,3000,16000,Pictures\left.bmp,,,,,,,,,,,,,StimulusPr,Pictures\black.bmp,CuedStim1,Left
POP_2,27018,1,"<?xml version=""1.0""?>\n<Clock xmlns:dt=""urn:schemas-microsoft-com:datatypes""><Description dt:dt=""string"">E-Prime Primary Realtime Clock</Description><StartTime><Timestamp dt:dt=""int"">0</Timestamp><DateUtc dt:dt=""string"">2014-05-21T22:42:00Z</DateUtc></StartTime><FrequencyChanges><FrequencyChange><Frequency dt:dt=""r8"">2793030000</Frequency><Timestamp dt:dt=""r8"">3.42207729461381E+15</Timestamp><Current dt:dt=""r8"">0</Current><DateUtc dt:dt=""string"">2014-05-21T22:42:00Z</DateUtc></FrequencyChange></FrequencyChanges></Clock>\n",60.031,1,-1783402202,0,,-999999,1,14875,t,44662,59537,5/21/2014,15:42:00,,1,Session1,SessionsList,,,,,,,,,,1,1,1,1,59552,,,,1,1,1,,,,Cued1,MiniBlocks1,,,,,6,1,r,-999999,17,153539,r,569,154108,White,Congruent,r,Green,0,,0,6,143527,,0,0,6,1,6,,,,,,,,,,Pictures\green.bmp,9000,10000,Pictures\left.bmp,,,,,,,,,,,,,StimulusPr,Pictures\black.bmp,CuedStim1,Left
POP_2,27018,1,"<?xml version=""1.0""?>\n<Clock xmlns:dt=""urn:schemas-microsoft-com:datatypes""><Description dt:dt=""string"">E-Prime Primary Realtime Clock</Description><StartTime><Timestamp dt:dt=""int"">0</Timestamp><DateUtc dt:dt=""string"">2014-05-21T22:42:00Z</DateUtc></StartTime><FrequencyChanges><FrequencyChange><Frequency dt:dt=""r8"">2793030000</Frequency><Timestamp dt:dt=""r8"">3.42207729461381E+15</Timestamp><Current dt:dt=""r8"">0</Current><DateUtc dt:dt=""string"">2014-05-21T22:42:00Z</DateUtc></FrequencyChange></FrequencyChanges></Clock>\n",60.031,1,-1783402202,0,,-999999,1,14875,t,44662,59537,5/21/2014,15:42:00,,1,Session1,SessionsList,,,,,,,,,,1,1,1,1,59552,,,,1,1,1,,,,Cued1,MiniBlocks1,,,,,7,1,b,-999999,11,169548,b,427,169975,White,Congruent,b,Green,0,,0,12,165533,,0,0,7,1,7,,,,,,,,,,Pictures\green.bmp,3000,16000,Pictures\black.bmp,,,,,,,,,,,,,StimulusPr,Pictures\right.bmp,CuedStim1,Right
POP_2,27018,1,"<?xml version=""1.0""?>\n<Clock xmlns:dt=""urn:schemas-microsoft-com:datatypes""><Description dt:dt=""string"">E-Prime Primary Realtime Clock</Description><StartTime><Timestamp dt:dt=""int"">0</Timestamp><DateUtc dt:dt=""string"">2014-05-21T22:42:00Z</DateUtc></StartTime><FrequencyChanges><FrequencyChange><Frequency dt:dt=""r8"">2793030000</Frequency><Timestamp dt:dt=""r8"">3.42207729461381E+15</Timestamp><Current dt:dt=""r8"">0</Current><DateUtc dt:dt=""string"">2014-05-21T22:42:00Z</DateUtc></FrequencyChange></FrequencyChanges></Clock>\n",60.031,1,-1783402202,0,,-999999,1,14875,t,44662,59537,5/21/2014,15:42:00,,1,Session1,SessionsList,,,,,,,,,,1,1,1,1,59552,,,,1,1,1,,,,Cued1,MiniBlocks1,,,,,8,1,r,-999999,16,192553,r,685,193238,White,Incongruent,r,Red,0,,0,2,187539,,0,0,8,1,8,,,,,,,,,,Pictures\red.bmp,4000,2000,Pictures\black.bmp,,,,,,,,,,,,,StimulusPr,Pictures\right.bmp,CuedStim1,Right
POP_2,27018,1,"<?xml version=""1.0""?>\n<Clock xmlns:dt=""urn:schemas-microsoft-com:datatypes""><Description dt:dt=""string"">E-Prime Primary Realtime Clock</Description><StartTime><Timestamp dt:dt=""int"">0</Timestamp><DateUtc dt:dt=""string"">2014-05-21T22:42:00Z</DateUtc></StartTime><FrequencyChanges><FrequencyChange><Frequency dt:dt=""r8"">2793030000</Frequency><Timestamp dt:dt=""r8"">3.42207729461381E+15</Timestamp><Current dt:dt=""r8"">0</Current><DateUtc dt:dt=""string"">2014-05-21T22:42:00Z</DateUtc></FrequencyChange></FrequencyChanges></Clock>\n",60.031,1,-1783402202,0,,-999999,1,14875,t,44662,59537,5/21/2014,15:42:00,,1,Session1,SessionsList,,,,,,,,,,1,1,1,1,59552,,,,1,1,1,,,,Cued1,MiniBlocks1,,,,,9,1,b,-999999,11,201548,b,413,201961,White,Congruent,b,Green,0,,0,13,196534,,0,0,9,1,9,,,,,,,,,,Pictures\green.bmp,4000,2000,Pictures\black.bmp,,,,,,,,,,,,,StimulusPr,Pictures\right.bmp,CuedStim1,Right
POP_2,27018,1,"<?xml version=""1.0""?>\n<Clock xmlns:dt=""urn:schemas-microsoft-com:datatypes""><Description dt:dt=""string"">E-Prime Primary Realtime Clock</Description><StartTime><Timestamp dt:dt=""int"">0</Timestamp><DateUtc dt:dt=""string"">2014-05-21T22:42:00Z</DateUtc></StartTime><FrequencyChanges><FrequencyChange><Frequency dt:dt=""r8"">2793030000</Frequency><Timestamp dt:dt=""r8"">3.42207729461381E+15</Timestamp><Current dt:dt=""r8"">0</Current><DateUtc dt:dt=""string"">2014-05-21T22:42:00Z</DateUtc></FrequencyChange></FrequencyChanges></Clock>\n",60.031,1,-1783402202,0,,-999999,1,14875,t,44662,59537,5/21/2014,15:42:00,,1,Session1,SessionsList,,,,,,,,,,1,1,1,1,59552,,,,1,1,1,,,,Cued1,MiniBlocks1,,,,,10,1,r,-999999,7,209544,r,370,209914,White,Congruent,r,Green,0,,0,9,205530,,0,0,10,1,10,,,,,,,,,,Pictures\green.bmp,3000,2000,Pictures\left.bmp,,,,,,,,,,,,,StimulusPr,Pictures\black.bmp,CuedStim1,Left
POP_2,27018,1,"<?xml version=""1.0""?>\n<Clock xmlns:dt=""urn:schemas-microsoft-com:datatypes""><Description dt:dt=""string"">E-Prime Primary Realtime Clock</Description><StartTime><Timestamp dt:dt=""int"">0</Timestamp><DateUtc dt:dt=""string"">2014-05-21T22:42:00Z</DateUtc></StartTime><FrequencyChanges><FrequencyChange><Frequency dt:dt=""r8"">2793030000</Frequency><Timestamp dt:dt=""r8"">3.42207729461381E+15</Timestamp><Current dt:dt=""r8"">0</Current><DateUtc dt:dt=""string"">2014-05-21T22:42:00Z</DateUtc></FrequencyChange></FrequencyChanges></Clock>\n",60.031,1,-1783402202,0,,-999999,1,14875,t,44662,59537,5/21/2014,15:42:00,,1,Session1,SessionsList,,,,,,,,,,1,1,1,2,,,,,2,1,2,,,,NonCued1,MiniBlocks1,211943,,,,1,1,r,-999999,15,226536,r,538,227074,Green,Congruent,r,White,0,,0,10,221538,,0,0,,,,,,,,,,,,,Pictures\white.bmp,4000,2000,Pictures\GreenLeft.bmp,1,1,1,,,,,,,,,,StimulusPr,Pictures\black.bmp,NonCuedStim1,Left
POP_2,27018,1,"<?xml version=""1.0""?>\n<Clock xmlns:dt=""urn:schemas-microsoft-com:datatypes""><Description dt:dt=""string"">E-Prime Primary Realtime Clock</Description><StartTime><Timestamp dt:dt=""int"">0</Timestamp><DateUtc dt:dt=""string"">2014-05-21T22:42:00Z</DateUtc></StartTime><FrequencyChanges><FrequencyChange><Frequency dt:dt=""r8"">2793030000</Frequency><Timestamp dt:dt=""r8"">3.42207729461381E+15</Timestamp><Current dt:dt=""r8"">0</Current><DateUtc dt:dt=""string"">2014-05-21T22:42:00Z</DateUtc></FrequencyChange></FrequencyChanges></Clock>\n",60.031,1,-1783402202,0,,-999999,1,14875,t,44662,59537,5/21/2014,15:42:00,,1,Session1,SessionsList,,,,,,,,,,1,1,1,2,,,,,2,1,2,,,,NonCued1,MiniBlocks1,211943,,,,2,1,b,-999999,5,237530,b,594,238124,Green,Congruent,b,White,0,,0,9,230534,,0,0,,,,,,,,,,,,,Pictures\white.bmp,6000,16000,Pictures\black.bmp,2,1,2,,,,,,,,,,StimulusPr,Pictures\GreenRight.bmp,NonCuedStim1,Right
POP_2,27018,1,"<?xml version=""1.0""?>\n<Clock xmlns:dt=""urn:schemas-microsoft-com:datatypes""><Description dt:dt=""string"">E-Prime Primary Realtime Clock</Description><StartTime><Timestamp dt:dt=""int"">0</Timestamp><DateUtc dt:dt=""string"">2014-05-21T22:42:00Z</DateUtc></StartTime><FrequencyChanges><FrequencyChange><Frequency dt:dt=""r8"">2793030000</Frequency><Timestamp dt:dt=""r8"">3.42207729461381E+15</Timestamp><Current dt:dt=""r8"">0</Current><DateUtc dt:dt=""string"">2014-05-21T22:42:00Z</DateUtc></FrequencyChange></FrequencyChanges></Clock>\n",60.031,1,-1783402202,0,,-999999,1,14875,t,44662,59537,5/21/2014,15:42:00,,1,Session1,SessionsList,,,,,,,,,,1,1,1,2,,,,,2,1,2,,,,NonCued1,MiniBlocks1,211943,,,,3,1,r,-999999,10,262534,r,679,263213,Red,Incongruent,r,White,0,,0,2,255539,,0,0,,,,,,,,,,,,,Pictures\white.bmp,6000,10000,Pictures\black.bmp,3,1,3,,,,,,,,,,StimulusPr,Pictures\RedRight.bmp,NonCuedStim1,Right
POP_2,27018,1,"<?xml version=""1.0""?>\n<Clock xmlns:dt=""urn:schemas-microsoft-com:datatypes""><Description dt:dt=""string"">E-Prime Primary Realtime Clock</Description><StartTime><Timestamp dt:dt=""int"">0</Timestamp><DateUtc dt:dt=""string"">2014-05-21T22:42:00Z</DateUtc></StartTime><FrequencyChanges><FrequencyChange><Frequency dt:dt=""r8"">2793030000</Frequency><Timestamp dt:dt=""r8"">3.42207729461381E+15</Timestamp><Current dt:dt=""r8"">0</Current><DateUtc dt:dt=""string"">2014-05-21T22:42:00Z</DateUtc></FrequencyChange></FrequencyChanges></Clock>\n",60.031,1,-1783402202,0,,-999999,1,14875,t,44662,59537,5/21/2014,15:42:00,,1,Session1,SessionsList,,,,,,,,,,1,1,1,2,,,,,2,1,2,,,,NonCued1,MiniBlocks1,211943,,,,4,1,r,-999999,3,284540,r,396,284936,Green,Congruent,r,White,0,,0,8,274545,,0,0,,,,,,,,,,,,,Pictures\white.bmp,9000,10000,Pictures\GreenLeft.bmp,4,1,4,,,,,,,,,,StimulusPr,Pictures\black.bmp,NonCuedStim1,Left
POP_2,27018,1,"<?xml version=""1.0""?>\n<Clock xmlns:dt=""urn:schemas-microsoft-com:datatypes""><Description dt:dt=""string"">E-Prime Primary Realtime Clock</Description><StartTime><Timestamp dt:dt=""int"">0</Timestamp><DateUtc dt:dt=""string"">2014-05-21T22:42:00Z</DateUtc></StartTime><FrequencyChanges><FrequencyChange><Frequency dt:dt=""r8"">2793030000</Frequency><Timestamp dt:dt=""r8"">3.42207729461381E+15</Timestamp><Current dt:dt=""r8"">0</Current><DateUtc dt:dt=""string"">2014-05-21T22:42:00Z</DateUtc></FrequencyChange></FrequencyChanges></Clock>\n",60.031,1,-1783402202,0,,-999999,1,14875,t,44662,59537,5/21/2014,15:42:00,,1,Session1,SessionsList,,,,,,,,,,1,1,1,2,,,,,2,1,2,,,,NonCued1,MiniBlocks1,211943,,,,5,1,b,-999999,12,300549,b,680,301229,Green,Congruent,b,White,0,,0,14,296551,,0,0,,,,,,,,,,,,,Pictures\white.bmp,3000,2000,Pictures\black.bmp,5,1,5,,,,,,,,,,StimulusPr,Pictures\GreenRight.bmp,NonCuedStim1,Right
POP_2,27018,1,"<?xml version=""1.0""?>\n<Clock xmlns:dt=""urn:schemas-microsoft-com:datatypes""><Description dt:dt=""string"">E-Prime Primary Realtime Clock</Description><StartTime><Timestamp dt:dt=""int"">0</Timestamp><DateUtc dt:dt=""string"">2014-05-21T22:42:00Z</DateUtc></StartTime><FrequencyChanges><FrequencyChange><Frequency dt:dt=""r8"">2793030000</Frequency><Timestamp dt:dt=""r8"">3.42207729461381E+15</Timestamp><Current dt:dt=""r8"">0</Current><DateUtc dt:dt=""string"">2014-05-21T22:42:00Z</DateUtc></FrequencyChange></FrequencyChanges></Clock>\n",60.031,1,-1783402202,0,,-999999,1,14875,t,44662,59537,5/21/2014,15:42:00,,1,Session1,SessionsList,,,,,,,,,,1,1,1,2,,,,,2,1,2,,,,NonCued1,MiniBlocks1,211943,,,,6,1,b,-999999,7,309528,b,815,310343,Red,Incongruent,b,White,0,,0,10,304547,,0,0,,,,,,,,,,,,,Pictures\white.bmp,4000,16000,Pictures\RedLeft.bmp,6,1,6,,,,,,,,,,StimulusPr,Pictures\black.bmp,NonCuedStim1,Left
POP_2,27018,1,"<?xml version=""1.0""?>\n<Clock xmlns:dt=""urn:schemas-microsoft-com:datatypes""><Description dt:dt=""string"">E-Prime Primary Realtime Clock</Description><StartTime><Timestamp dt:dt=""int"">0</Timestamp><DateUtc dt:dt=""string"">2014-05-21T22:42:00Z</DateUtc></StartTime><FrequencyChanges><FrequencyChange><Frequency dt:dt=""r8"">2793030000</Frequency><Timestamp dt:dt=""r8"">3.42207729461381E+15</Timestamp><Current dt:dt=""r8"">0</Current><DateUtc dt:dt=""string"">2014-05-21T22:42:00Z</DateUtc></FrequencyChange></FrequencyChanges></Clock>\n",60.031,1,-1783402202,0,,-999999,1,14875,t,44662,59537,5/21/2014,15:42:00,,1,Session1,SessionsList,,,,,,,,,,1,1,1,2,,,,,2,1,2,,,,NonCued1,MiniBlocks1,211943,,,,7,1,b,-999999,9,331550,b,380,331930,Green,Congruent,b,White,0,,0,9,327535,,0,0,,,,,,,,,,,,,Pictures\white.bmp,3000,4000,Pictures\black.bmp,7,1,7,,,,,,,,,,StimulusPr,Pictures\GreenRight.bmp,NonCuedStim1,Right
POP_2,27018,1,"<?xml version=""1.0""?>\n<Clock xmlns:dt=""urn:schemas-microsoft-com:datatypes""><Description dt:dt=""string"">E-Prime Primary Realtime Clock</Description><StartTime><Timestamp dt:dt=""int"">0</Timestamp><DateUtc dt:dt=""string"">2014-05-21T22:42:00Z</DateUtc></StartTime><FrequencyChanges><FrequencyChange><Frequency dt:dt=""r8"">2793030000</Frequency><Timestamp dt:dt=""r8"">3.42207729461381E+15</Timestamp><Current dt:dt=""r8"">0</Current><DateUtc dt:dt=""string"">2014-05-21T22:42:00Z</DateUtc></FrequencyChange></FrequencyChanges></Clock>\n",60.031,1,-1783402202,0,,-999999,1,14875,t,44662,59537,5/21/2014,15:42:00,,1,Session1,SessionsList,,,,,,,,,,1,1,1,2,,,,,2,1,2,,,,NonCued1,MiniBlocks1,211943,,,,8,1,b,-999999,9,341545,b,485,342030,Green,Congruent,b,White,0,,0,11,337547,,0,0,,,,,,,,,,,,,Pictures\white.bmp,3000,4000,Pictures\black.bmp,8,1,8,,,,,,,,,,StimulusPr,Pictures\GreenRight.bmp,NonCuedStim1,Right
POP_2,27018,1,"<?xml version=""1.0""?>\n<Clock xmlns:dt=""urn:schemas-microsoft-com:datatypes""><Description dt:dt=""string"">E-Prime Primary Realtime Clock</Description><StartTime><Timestamp dt:dt=""int"">0</Timestamp><DateUtc dt:dt=""string"">2014-05-21T22:42:00Z</DateUtc></StartTime><FrequencyChanges><FrequencyChange><Frequency dt:dt=""r8"">2793030000</Frequency><Timestamp dt:dt=""r8"">3.42207729461381E+15</Timestamp><Current dt:dt=""r8"">0</Current><DateUtc dt:dt=""string"">2014-05-21T22:42:00Z</DateUtc></FrequencyChange></FrequencyChanges></Clock>\n",60.031,1,-1783402202,0,,-999999,1,14875,t,44662,59537,5/21/2014,15:42:00,,1,Session1,SessionsList,,,,,,,,,,1,1,1,2,,,,,2,1,2,,,,NonCued1,MiniBlocks1,211943,,,,9,1,b,-999999,18,357554,b,731,358285,Red,Incongruent,b,White,0,,0,6,347542,,0,0,,,,,,,,,,,,,Pictures\white.bmp,9000,2000,Pictures\RedLeft.bmp,9,1,9,,,,,,,,,,StimulusPr,Pictures\black.bmp,NonCuedStim1,Left
POP_2,27018,1,"<?xml version=""1.0""?>\n<Clock xmlns:dt=""urn:schemas-microsoft-com:datatypes""><Description dt:dt=""string"">E-Prime Primary Realtime Clock</Description><StartTime><Timestamp dt:dt=""int"">0</Timestamp><DateUtc dt:dt=""string"">2014-05-21T22:42:00Z</DateUtc></StartTime><FrequencyChanges><FrequencyChange><Frequency dt:dt=""r8"">2793030000</Frequency><Timestamp dt:dt=""r8"">3.42207729461381E+15</Timestamp><Current dt:dt=""r8"">0</Current><DateUtc dt:dt=""string"">2014-05-21T22:42:00Z</DateUtc></FrequencyChange></FrequencyChanges></Clock>\n",60.031,1,-1783402202,0,,-999999,1,14875,t,44662,59537,5/21/2014,15:42:00,,1,Session1,SessionsList,,,,,,,,,,1,1,1,2,,,,,2,1,2,,,,NonCued1,MiniBlocks1,211943,,,,10,1,r,-999999,11,368532,r,419,368951,Green,Congruent,r,White,0,,0,14,361535,,0,0,,,,,,,,,,,,,Pictures\white.bmp,6000,2000,Pictures\GreenLeft.bmp,10,1,10,,,,,,,,,,StimulusPr,Pictures\black.bmp,NonCuedStim1,Left
POP_2,27018,1,"<?xml version=""1.0""?>\n<Clock xmlns:dt=""urn:schemas-microsoft-com:datatypes""><Description dt:dt=""string"">E-Prime Primary Realtime Clock</Description><StartTime><Timestamp dt:dt=""int"">0</Timestamp><DateUtc dt:dt=""string"">2014-05-21T22:42:00Z</DateUtc></StartTime><FrequencyChanges><FrequencyChange><Frequency dt:dt=""r8"">2793030000</Frequency><Timestamp dt:dt=""r8"">3.42207729461381E+15</Timestamp><Current dt:dt=""r8"">0</Current><DateUtc dt:dt=""string"">2014-05-21T22:42:00Z</DateUtc></FrequencyChange></FrequencyChanges></Clock>\n",60.031,1,-1783402202,0,,-999999,1,14875,t,44662,59537,5/21/2014,15:42:00,,1,Session1,SessionsList,,,,,,,,,,1,1,1,3,,,,,3,1,3,,,,NonCued2,MiniBlocks1,,370980,,,1,1,b,-999999,16,390537,b,602,391139,Green,Congruent,b,White,0,,0,5,380526,,0,0,,,,,,,,,,,,,Pictures\white.bmp,9000,10000,Pictures\black.bmp,,,,1,1,1,,,,,,,StimulusPr,Pictures\GreenRight.bmp,NonCuedStim2,Right
POP_2,27018,1,"<?xml version=""1.0""?>\n<Clock xmlns:dt=""urn:schemas-microsoft-com:datatypes""><Description dt:dt=""string"">E-Prime Primary Realtime Clock</Description><StartTime><Timestamp dt:dt=""int"">0</Timestamp><DateUtc dt:dt=""string"">2014-05-21T22:42:00Z</DateUtc></StartTime><FrequencyChanges><FrequencyChange><Frequency dt:dt=""r8"">2793030000</Frequency><Timestamp dt:dt=""r8"">3.42207729461381E+15</Timestamp><Current dt:dt=""r8"">0</Current><DateUtc dt:dt=""string"">2014-05-21T22:42:00Z</DateUtc></FrequencyChange></FrequencyChanges></Clock>\n",60.031,1,-1783402202,0,,-999999,1,14875,t,44662,59537,5/21/2014,15:42:00,,1,Session1,SessionsList,,,,,,,,,,1,1,1,3,,,,,3,1,3,,,,NonCued2,MiniBlocks1,,370980,,,2,1,r,-999999,10,406546,r,434,406980,Green,Congruent,r,White,0,,0,12,402548,,0,0,,,,,,,,,,,,,Pictures\white.bmp,3000,2000,Pictures\GreenLeft.bmp,,,,2,1,2,,,,,,,StimulusPr,Pictures\black.bmp,NonCuedStim2,Left
POP_2,27018,1,"<?xml version=""1.0""?>\n<Clock xmlns:dt=""urn:schemas-microsoft-com:datatypes""><Description dt:dt=""string"">E-Prime Primary Realtime Clock</Description><StartTime><Timestamp dt:dt=""int"">0</Timestamp><DateUtc dt:dt=""string"">2014-05-21T22:42:00Z</DateUtc></StartTime><FrequencyChanges><FrequencyChange><Frequency dt:dt=""r8"">2793030000</Frequency><Timestamp dt:dt=""r8"">3.42207729461381E+15</Timestamp><Current dt:dt=""r8"">0</Current><DateUtc dt:dt=""string"">2014-05-21T22:42:00Z</DateUtc></FrequencyChange></FrequencyChanges></Clock>\n",60.031,1,-1783402202,0,,-999999,1,14875,t,44662,59537,5/21/2014,15:42:00,,1,Session1,SessionsList,,,,,,,,,,1,1,1,3,,,,,3,1,3,,,,NonCued2,MiniBlocks1,,370980,,,3,1,r,-999999,6,414542,r,689,415231,Red,Incongruent,r,White,0,,0,8,410544,,0,0,,,,,,,,,,,,,Pictures\white.bmp,3000,2000,Pictures\black.bmp,,,,3,1,3,,,,,,,StimulusPr,Pictures\RedRight.bmp,NonCuedStim2,Right
POP_2,27018,1,"<?xml version=""1.0""?>\n<Clock xmlns:dt=""urn:schemas-microsoft-com:datatypes""><Description dt:dt=""string"">E-Prime Primary Realtime Clock</Description><StartTime><Timestamp dt:dt=""int"">0</Timestamp><DateUtc dt:dt=""string"">2014-05-21T22:42:00Z</DateUtc></StartTime><FrequencyChanges><FrequencyChange><Frequency dt:dt=""r8"">2793030000</Frequency><Timestamp dt:dt=""r8"">3.42207729461381E+15</Timestamp><Current dt:dt=""r8"">0</Current><DateUtc dt:dt=""string"">2014-05-21T22:42:00Z</DateUtc></FrequencyChange></FrequencyChanges></Clock>\n",60.031,1,-1783402202,0,,-999999,1,14875,t,44662,59537,5/21/2014,15:42:00,,1,Session1,SessionsList,,,,,,,,,,1,1,1,3,,,,,3,1,3,,,,NonCued2,MiniBlocks1,,370980,,,4,1,r,-999999,3,423537,r,582,424119,Green,Congruent,r,White,0,,0,4,418540,,0,0,,,,,,,,,,,,,Pictures\white.bmp,4000,16000,Pictures\GreenLeft.bmp,,,,4,1,4,,,,,,,StimulusPr,Pictures\black.bmp,NonCuedStim2,Left
POP_2,27018,1,"<?xml version=""1.0""?>\n<Clock xmlns:dt=""urn:schemas-microsoft-com:datatypes""><Description dt:dt=""string"">E-Prime Primary Realtime Clock</Description><StartTime><Timestamp dt:dt=""int"">0</Timestamp><DateUtc dt:dt=""string"">2014-05-21T22:42:00Z</DateUtc></StartTime><FrequencyChanges><FrequencyChange><Frequency dt:dt=""r8"">2793030000</Frequency><Timestamp dt:dt=""r8"">3.42207729461381E+15</Timestamp><Current dt:dt=""r8"">0</Current><DateUtc dt:dt=""string"">2014-05-21T22:42:00Z</DateUtc></FrequencyChange></FrequencyChanges></Clock>\n",60.031,1,-1783402202,0,,-999999,1,14875,t,44662,59537,5/21/2014,15:42:00,,1,Session1,SessionsList,,,,,,,,,,1,1,1,3,,,,,3,1,3,,,,NonCued2,MiniBlocks1,,370980,,,5,1,r,-999999,4,448525,r,356,448881,Green,Congruent,r,White,0,,0,9,441545,,0,0,,,,,,,,,,,,,Pictures\white.bmp,6000,4000,Pictures\GreenLeft.bmp,,,,5,1,5,,,,,,,StimulusPr,Pictures\black.bmp,NonCuedStim2,Left
POP_2,27018,1,"<?xml version=""1.0""?>\n<Clock xmlns:dt=""urn:schemas-microsoft-com:datatypes""><Description dt:dt=""string"">E-Prime Primary Realtime Clock</Description><StartTime><Timestamp dt:dt=""int"">0</Timestamp><DateUtc dt:dt=""string"">2014-05-21T22:42:00Z</DateUtc></StartTime><FrequencyChanges><FrequencyChange><Frequency dt:dt=""r8"">2793030000</Frequency><Timestamp dt:dt=""r8"">3.42207729461381E+15</Timestamp><Current dt:dt=""r8"">0</Current><DateUtc dt:dt=""string"">2014-05-21T22:42:00Z</DateUtc></FrequencyChange></FrequencyChanges></Clock>\n",60.031,1,-1783402202,0,,-999999,1,14875,t,44662,59537,5/21/2014,15:42:00,,1,Session1,SessionsList,,,,,,,,,,1,1,1,3,,,,,3,1,3,,,,NonCued2,MiniBlocks1,,370980,,,6,1,b,-999999,7,458537,b,573,459110,Red,Incongruent,b,White,0,,0,16,454539,,0,0,,,,,,,,,,,,,Pictures\white.bmp,3000,4000,Pictures\RedLeft.bmp,,,,6,1,6,,,,,,,StimulusPr,Pictures\black.bmp,NonCuedStim2,Left
POP_2,27018,1,"<?xml version=""1.0""?>\n<Clock xmlns:dt=""urn:schemas-microsoft-com:datatypes""><Description dt:dt=""string"">E-Prime Primary Realtime Clock</Description><StartTime><Timestamp dt:dt=""int"">0</Timestamp><DateUtc dt:dt=""string"">2014-05-21T22:42:00Z</DateUtc></StartTime><FrequencyChanges><FrequencyChange><Frequency dt:dt=""r8"">2793030000</Frequency><Timestamp dt:dt=""r8"">3.42207729461381E+15</Timestamp><Current dt:dt=""r8"">0</Current><DateUtc dt:dt=""string"">2014-05-21T22:42:00Z</DateUtc></FrequencyChange></FrequencyChanges></Clock>\n",60.031,1,-1783402202,0,,-999999,1,14875,t,44662,59537,5/21/2014,15:42:00,,1,Session1,SessionsList,,,,,,,,,,1,1,1,3,,,,,3,1,3,,,,NonCued2,MiniBlocks1,,370980,,,7,1,b,-999999,12,469548,b,764,470312,Green,Congruent,b,White,0,,0,16,464550,,0,0,,,,,,,,,,,,,Pictures\white.bmp,4000,16000,Pictures\black.bmp,,,,7,1,7,,,,,,,StimulusPr,Pictures\GreenRight.bmp,NonCuedStim2,Right
POP_2,27018,1,"<?xml version=""1.0""?>\n<Clock xmlns:dt=""urn:schemas-microsoft-com:datatypes""><Description dt:dt=""string"">E-Prime Primary Realtime Clock</Description><StartTime><Timestamp dt:dt=""int"">0</Timestamp><DateUtc dt:dt=""string"">2014-05-21T22:42:00Z</DateUtc></StartTime><FrequencyChanges><FrequencyChange><Frequency dt:dt=""r8"">2793030000</Frequency><Timestamp dt:dt=""r8"">3.42207729461381E+15</Timestamp><Current dt:dt=""r8"">0</Current><DateUtc dt:dt=""string"">2014-05-21T22:42:00Z</DateUtc></FrequencyChange></FrequencyChanges></Clock>\n",60.031,1,-1783402202,0,,-999999,1,14875,t,44662,59537,5/21/2014,15:42:00,,1,Session1,SessionsList,,,,,,,,,,1,1,1,3,,,,,3,1,3,,,,NonCued2,MiniBlocks1,,370980,,,8,1,r,-999999,14,497550,r,415,497965,Green,Congruent,r,White,0,,0,3,487539,,0,0,,,,,,,,,,,,,Pictures\white.bmp,9000,2000,Pictures\GreenLeft.bmp,,,,8,1,8,,,,,,,StimulusPr,Pictures\black.bmp,NonCuedStim2,Left
POP_2,27018,1,"<?xml version=""1.0""?>\n<Clock xmlns:dt=""urn:schemas-microsoft-com:datatypes""><Description dt:dt=""string"">E-Prime Primary Realtime Clock</Description><StartTime><Timestamp dt:dt=""int"">0</Timestamp><DateUtc dt:dt=""string"">2014-05-21T22:42:00Z</DateUtc></StartTime><FrequencyChanges><FrequencyChange><Frequency dt:dt=""r8"">2793030000</Frequency><Timestamp dt:dt=""r8"">3.42207729461381E+15</Timestamp><Current dt:dt=""r8"">0</Current><DateUtc dt:dt=""string"">2014-05-21T22:42:00Z</DateUtc></FrequencyChange></FrequencyChanges></Clock>\n",60.031,1,-1783402202,0,,-999999,1,14875,t,44662,59537,5/21/2014,15:42:00,,1,Session1,SessionsList,,,,,,,,,,1,1,1,3,,,,,3,1,3,,,,NonCued2,MiniBlocks1,,370980,,,9,1,b,-999999,5,505546,b,377,505923,Green,Congruent,b,White,0,,0,12,501548,,0,0,,,,,,,,,,,,,Pictures\white.bmp,3000,10000,Pictures\black.bmp,,,,9,1,9,,,,,,,StimulusPr,Pictures\GreenRight.bmp,NonCuedStim2,Right
POP_2,27018,1,"<?xml version=""1.0""?>\n<Clock xmlns:dt=""urn:schemas-microsoft-com:datatypes""><Description dt:dt=""string"">E-Prime Primary Realtime Clock</Description><StartTime><Timestamp dt:dt=""int"">0</Timestamp><DateUtc dt:dt=""string"">2014-05-21T22:42:00Z</DateUtc></StartTime><FrequencyChanges><FrequencyChange><Frequency dt:dt=""r8"">2793030000</Frequency><Timestamp dt:dt=""r8"">3.42207729461381E+15</Timestamp><Current dt:dt=""r8"">0</Current><DateUtc dt:dt=""string"">2014-05-21T22:42:00Z</DateUtc></FrequencyChange></FrequencyChanges></Clock>\n",60.031,1,-1783402202,0,,-999999,1,14875,t,44662,59537,5/21/2014,15:42:00,,1,Session1,SessionsList,,,,,,,,,,1,1,1,3,,,,,3,1,3,,,,NonCued2,MiniBlocks1,,370980,,,10,1,b,-999999,3,521539,b,483,522022,Green,Congruent,b,White,0,,0,16,517557,,0,0,,,,,,,,,,,,,Pictures\white.bmp,3000,2000,Pictures\black.bmp,,,,10,1,10,,,,,,,StimulusPr,Pictures\GreenRight.bmp,NonCuedStim2,Right
POP_2,27018,1,"<?xml version=""1.0""?>\n<Clock xmlns:dt=""urn:schemas-microsoft-com:datatypes""><Description dt:dt=""string"">E-Prime Primary Realtime Clock</Description><StartTime><Timestamp dt:dt=""int"">0</Timestamp><DateUtc dt:dt=""string"">2014-05-21T22:42:00Z</DateUtc></StartTime><FrequencyChanges><FrequencyChange><Frequency dt:dt=""r8"">2793030000</Frequency><Timestamp dt:dt=""r8"">3.42207729461381E+15</Timestamp><Current dt:dt=""r8"">0</Current><DateUtc dt:dt=""string"">2014-05-21T22:42:00Z</DateUtc></FrequencyChange></FrequencyChanges></Clock>\n",60.031,1,-1783402202,0,,-999999,1,14875,t,44662,59537,5/21/2014,15:42:00,,1,Session1,SessionsList,,,,,,,,,,1,1,1,4,,524054,,,4,1,4,,,,Cued2,MiniBlocks1,,,,,1,1,b,-999999,5,541528,b,398,541926,White,Congruent,b,Green,0,,0,15,534549,,0,0,,,,1,1,1,,,,,,,Pictures\green.bmp,6000,4000,Pictures\black.bmp,,,,,,,,,,,,,StimulusPr,Pictures\right.bmp,CuedStim2,Right
POP_2,27018,1,"<?xml version=""1.0""?>\n<Clock xmlns:dt=""urn:schemas-microsoft-com:datatypes""><Description dt:dt=""string"">E-Prime Primary Realtime Clock</Description><StartTime><Timestamp dt:dt=""int"">0</Timestamp><DateUtc dt:dt=""string"">2014-05-21T22:42:00Z</DateUtc></StartTime><FrequencyChanges><FrequencyChange><Frequency dt:dt=""r8"">2793030000</Frequency><Timestamp dt:dt=""r8"">3.42207729461381E+15</Timestamp><Current dt:dt=""r8"">0</Current><DateUtc dt:dt=""string"">2014-05-21T22:42:00Z</DateUtc></FrequencyChange></FrequencyChanges></Clock>\n",60.031,1,-1783402202,0,,-999999,1,14875,t,44662,59537,5/21/2014,15:42:00,,1,Session1,SessionsList,,,,,,,,,,1,1,1,4,,524054,,,4,1,4,,,,Cued2,MiniBlocks1,,,,,2,1,b,-999999,16,557537,b,398,557935,White,Congruent,b,Green,0,,0,4,547525,,0,0,,,,2,1,2,,,,,,,Pictures\green.bmp,9000,10000,Pictures\black.bmp,,,,,,,,,,,,,StimulusPr,Pictures\right.bmp,CuedStim2,Right
POP_2,27018,1,"<?xml version=""1.0""?>\n<Clock xmlns:dt=""urn:schemas-microsoft-com:datatypes""><Description dt:dt=""string"">E-Prime Primary Realtime Clock</Description><StartTime><Timestamp dt:dt=""int"">0</Timestamp><DateUtc dt:dt=""string"">2014-05-21T22:42:00Z</DateUtc></StartTime><FrequencyChanges><FrequencyChange><Frequency dt:dt=""r8"">2793030000</Frequency><Timestamp dt:dt=""r8"">3.42207729461381E+15</Timestamp><Current dt:dt=""r8"">0</Current><DateUtc dt:dt=""string"">2014-05-21T22:42:00Z</DateUtc></FrequencyChange></FrequencyChanges></Clock>\n",60.031,1,-1783402202,0,,-999999,1,14875,t,44662,59537,5/21/2014,15:42:00,,1,Session1,SessionsList,,,,,,,,,,1,1,1,4,,524054,,,4,1,4,,,,Cued2,MiniBlocks1,,,,,3,1,r,-999999,10,573546,r,622,574168,White,Incongruent,r,Red,0,,0,12,569548,,0,0,,,,3,1,3,,,,,,,Pictures\red.bmp,3000,2000,Pictures\black.bmp,,,,,,,,,,,,,StimulusPr,Pictures\right.bmp,CuedStim2,Right
POP_2,27018,1,"<?xml version=""1.0""?>\n<Clock xmlns:dt=""urn:schemas-microsoft-com:datatypes""><Description dt:dt=""string"">E-Prime Primary Realtime Clock</Description><StartTime><Timestamp dt:dt=""int"">0</Timestamp><DateUtc dt:dt=""string"">2014-05-21T22:42:00Z</DateUtc></StartTime><FrequencyChanges><FrequencyChange><Frequency dt:dt=""r8"">2793030000</Frequency><Timestamp dt:dt=""r8"">3.42207729461381E+15</Timestamp><Current dt:dt=""r8"">0</Current><DateUtc dt:dt=""string"">2014-05-21T22:42:00Z</DateUtc></FrequencyChange></FrequencyChanges></Clock>\n",60.031,1,-1783402202,0,,-999999,1,14875,t,44662,59537,5/21/2014,15:42:00,,1,Session1,SessionsList,,,,,,,,,,1,1,1,4,,524054,,,4,1,4,,,,Cued2,MiniBlocks1,,,,,4,1,r,-999999,4,584540,r,874,585414,White,Congruent,r,Green,0,,0,8,577544,,0,0,,,,4,1,4,,,,,,,Pictures\green.bmp,6000,16000,Pictures\left.bmp,,,,,,,,,,,,,StimulusPr,Pictures\black.bmp,CuedStim2,Left
POP_2,27018,1,"<?xml version=""1.0""?>\n<Clock xmlns:dt=""urn:schemas-microsoft-com:datatypes""><Description dt:dt=""string"">E-Prime Primary Realtime Clock</Description><StartTime><Timestamp dt:dt=""int"">0</Timestamp><DateUtc dt:dt=""string"">2014-05-21T22:42:00Z</DateUtc></StartTime><FrequencyChanges><FrequencyChange><Frequency dt:dt=""r8"">2793030000</Frequency><Timestamp dt:dt=""r8"">3.42207729461381E+15</Timestamp><Current dt:dt=""r8"">0</Current><DateUtc dt:dt=""string"">2014-05-21T22:42:00Z</DateUtc></FrequencyChange></FrequencyChanges></Clock>\n",60.031,1,-1783402202,0,,-999999,1,14875,t,44662,59537,5/21/2014,15:42:00,,1,Session1,SessionsList,,,,,,,,,,1,1,1,4,,524054,,,4,1,4,,,,Cued2,MiniBlocks1,,,,,5,1,b,-999999,10,606546,b,532,607078,White,Congruent,b,Green,0,,0,12,602548,,0,0,,,,5,1,5,,,,,,,Pictures\green.bmp,3000,2000,Pictures\black.bmp,,,,,,,,,,,,,StimulusPr,Pictures\right.bmp,CuedStim2,Right
POP_2,27018,1,"<?xml version=""1.0""?>\n<Clock xmlns:dt=""urn:schemas-microsoft-com:datatypes""><Description dt:dt=""string"">E-Prime Primary Realtime Clock</Description><StartTime><Timestamp dt:dt=""int"">0</Timestamp><DateUtc dt:dt=""string"">2014-05-21T22:42:00Z</DateUtc></StartTime><FrequencyChanges><FrequencyChange><Frequency dt:dt=""r8"">2793030000</Frequency><Timestamp dt:dt=""r8"">3.42207729461381E+15</Timestamp><Current dt:dt=""r8"">0</Current><DateUtc dt:dt=""string"">2014-05-21T22:42:00Z</DateUtc></FrequencyChange></FrequencyChanges></Clock>\n",60.031,1,-1783402202,0,,-999999,1,14875,t,44662,59537,5/21/2014,15:42:00,,1,Session1,SessionsList,,,,,,,,,,1,1,1,4,,524054,,,4,1,4,,,,Cued2,MiniBlocks1,,,,,6,1,r,-999999,6,614542,r,542,615084,White,Congruent,r,Green,0,,0,3,610544,,0,0,,,,6,1,6,,,,,,,Pictures\green.bmp,3000,2000,Pictures\left.bmp,,,,,,,,,,,,,StimulusPr,Pictures\black.bmp,CuedStim2,Left
POP_2,27018,1,"<?xml version=""1.0""?>\n<Clock xmlns:dt=""urn:schemas-microsoft-com:datatypes""><Description dt:dt=""string"">E-Prime Primary Realtime Clock</Description><StartTime><Timestamp dt:dt=""int"">0</Timestamp><DateUtc dt:dt=""string"">2014-05-21T22:42:00Z</DateUtc></StartTime><FrequencyChanges><FrequencyChange><Frequency dt:dt=""r8"">2793030000</Frequency><Timestamp dt:dt=""r8"">3.42207729461381E+15</Timestamp><Current dt:dt=""r8"">0</Current><DateUtc dt:dt=""string"">2014-05-21T22:42:00Z</DateUtc></FrequencyChange></FrequencyChanges></Clock>\n",60.031,1,-1783402202,0,,-999999,1,14875,t,44662,59537,5/21/2014,15:42:00,,1,Session1,SessionsList,,,,,,,,,,1,1,1,4,,524054,,,4,1,4,,,,Cued2,MiniBlocks1,,,,,7,1,b,-999999,17,625553,b,596,626149,White,Incongruent,b,Red,0,,0,4,618540,,0,0,,,,7,1,7,,,,,,,Pictures\red.bmp,6000,4000,Pictures\left.bmp,,,,,,,,,,,,,StimulusPr,Pictures\black.bmp,CuedStim2,Left
POP_2,27018,1,"<?xml version=""1.0""?>\n<Clock xmlns:dt=""urn:schemas-microsoft-com:datatypes""><Description dt:dt=""string"">E-Prime Primary Realtime Clock</Description><StartTime><Timestamp dt:dt=""int"">0</Timestamp><DateUtc dt:dt=""string"">2014-05-21T22:42:00Z</DateUtc></StartTime><FrequencyChanges><FrequencyChange><Frequency dt:dt=""r8"">2793030000</Frequency><Timestamp dt:dt=""r8"">3.42207729461381E+15</Timestamp><Current dt:dt=""r8"">0</Current><DateUtc dt:dt=""string"">2014-05-21T22:42:00Z</DateUtc></FrequencyChange></FrequencyChanges></Clock>\n",60.031,1,-1783402202,0,,-999999,1,14875,t,44662,59537,5/21/2014,15:42:00,,1,Session1,SessionsList,,,,,,,,,,1,1,1,4,,524054,,,4,1,4,,,,Cued2,MiniBlocks1,,,,,8,1,b,-999999,12,636548,b,473,637021,White,Congruent,b,Green,0,,0,14,631550,,0,0,,,,8,1,8,,,,,,,Pictures\green.bmp,4000,4000,Pictures\black.bmp,,,,,,,,,,,,,StimulusPr,Pictures\right.bmp,CuedStim2,Right
POP_2,27018,1,"<?xml version=""1.0""?>\n<Clock xmlns:dt=""urn:schemas-microsoft-com:datatypes""><Description dt:dt=""string"">E-Prime Primary Realtime Clock</Description><StartTime><Timestamp dt:dt=""int"">0</Timestamp><DateUtc dt:dt=""string"">2014-05-21T22:42:00Z</DateUtc></StartTime><FrequencyChanges><FrequencyChange><Frequency dt:dt=""r8"">2793030000</Frequency><Timestamp dt:dt=""r8"">3.42207729461381E+15</Timestamp><Current dt:dt=""r8"">0</Current><DateUtc dt:dt=""string"">2014-05-21T22:42:00Z</DateUtc></FrequencyChange></FrequencyChanges></Clock>\n",60.031,1,-1783402202,0,,-999999,1,14875,t,44662,59537,5/21/2014,15:42:00,,1,Session1,SessionsList,,,,,,,,,,1,1,1,4,,524054,,,4,1,4,,,,Cued2,MiniBlocks1,,,,,9,1,b,-999999,4,652540,b,719,653259,White,Incongruent,b,Red,0,,0,5,642545,,0,0,,,,9,1,9,,,,,,,Pictures\red.bmp,9000,10000,Pictures\left.bmp,,,,,,,,,,,,,StimulusPr,Pictures\black.bmp,CuedStim2,Left
POP_2,27018,1,"<?xml version=""1.0""?>\n<Clock xmlns:dt=""urn:schemas-microsoft-com:datatypes""><Description dt:dt=""string"">E-Prime Primary Realtime Clock</Description><StartTime><Timestamp dt:dt=""int"">0</Timestamp><DateUtc dt:dt=""string"">2014-05-21T22:42:00Z</DateUtc></StartTime><FrequencyChanges><FrequencyChange><Frequency dt:dt=""r8"">2793030000</Frequency><Timestamp dt:dt=""r8"">3.42207729461381E+15</Timestamp><Current dt:dt=""r8"">0</Current><DateUtc dt:dt=""string"">2014-05-21T22:42:00Z</DateUtc></FrequencyChange></FrequencyChanges></Clock>\n",60.031,1,-1783402202,0,,-999999,1,14875,t,44662,59537,5/21/2014,15:42:00,,1,Session1,SessionsList,,,,,,,,,,1,1,1,4,,524054,,,4,1,4,,,,Cued2,MiniBlocks1,,,,,10,1,r,-999999,9,674545,r,497,675042,White,Congruent,r,Green,0,,0,14,664550,,0,0,,,,10,1,10,,,,,,,Pictures\green.bmp,9000,10000,Pictures\left.bmp,,,,,,,,,,,,,StimulusPr,Pictures\black.bmp,CuedStim2,Left
POP_2,27018,1,"<?xml version=""1.0""?>\n<Clock xmlns:dt=""urn:schemas-microsoft-com:datatypes""><Description dt:dt=""string"">E-Prime Primary Realtime Clock</Description><StartTime><Timestamp dt:dt=""int"">0</Timestamp><DateUtc dt:dt=""string"">2014-05-21T22:42:00Z</DateUtc></StartTime><FrequencyChanges><FrequencyChange><Frequency dt:dt=""r8"">2793030000</Frequency><Timestamp dt:dt=""r8"">3.42207729461381E+15</Timestamp><Current dt:dt=""r8"">0</Current><DateUtc dt:dt=""string"">2014-05-21T22:42:00Z</DateUtc></FrequencyChange></FrequencyChanges></Clock>\n",60.031,1,-1783402202,0,,-999999,1,14875,t,44662,59537,5/21/2014,15:42:00,,2,Session2,SessionsList,0,,-999999,3,699133,t,33231,732364,685057,2,1,2,1,,,,,,,,1,1,1,NonCued3,MiniBlocks2,,,732367,,1,1,b,-999999,11,752373,b,433,752806,Green,Congruent,b,White,0,,0,14,742378,,0,0,,,,,,,,,,,,,Pictures\white.bmp,9000,10000,Pictures\black.bmp,,,,,,,1,1,1,,,,StimulusPr,Pictures\GreenRight.bmp,NonCuedStim3,Right
POP_2,27018,1,"<?xml version=""1.0""?>\n<Clock xmlns:dt=""urn:schemas-microsoft-com:datatypes""><Description dt:dt=""string"">E-Prime Primary Realtime Clock</Description><StartTime><Timestamp dt:dt=""int"">0</Timestamp><DateUtc dt:dt=""string"">2014-05-21T22:42:00Z</DateUtc></StartTime><FrequencyChanges><FrequencyChange><Frequency dt:dt=""r8"">2793030000</Frequency><Timestamp dt:dt=""r8"">3.42207729461381E+15</Timestamp><Current dt:dt=""r8"">0</Current><DateUtc dt:dt=""string"">2014-05-21T22:42:00Z</DateUtc></FrequencyChange></FrequencyChanges></Clock>\n",60.031,1,-1783402202,0,,-999999,1,14875,t,44662,59537,5/21/2014,15:42:00,,2,Session2,SessionsList,0,,-999999,3,699133,t,33231,732364,685057,2,1,2,1,,,,,,,,1,1,1,NonCued3,MiniBlocks2,,,732367,,2,1,r,-999999,19,774396,r,653,775049,Red,Incongruent,r,White,0,,0,3,764367,,0,0,,,,,,,,,,,,,Pictures\white.bmp,9000,10000,Pictures\black.bmp,,,,,,,2,1,2,,,,StimulusPr,Pictures\RedRight.bmp,NonCuedStim3,Right
POP_2,27018,1,"<?xml version=""1.0""?>\n<Clock xmlns:dt=""urn:schemas-microsoft-com:datatypes""><Description dt:dt=""string"">E-Prime Primary Realtime Clock</Description><StartTime><Timestamp dt:dt=""int"">0</Timestamp><DateUtc dt:dt=""string"">2014-05-21T22:42:00Z</DateUtc></StartTime><FrequencyChanges><FrequencyChange><Frequency dt:dt=""r8"">2793030000</Frequency><Timestamp dt:dt=""r8"">3.42207729461381E+15</Timestamp><Current dt:dt=""r8"">0</Current><DateUtc dt:dt=""string"">2014-05-21T22:42:00Z</DateUtc></FrequencyChange></FrequencyChanges></Clock>\n",60.031,1,-1783402202,0,,-999999,1,14875,t,44662,59537,5/21/2014,15:42:00,,2,Session2,SessionsList,0,,-999999,3,699133,t,33231,732364,685057,2,1,2,1,,,,,,,,1,1,1,NonCued3,MiniBlocks2,,,732367,,3,1,r,-999999,6,791370,r,750,792120,Green,Congruent,r,White,0,,0,10,786373,,0,0,,,,,,,,,,,,,Pictures\white.bmp,4000,4000,Pictures\GreenLeft.bmp,,,,,,,3,1,3,,,,StimulusPr,Pictures\black.bmp,NonCuedStim3,Left
POP_2,27018,1,"<?xml version=""1.0""?>\n<Clock xmlns:dt=""urn:schemas-microsoft-com:datatypes""><Description dt:dt=""string"">E-Prime Primary Realtime Clock</Description><StartTime><Timestamp dt:dt=""int"">0</Timestamp><DateUtc dt:dt=""string"">2014-05-21T22:42:00Z</DateUtc></StartTime><FrequencyChanges><FrequencyChange><Frequency dt:dt=""r8"">2793030000</Frequency><Timestamp dt:dt=""r8"">3.42207729461381E+15</Timestamp><Current dt:dt=""r8"">0</Current><DateUtc dt:dt=""string"">2014-05-21T22:42:00Z</DateUtc></FrequencyChange></FrequencyChanges></Clock>\n",60.031,1,-1783402202,0,,-999999,1,14875,t,44662,59537,5/21/2014,15:42:00,,2,Session2,SessionsList,0,,-999999,3,699133,t,33231,732364,685057,2,1,2,1,,,,,,,,1,1,1,NonCued3,MiniBlocks2,,,732367,,4,1,b,-999999,17,804381,b,616,804997,Red,Incongruent,b,White,0,,0,3,797367,,0,0,,,,,,,,,,,,,Pictures\white.bmp,6000,4000,Pictures\RedLeft.bmp,,,,,,,4,1,4,,,,StimulusPr,Pictures\black.bmp,NonCuedStim3,Left
POP_2,27018,1,"<?xml version=""1.0""?>\n<Clock xmlns:dt=""urn:schemas-microsoft-com:datatypes""><Description dt:dt=""string"">E-Prime Primary Realtime Clock</Description><StartTime><Timestamp dt:dt=""int"">0</Timestamp><DateUtc dt:dt=""string"">2014-05-21T22:42:00Z</DateUtc></StartTime><FrequencyChanges><FrequencyChange><Frequency dt:dt=""r8"">2793030000</Frequency><Timestamp dt:dt=""r8"">3.42207729461381E+15</Timestamp><Current dt:dt=""r8"">0</Current><DateUtc dt:dt=""string"">2014-05-21T22:42:00Z</DateUtc></FrequencyChange></FrequencyChanges></Clock>\n",60.031,1,-1783402202,0,,-999999,1,14875,t,44662,59537,5/21/2014,15:42:00,,2,Session2,SessionsList,0,,-999999,3,699133,t,33231,732364,685057,2,1,2,1,,,,,,,,1,1,1,NonCued3,MiniBlocks2,,,732367,,5,1,b,-999999,15,814392,b,357,814749,Green,Congruent,b,White,0,,0,14,810378,,0,0,,,,,,,,,,,,,Pictures\white.bmp,3000,2000,Pictures\black.bmp,,,,,,,5,1,5,,,,StimulusPr,Pictures\GreenRight.bmp,NonCuedStim3,Right
POP_2,27018,1,"<?xml version=""1.0""?>\n<Clock xmlns:dt=""urn:schemas-microsoft-com:datatypes""><Description dt:dt=""string"">E-Prime Primary Realtime Clock</Description><StartTime><Timestamp dt:dt=""int"">0</Timestamp><DateUtc dt:dt=""string"">2014-05-21T22:42:00Z</DateUtc></StartTime><FrequencyChanges><FrequencyChange><Frequency dt:dt=""r8"">2793030000</Frequency><Timestamp dt:dt=""r8"">3.42207729461381E+15</Timestamp><Current dt:dt=""r8"">0</Current><DateUtc dt:dt=""string"">2014-05-21T22:42:00Z</DateUtc></FrequencyChange></FrequencyChanges></Clock>\n",60.031,1,-1783402202,0,,-999999,1,14875,t,44662,59537,5/21/2014,15:42:00,,2,Session2,SessionsList,0,,-999999,3,699133,t,33231,732364,685057,2,1,2,1,,,,,,,,1,1,1,NonCued3,MiniBlocks2,,,732367,,6,1,r,-999999,8,822372,r,605,822977,Green,Congruent,r,White,0,,0,11,818374,,0,0,,,,,,,,,,,,,Pictures\white.bmp,3000,2000,Pictures\GreenLeft.bmp,,,,,,,6,1,6,,,,StimulusPr,Pictures\black.bmp,NonCuedStim3,Left
POP_2,27018,1,"<?xml version=""1.0""?>\n<Clock xmlns:dt=""urn:schemas-microsoft-com:datatypes""><Description dt:dt=""string"">E-Prime Primary Realtime Clock</Description><StartTime><Timestamp dt:dt=""int"">0</Timestamp><DateUtc dt:dt=""string"">2014-05-21T22:42:00Z</DateUtc></StartTime><FrequencyChanges><FrequencyChange><Frequency dt:dt=""r8"">2793030000</Frequency><Timestamp dt:dt=""r8"">3.42207729461381E+15</Timestamp><Current dt:dt=""r8"">0</Current><DateUtc dt:dt=""string"">2014-05-21T22:42:00Z</DateUtc></FrequencyChange></FrequencyChanges></Clock>\n",60.031,1,-1783402202,0,,-999999,1,14875,t,44662,59537,5/21/2014,15:42:00,,2,Session2,SessionsList,0,,-999999,3,699133,t,33231,732364,685057,2,1,2,1,,,,,,,,1,1,1,NonCued3,MiniBlocks2,,,732367,,7,1,b,-999999,3,833367,b,476,833843,Green,Congruent,b,White,0,,0,6,826370,,0,0,,,,,,,,,,,,,Pictures\white.bmp,6000,16000,Pictures\black.bmp,,,,,,,7,1,7,,,,StimulusPr,Pictures\GreenRight.bmp,NonCuedStim3,Right
POP_2,27018,1,"<?xml version=""1.0""?>\n<Clock xmlns:dt=""urn:schemas-microsoft-com:datatypes""><Description dt:dt=""string"">E-Prime Primary Realtime Clock</Description><StartTime><Timestamp dt:dt=""int"">0</Timestamp><DateUtc dt:dt=""string"">2014-05-21T22:42:00Z</DateUtc></StartTime><FrequencyChanges><FrequencyChange><Frequency dt:dt=""r8"">2793030000</Frequency><Timestamp dt:dt=""r8"">3.42207729461381E+15</Timestamp><Current dt:dt=""r8"">0</Current><DateUtc dt:dt=""string"">2014-05-21T22:42:00Z</DateUtc></FrequencyChange></FrequencyChanges></Clock>\n",60.031,1,-1783402202,0,,-999999,1,14875,t,44662,59537,5/21/2014,15:42:00,,2,Session2,SessionsList,0,,-999999,3,699133,t,33231,732364,685057,2,1,2,1,,,,,,,,1,1,1,NonCued3,MiniBlocks2,,,732367,,8,1,r,-999999,11,855388,r,639,856027,Red,Incongruent,r,White,0,,0,10,851374,,0,0,,,,,,,,,,,,,Pictures\white.bmp,3000,2000,Pictures\black.bmp,,,,,,,8,1,8,,,,StimulusPr,Pictures\RedRight.bmp,NonCuedStim3,Right
POP_2,27018,1,"<?xml version=""1.0""?>\n<Clock xmlns:dt=""urn:schemas-microsoft-com:datatypes""><Description dt:dt=""string"">E-Prime Primary Realtime Clock</Description><StartTime><Timestamp dt:dt=""int"">0</Timestamp><DateUtc dt:dt=""string"">2014-05-21T22:42:00Z</DateUtc></StartTime><FrequencyChanges><FrequencyChange><Frequency dt:dt=""r8"">2793030000</Frequency><Timestamp dt:dt=""r8"">3.42207729461381E+15</Timestamp><Current dt:dt=""r8"">0</Current><DateUtc dt:dt=""string"">2014-05-21T22:42:00Z</DateUtc></FrequencyChange></FrequencyChanges></Clock>\n",60.031,1,-1783402202,0,,-999999,1,14875,t,44662,59537,5/21/2014,15:42:00,,2,Session2,SessionsList,0,,-999999,3,699133,t,33231,732364,685057,2,1,2,1,,,,,,,,1,1,1,NonCued3,MiniBlocks2,,,732367,,9,1,r,-999999,17,869381,r,538,869919,Green,Congruent,r,White,0,,0,6,859370,,0,0,,,,,,,,,,,,,Pictures\white.bmp,9000,10000,Pictures\GreenLeft.bmp,,,,,,,9,1,9,,,,StimulusPr,Pictures\black.bmp,NonCuedStim3,Left
POP_2,27018,1,"<?xml version=""1.0""?>\n<Clock xmlns:dt=""urn:schemas-microsoft-com:datatypes""><Description dt:dt=""string"">E-Prime Primary Realtime Clock</Description><StartTime><Timestamp dt:dt=""int"">0</Timestamp><DateUtc dt:dt=""string"">2014-05-21T22:42:00Z</DateUtc></StartTime><FrequencyChanges><FrequencyChange><Frequency dt:dt=""r8"">2793030000</Frequency><Timestamp dt:dt=""r8"">3.42207729461381E+15</Timestamp><Current dt:dt=""r8"">0</Current><DateUtc dt:dt=""string"">2014-05-21T22:42:00Z</DateUtc></FrequencyChange></FrequencyChanges></Clock>\n",60.031,1,-1783402202,0,,-999999,1,14875,t,44662,59537,5/21/2014,15:42:00,,2,Session2,SessionsList,0,,-999999,3,699133,t,33231,732364,685057,2,1,2,1,,,,,,,,1,1,1,NonCued3,MiniBlocks2,,,732367,,10,1,r,-999999,8,888372,r,449,888821,Green,Congruent,r,White,0,,0,10,881375,,0,0,,,,,,,,,,,,,Pictures\white.bmp,6000,4000,Pictures\GreenLeft.bmp,,,,,,,10,1,10,,,,StimulusPr,Pictures\black.bmp,NonCuedStim3,Left
POP_2,27018,1,"<?xml version=""1.0""?>\n<Clock xmlns:dt=""urn:schemas-microsoft-com:datatypes""><Description dt:dt=""string"">E-Prime Primary Realtime Clock</Description><StartTime><Timestamp dt:dt=""int"">0</Timestamp><DateUtc dt:dt=""string"">2014-05-21T22:42:00Z</DateUtc></StartTime><FrequencyChanges><FrequencyChange><Frequency dt:dt=""r8"">2793030000</Frequency><Timestamp dt:dt=""r8"">3.42207729461381E+15</Timestamp><Current dt:dt=""r8"">0</Current><DateUtc dt:dt=""string"">2014-05-21T22:42:00Z</DateUtc></FrequencyChange></FrequencyChanges></Clock>\n",60.031,1,-1783402202,0,,-999999,1,14875,t,44662,59537,5/21/2014,15:42:00,,2,Session2,SessionsList,0,,-999999,3,699133,t,33231,732364,685057,2,1,2,2,,,892836,,,,,2,1,2,Cued3,MiniBlocks2,,,,,1,1,b,-999999,13,907379,b,722,908101,White,Congruent,b,Green,0,,0,17,903381,,0,0,,,,,,,1,1,1,,,,Pictures\green.bmp,3000,2000,Pictures\black.bmp,,,,,,,,,,,,,StimulusPr,Pictures\right.bmp,CuedStim3,Right
POP_2,27018,1,"<?xml version=""1.0""?>\n<Clock xmlns:dt=""urn:schemas-microsoft-com:datatypes""><Description dt:dt=""string"">E-Prime Primary Realtime Clock</Description><StartTime><Timestamp dt:dt=""int"">0</Timestamp><DateUtc dt:dt=""string"">2014-05-21T22:42:00Z</DateUtc></StartTime><FrequencyChanges><FrequencyChange><Frequency dt:dt=""r8"">2793030000</Frequency><Timestamp dt:dt=""r8"">3.42207729461381E+15</Timestamp><Current dt:dt=""r8"">0</Current><DateUtc dt:dt=""string"">2014-05-21T22:42:00Z</DateUtc></FrequencyChange></FrequencyChanges></Clock>\n",60.031,1,-1783402202,0,,-999999,1,14875,t,44662,59537,5/21/2014,15:42:00,,2,Session2,SessionsList,0,,-999999,3,699133,t,33231,732364,685057,2,1,2,2,,,892836,,,,,2,1,2,Cued3,MiniBlocks2,,,,,2,1,b,-999999,16,915392,b,679,916071,White,Congruent,b,Green,0,,0,14,911377,,0,0,,,,,,,2,1,2,,,,Pictures\green.bmp,3000,10000,Pictures\black.bmp,,,,,,,,,,,,,StimulusPr,Pictures\right.bmp,CuedStim3,Right
POP_2,27018,1,"<?xml version=""1.0""?>\n<Clock xmlns:dt=""urn:schemas-microsoft-com:datatypes""><Description dt:dt=""string"">E-Prime Primary Realtime Clock</Description><StartTime><Timestamp dt:dt=""int"">0</Timestamp><DateUtc dt:dt=""string"">2014-05-21T22:42:00Z</DateUtc></StartTime><FrequencyChanges><FrequencyChange><Frequency dt:dt=""r8"">2793030000</Frequency><Timestamp dt:dt=""r8"">3.42207729461381E+15</Timestamp><Current dt:dt=""r8"">0</Current><DateUtc dt:dt=""string"">2014-05-21T22:42:00Z</DateUtc></FrequencyChange></FrequencyChanges></Clock>\n",60.031,1,-1783402202,0,,-999999,1,14875,t,44662,59537,5/21/2014,15:42:00,,2,Session2,SessionsList,0,,-999999,3,699133,t,33231,732364,685057,2,1,2,2,,,892836,,,,,2,1,2,Cued3,MiniBlocks2,,,,,3,1,r,-999999,17,937381,r,384,937765,White,Congruent,r,Green,0,,0,17,927386,,0,0,,,,,,,3,1,3,,,,Pictures\green.bmp,9000,2000,Pictures\left.bmp,,,,,,,,,,,,,StimulusPr,Pictures\black.bmp,CuedStim3,Left
POP_2,27018,1,"<?xml version=""1.0""?>\n<Clock xmlns:dt=""urn:schemas-microsoft-com:datatypes""><Description dt:dt=""string"">E-Prime Primary Realtime Clock</Description><StartTime><Timestamp dt:dt=""int"">0</Timestamp><DateUtc dt:dt=""string"">2014-05-21T22:42:00Z</DateUtc></StartTime><FrequencyChanges><FrequencyChange><Frequency dt:dt=""r8"">2793030000</Frequency><Timestamp dt:dt=""r8"">3.42207729461381E+15</Timestamp><Current dt:dt=""r8"">0</Current><DateUtc dt:dt=""string"">2014-05-21T22:42:00Z</DateUtc></FrequencyChange></FrequencyChanges></Clock>\n",60.031,1,-1783402202,0,,-999999,1,14875,t,44662,59537,5/21/2014,15:42:00,,2,Session2,SessionsList,0,,-999999,3,699133,t,33231,732364,685057,2,1,2,2,,,892836,,,,,2,1,2,Cued3,MiniBlocks2,,,,,4,1,r,-999999,12,946376,r,410,946786,White,Congruent,r,Green,0,,0,16,941379,,0,0,,,,,,,4,1,4,,,,Pictures\green.bmp,4000,16000,Pictures\left.bmp,,,,,,,,,,,,,StimulusPr,Pictures\black.bmp,CuedStim3,Left
POP_2,27018,1,"<?xml version=""1.0""?>\n<Clock xmlns:dt=""urn:schemas-microsoft-com:datatypes""><Description dt:dt=""string"">E-Prime Primary Realtime Clock</Description><StartTime><Timestamp dt:dt=""int"">0</Timestamp><DateUtc dt:dt=""string"">2014-05-21T22:42:00Z</DateUtc></StartTime><FrequencyChanges><FrequencyChange><Frequency dt:dt=""r8"">2793030000</Frequency><Timestamp dt:dt=""r8"">3.42207729461381E+15</Timestamp><Current dt:dt=""r8"">0</Current><DateUtc dt:dt=""string"">2014-05-21T22:42:00Z</DateUtc></FrequencyChange></FrequencyChanges></Clock>\n",60.031,1,-1783402202,0,,-999999,1,14875,t,44662,59537,5/21/2014,15:42:00,,2,Session2,SessionsList,0,,-999999,3,699133,t,33231,732364,685057,2,1,2,2,,,892836,,,,,2,1,2,Cued3,MiniBlocks2,,,,,5,1,r,-999999,18,968382,r,711,969093,White,Incongruent,r,Red,0,,0,3,964367,,0,0,,,,,,,5,1,5,,,,Pictures\red.bmp,3000,4000,Pictures\black.bmp,,,,,,,,,,,,,StimulusPr,Pictures\right.bmp,CuedStim3,Right
POP_2,27018,1,"<?xml version=""1.0""?>\n<Clock xmlns:dt=""urn:schemas-microsoft-com:datatypes""><Description dt:dt=""string"">E-Prime Primary Realtime Clock</Description><StartTime><Timestamp dt:dt=""int"">0</Timestamp><DateUtc dt:dt=""string"">2014-05-21T22:42:00Z</DateUtc></StartTime><FrequencyChanges><FrequencyChange><Frequency dt:dt=""r8"">2793030000</Frequency><Timestamp dt:dt=""r8"">3.42207729461381E+15</Timestamp><Current dt:dt=""r8"">0</Current><DateUtc dt:dt=""string"">2014-05-21T22:42:00Z</DateUtc></FrequencyChange></FrequencyChanges></Clock>\n",60.031,1,-1783402202,0,,-999999,1,14875,t,44662,59537,5/21/2014,15:42:00,,2,Session2,SessionsList,0,,-999999,3,699133,t,33231,732364,685057,2,1,2,2,,,892836,,,,,2,1,2,Cued3,MiniBlocks2,,,,,6,1,b,-999999,12,981376,b,377,981753,White,Congruent,b,Green,0,,0,15,974379,,0,0,,,,,,,6,1,6,,,,Pictures\green.bmp,6000,4000,Pictures\black.bmp,,,,,,,,,,,,,StimulusPr,Pictures\right.bmp,CuedStim3,Right
POP_2,27018,1,"<?xml version=""1.0""?>\n<Clock xmlns:dt=""urn:schemas-microsoft-com:datatypes""><Description dt:dt=""string"">E-Prime Primary Realtime Clock</Description><StartTime><Timestamp dt:dt=""int"">0</Timestamp><DateUtc dt:dt=""string"">2014-05-21T22:42:00Z</DateUtc></StartTime><FrequencyChanges><FrequencyChange><Frequency dt:dt=""r8"">2793030000</Frequency><Timestamp dt:dt=""r8"">3.42207729461381E+15</Timestamp><Current dt:dt=""r8"">0</Current><DateUtc dt:dt=""string"">2014-05-21T22:42:00Z</DateUtc></FrequencyChange></FrequencyChanges></Clock>\n",60.031,1,-1783402202,0,,-999999,1,14875,t,44662,59537,5/21/2014,15:42:00,,2,Session2,SessionsList,0,,-999999,3,699133,t,33231,732364,685057,2,1,2,2,,,892836,,,,,2,1,2,Cued3,MiniBlocks2,,,,,7,1,r,-999999,6,992370,r,495,992865,White,Congruent,r,Green,0,,0,17,987389,,0,0,,,,,,,7,1,7,,,,Pictures\green.bmp,4000,16000,Pictures\left.bmp,,,,,,,,,,,,,StimulusPr,Pictures\black.bmp,CuedStim3,Left
POP_2,27018,1,"<?xml version=""1.0""?>\n<Clock xmlns:dt=""urn:schemas-microsoft-com:datatypes""><Description dt:dt=""string"">E-Prime Primary Realtime Clock</Description><StartTime><Timestamp dt:dt=""int"">0</Timestamp><DateUtc dt:dt=""string"">2014-05-21T22:42:00Z</DateUtc></StartTime><FrequencyChanges><FrequencyChange><Frequency dt:dt=""r8"">2793030000</Frequency><Timestamp dt:dt=""r8"">3.42207729461381E+15</Timestamp><Current dt:dt=""r8"">0</Current><DateUtc dt:dt=""string"">2014-05-21T22:42:00Z</DateUtc></FrequencyChange></FrequencyChanges></Clock>\n",60.031,1,-1783402202,0,,-999999,1,14875,t,44662,59537,5/21/2014,15:42:00,,2,Session2,SessionsList,0,,-999999,3,699133,t,33231,732364,685057,2,1,2,2,,,892836,,,,,2,1,2,Cued3,MiniBlocks2,,,,,8,0,b,-999999,12,1014376,r,444,1014820,White,Incongruent,b,Red,0,,0,14,1010378,,0,0,,,,,,,8,1,8,,,,Pictures\red.bmp,3000,2000,Pictures\left.bmp,,,,,,,,,,,,,StimulusPr,Pictures\black.bmp,CuedStim3,Left
POP_2,27018,1,"<?xml version=""1.0""?>\n<Clock xmlns:dt=""urn:schemas-microsoft-com:datatypes""><Description dt:dt=""string"">E-Prime Primary Realtime Clock</Description><StartTime><Timestamp dt:dt=""int"">0</Timestamp><DateUtc dt:dt=""string"">2014-05-21T22:42:00Z</DateUtc></StartTime><FrequencyChanges><FrequencyChange><Frequency dt:dt=""r8"">2793030000</Frequency><Timestamp dt:dt=""r8"">3.42207729461381E+15</Timestamp><Current dt:dt=""r8"">0</Current><DateUtc dt:dt=""string"">2014-05-21T22:42:00Z</DateUtc></FrequencyChange></FrequencyChanges></Clock>\n",60.031,1,-1783402202,0,,-999999,1,14875,t,44662,59537,5/21/2014,15:42:00,,2,Session2,SessionsList,0,,-999999,3,699133,t,33231,732364,685057,2,1,2,2,,,892836,,,,,2,1,2,Cued3,MiniBlocks2,,,,,9,1,r,-999999,8,1022372,r,357,1022729,White,Congruent,r,Green,0,,0,13,1018390,,0,0,,,,,,,9,1,9,,,,Pictures\green.bmp,3000,2000,Pictures\left.bmp,,,,,,,,,,,,,StimulusPr,Pictures\black.bmp,CuedStim3,Left
POP_2,27018,1,"<?xml version=""1.0""?>\n<Clock xmlns:dt=""urn:schemas-microsoft-com:datatypes""><Description dt:dt=""string"">E-Prime Primary Realtime Clock</Description><StartTime><Timestamp dt:dt=""int"">0</Timestamp><DateUtc dt:dt=""string"">2014-05-21T22:42:00Z</DateUtc></StartTime><FrequencyChanges><FrequencyChange><Frequency dt:dt=""r8"">2793030000</Frequency><Timestamp dt:dt=""r8"">3.42207729461381E+15</Timestamp><Current dt:dt=""r8"">0</Current><DateUtc dt:dt=""string"">2014-05-21T22:42:00Z</DateUtc></FrequencyChange></FrequencyChanges></Clock>\n",60.031,1,-1783402202,0,,-999999,1,14875,t,44662,59537,5/21/2014,15:42:00,,2,Session2,SessionsList,0,,-999999,3,699133,t,33231,732364,685057,2,1,2,2,,,892836,,,,,2,1,2,Cued3,MiniBlocks2,,,,,10,1,b,-999999,7,1036365,b,299,1036664,White,Congruent,b,Green,0,,0,6,1026370,,0,0,,,,,,,10,1,10,,,,Pictures\green.bmp,9000,10000,Pictures\black.bmp,,,,,,,,,,,,,StimulusPr,Pictures\right.bmp,CuedStim3,Right
POP_2,27018,1,"<?xml version=""1.0""?>\n<Clock xmlns:dt=""urn:schemas-microsoft-com:datatypes""><Description dt:dt=""string"">E-Prime Primary Realtime Clock</Description><StartTime><Timestamp dt:dt=""int"">0</Timestamp><DateUtc dt:dt=""string"">2014-05-21T22:42:00Z</DateUtc></StartTime><FrequencyChanges><FrequencyChange><Frequency dt:dt=""r8"">2793030000</Frequency><Timestamp dt:dt=""r8"">3.42207729461381E+15</Timestamp><Current dt:dt=""r8"">0</Current><DateUtc dt:dt=""string"">2014-05-21T22:42:00Z</DateUtc></FrequencyChange></FrequencyChanges></Clock>\n",60.031,1,-1783402202,0,,-999999,1,14875,t,44662,59537,5/21/2014,15:42:00,,2,Session2,SessionsList,0,,-999999,3,699133,t,33231,732364,685057,2,1,2,3,,,,1046693,,,,3,1,3,Cued4,MiniBlocks2,,,,,1,1,b,-999999,8,1063385,b,463,1063848,White,Congruent,b,Green,0,,0,7,1056371,,0,0,,,,,,,,,,1,1,1,Pictures\green.bmp,6000,2000,Pictures\black.bmp,,,,,,,,,,,,,StimulusPr,Pictures\right.bmp,CuedStim4,Right
POP_2,27018,1,"<?xml version=""1.0""?>\n<Clock xmlns:dt=""urn:schemas-microsoft-com:datatypes""><Description dt:dt=""string"">E-Prime Primary Realtime Clock</Description><StartTime><Timestamp dt:dt=""int"">0</Timestamp><DateUtc dt:dt=""string"">2014-05-21T22:42:00Z</DateUtc></StartTime><FrequencyChanges><FrequencyChange><Frequency dt:dt=""r8"">2793030000</Frequency><Timestamp dt:dt=""r8"">3.42207729461381E+15</Timestamp><Current dt:dt=""r8"">0</Current><DateUtc dt:dt=""string"">2014-05-21T22:42:00Z</DateUtc></FrequencyChange></FrequencyChanges></Clock>\n",60.031,1,-1783402202,0,,-999999,1,14875,t,44662,59537,5/21/2014,15:42:00,,2,Session2,SessionsList,0,,-999999,3,699133,t,33231,732364,685057,2,1,2,3,,,,1046693,,,,3,1,3,Cued4,MiniBlocks2,,,,,2,1,r,-999999,3,1077361,r,667,1078028,White,Incongruent,r,Red,0,,0,3,1067366,,0,0,,,,,,,,,,2,1,2,Pictures\red.bmp,9000,2000,Pictures\black.bmp,,,,,,,,,,,,,StimulusPr,Pictures\right.bmp,CuedStim4,Right
POP_2,27018,1,"<?xml version=""1.0""?>\n<Clock xmlns:dt=""urn:schemas-microsoft-com:datatypes""><Description dt:dt=""string"">E-Prime Primary Realtime Clock</Description><StartTime><Timestamp dt:dt=""int"">0</Timestamp><DateUtc dt:dt=""string"">2014-05-21T22:42:00Z</DateUtc></StartTime><FrequencyChanges><FrequencyChange><Frequency dt:dt=""r8"">2793030000</Frequency><Timestamp dt:dt=""r8"">3.42207729461381E+15</Timestamp><Current dt:dt=""r8"">0</Current><DateUtc dt:dt=""string"">2014-05-21T22:42:00Z</DateUtc></FrequencyChange></FrequencyChanges></Clock>\n",60.031,1,-1783402202,0,,-999999,1,14875,t,44662,59537,5/21/2014,15:42:00,,2,Session2,SessionsList,0,,-999999,3,699133,t,33231,732364,685057,2,1,2,3,,,,1046693,,,,3,1,3,Cued4,MiniBlocks2,,,,,3,1,b,-999999,10,1085374,b,501,1085875,White,Congruent,b,Green,0,,0,2,1081376,,0,0,,,,,,,,,,3,1,3,Pictures\green.bmp,3000,4000,Pictures\black.bmp,,,,,,,,,,,,,StimulusPr,Pictures\right.bmp,CuedStim4,Right
POP_2,27018,1,"<?xml version=""1.0""?>\n<Clock xmlns:dt=""urn:schemas-microsoft-com:datatypes""><Description dt:dt=""string"">E-Prime Primary Realtime Clock</Description><StartTime><Timestamp dt:dt=""int"">0</Timestamp><DateUtc dt:dt=""string"">2014-05-21T22:42:00Z</DateUtc></StartTime><FrequencyChanges><FrequencyChange><Frequency dt:dt=""r8"">2793030000</Frequency><Timestamp dt:dt=""r8"">3.42207729461381E+15</Timestamp><Current dt:dt=""r8"">0</Current><DateUtc dt:dt=""string"">2014-05-21T22:42:00Z</DateUtc></FrequencyChange></FrequencyChanges></Clock>\n",60.031,1,-1783402202,0,,-999999,1,14875,t,44662,59537,5/21/2014,15:42:00,,2,Session2,SessionsList,0,,-999999,3,699133,t,33231,732364,685057,2,1,2,3,,,,1046693,,,,3,1,3,Cued4,MiniBlocks2,,,,,4,1,r,-999999,6,1095369,r,354,1095723,White,Congruent,r,Green,0,,0,7,1091371,,0,0,,,,,,,,,,4,1,4,Pictures\green.bmp,3000,4000,Pictures\left.bmp,,,,,,,,,,,,,StimulusPr,Pictures\black.bmp,CuedStim4,Left
POP_2,27018,1,"<?xml version=""1.0""?>\n<Clock xmlns:dt=""urn:schemas-microsoft-com:datatypes""><Description dt:dt=""string"">E-Prime Primary Realtime Clock</Description><StartTime><Timestamp dt:dt=""int"">0</Timestamp><DateUtc dt:dt=""string"">2014-05-21T22:42:00Z</DateUtc></StartTime><FrequencyChanges><FrequencyChange><Frequency dt:dt=""r8"">2793030000</Frequency><Timestamp dt:dt=""r8"">3.42207729461381E+15</Timestamp><Current dt:dt=""r8"">0</Current><DateUtc dt:dt=""string"">2014-05-21T22:42:00Z</DateUtc></FrequencyChange></FrequencyChanges></Clock>\n",60.031,1,-1783402202,0,,-999999,1,14875,t,44662,59537,5/21/2014,15:42:00,,2,Session2,SessionsList,0,,-999999,3,699133,t,33231,732364,685057,2,1,2,3,,,,1046693,,,,3,1,3,Cued4,MiniBlocks2,,,,,5,1,b,-999999,16,1106380,b,511,1106891,White,Incongruent,b,Red,0,,0,2,1101366,,0,0,,,,,,,,,,5,1,5,Pictures\red.bmp,4000,16000,Pictures\left.bmp,,,,,,,,,,,,,StimulusPr,Pictures\black.bmp,CuedStim4,Left
POP_2,27018,1,"<?xml version=""1.0""?>\n<Clock xmlns:dt=""urn:schemas-microsoft-com:datatypes""><Description dt:dt=""string"">E-Prime Primary Realtime Clock</Description><StartTime><Timestamp dt:dt=""int"">0</Timestamp><DateUtc dt:dt=""string"">2014-05-21T22:42:00Z</DateUtc></StartTime><FrequencyChanges><FrequencyChange><Frequency dt:dt=""r8"">2793030000</Frequency><Timestamp dt:dt=""r8"">3.42207729461381E+15</Timestamp><Current dt:dt=""r8"">0</Current><DateUtc dt:dt=""string"">2014-05-21T22:42:00Z</DateUtc></FrequencyChange></FrequencyChanges></Clock>\n",60.031,1,-1783402202,0,,-999999,1,14875,t,44662,59537,5/21/2014,15:42:00,,2,Session2,SessionsList,0,,-999999,3,699133,t,33231,732364,685057,2,1,2,3,,,,1046693,,,,3,1,3,Cued4,MiniBlocks2,,,,,6,1,b,-999999,6,1128369,b,2158,1130527,White,Congruent,b,Green,0,,0,7,1124371,,0,0,,,,,,,,,,6,1,6,Pictures\green.bmp,3000,2000,Pictures\black.bmp,,,,,,,,,,,,,StimulusPr,Pictures\right.bmp,CuedStim4,Right
POP_2,27018,1,"<?xml version=""1.0""?>\n<Clock xmlns:dt=""urn:schemas-microsoft-com:datatypes""><Description dt:dt=""string"">E-Prime Primary Realtime Clock</Description><StartTime><Timestamp dt:dt=""int"">0</Timestamp><DateUtc dt:dt=""string"">2014-05-21T22:42:00Z</DateUtc></StartTime><FrequencyChanges><FrequencyChange><Frequency dt:dt=""r8"">2793030000</Frequency><Timestamp dt:dt=""r8"">3.42207729461381E+15</Timestamp><Current dt:dt=""r8"">0</Current><DateUtc dt:dt=""string"">2014-05-21T22:42:00Z</DateUtc></FrequencyChange></FrequencyChanges></Clock>\n",60.031,1,-1783402202,0,,-999999,1,14875,t,44662,59537,5/21/2014,15:42:00,,2,Session2,SessionsList,0,,-999999,3,699133,t,33231,732364,685057,2,1,2,3,,,,1046693,,,,3,1,3,Cued4,MiniBlocks2,,,,,7,1,b,-999999,14,1144378,b,461,1144839,White,Congruent,b,Green,0,,0,4,1134366,,0,0,,,,,,,,,,7,1,7,Pictures\green.bmp,9000,10000,Pictures\black.bmp,,,,,,,,,,,,,StimulusPr,Pictures\right.bmp,CuedStim4,Right
POP_2,27018,1,"<?xml version=""1.0""?>\n<Clock xmlns:dt=""urn:schemas-microsoft-com:datatypes""><Description dt:dt=""string"">E-Prime Primary Realtime Clock</Description><StartTime><Timestamp dt:dt=""int"">0</Timestamp><DateUtc dt:dt=""string"">2014-05-21T22:42:00Z</DateUtc></StartTime><FrequencyChanges><FrequencyChange><Frequency dt:dt=""r8"">2793030000</Frequency><Timestamp dt:dt=""r8"">3.42207729461381E+15</Timestamp><Current dt:dt=""r8"">0</Current><DateUtc dt:dt=""string"">2014-05-21T22:42:00Z</DateUtc></FrequencyChange></FrequencyChanges></Clock>\n",60.031,1,-1783402202,0,,-999999,1,14875,t,44662,59537,5/21/2014,15:42:00,,2,Session2,SessionsList,0,,-999999,3,699133,t,33231,732364,685057,2,1,2,3,,,,1046693,,,,3,1,3,Cued4,MiniBlocks2,,,,,8,1,b,-999999,4,1163368,b,410,1163778,White,Incongruent,b,Red,0,,0,11,1156388,,0,0,,,,,,,,,,8,1,8,Pictures\red.bmp,6000,10000,Pictures\left.bmp,,,,,,,,,,,,,StimulusPr,Pictures\black.bmp,CuedStim4,Left
POP_2,27018,1,"<?xml version=""1.0""?>\n<Clock xmlns:dt=""urn:schemas-microsoft-com:datatypes""><Description dt:dt=""string"">E-Prime Primary Realtime Clock</Description><StartTime><Timestamp dt:dt=""int"">0</Timestamp><DateUtc dt:dt=""string"">2014-05-21T22:42:00Z</DateUtc></StartTime><FrequencyChanges><FrequencyChange><Frequency dt:dt=""r8"">2793030000</Frequency><Timestamp dt:dt=""r8"">3.42207729461381E+15</Timestamp><Current dt:dt=""r8"">0</Current><DateUtc dt:dt=""string"">2014-05-21T22:42:00Z</DateUtc></FrequencyChange></FrequencyChanges></Clock>\n",60.031,1,-1783402202,0,,-999999,1,14875,t,44662,59537,5/21/2014,15:42:00,,2,Session2,SessionsList,0,,-999999,3,699133,t,33231,732364,685057,2,1,2,3,,,,1046693,,,,3,1,3,Cued4,MiniBlocks2,,,,,9,1,r,-999999,11,1182375,r,481,1182856,White,Congruent,r,Green,0,,0,15,1175379,,0,0,,,,,,,,,,9,1,9,Pictures\green.bmp,6000,16000,Pictures\left.bmp,,,,,,,,,,,,,StimulusPr,Pictures\black.bmp,CuedStim4,Left
POP_2,27018,1,"<?xml version=""1.0""?>\n<Clock xmlns:dt=""urn:schemas-microsoft-com:datatypes""><Description dt:dt=""string"">E-Prime Primary Realtime Clock</Description><StartTime><Timestamp dt:dt=""int"">0</Timestamp><DateUtc dt:dt=""string"">2014-05-21T22:42:00Z</DateUtc></StartTime><FrequencyChanges><FrequencyChange><Frequency dt:dt=""r8"">2793030000</Frequency><Timestamp dt:dt=""r8"">3.42207729461381E+15</Timestamp><Current dt:dt=""r8"">0</Current><DateUtc dt:dt=""string"">2014-05-21T22:42:00Z</DateUtc></FrequencyChange></FrequencyChanges></Clock>\n",60.031,1,-1783402202,0,,-999999,1,14875,t,44662,59537,5/21/2014,15:42:00,,2,Session2,SessionsList,0,,-999999,3,699133,t,33231,732364,685057,2,1,2,3,,,,1046693,,,,3,1,3,Cued4,MiniBlocks2,,,,,10,1,r,-999999,16,1205380,r,791,1206171,White,Congruent,r,Green,0,,0,2,1200366,,0,0,,,,,,,,,,10,1,10,Pictures\green.bmp,4000,2000,Pictures\left.bmp,,,,,,,,,,,,,StimulusPr,Pictures\black.bmp,CuedStim4,Left
POP_2,27018,1,"<?xml version=""1.0""?>\n<Clock xmlns:dt=""urn:schemas-microsoft-com:datatypes""><Description dt:dt=""string"">E-Prime Primary Realtime Clock</Description><StartTime><Timestamp dt:dt=""int"">0</Timestamp><DateUtc dt:dt=""string"">2014-05-21T22:42:00Z</DateUtc></StartTime><FrequencyChanges><FrequencyChange><Frequency dt:dt=""r8"">2793030000</Frequency><Timestamp dt:dt=""r8"">3.42207729461381E+15</Timestamp><Current dt:dt=""r8"">0</Current><DateUtc dt:dt=""string"">2014-05-21T22:42:00Z</DateUtc></FrequencyChange></FrequencyChanges></Clock>\n",60.031,1,-1783402202,0,,-999999,1,14875,t,44662,59537,5/21/2014,15:42:00,,2,Session2,SessionsList,0,,-999999,3,699133,t,33231,732364,685057,2,1,2,4,,,,,,,,4,1,4,NonCued4,MiniBlocks2,,,,1208196,1,1,r,-999999,9,1222372,r,479,1222851,Green,Congruent,r,White,0,,0,10,1218374,,0,0,,,,,,,,,,,,,Pictures\white.bmp,3000,2000,Pictures\GreenLeft.bmp,,,,,,,,,,1,1,1,StimulusPr,Pictures\black.bmp,NonCuedStim4,Left
POP_2,27018,1,"<?xml version=""1.0""?>\n<Clock xmlns:dt=""urn:schemas-microsoft-com:datatypes""><Description dt:dt=""string"">E-Prime Primary Realtime Clock</Description><StartTime><Timestamp dt:dt=""int"">0</Timestamp><DateUtc dt:dt=""string"">2014-05-21T22:42:00Z</DateUtc></StartTime><FrequencyChanges><FrequencyChange><Frequency dt:dt=""r8"">2793030000</Frequency><Timestamp dt:dt=""r8"">3.42207729461381E+15</Timestamp><Current dt:dt=""r8"">0</Current><DateUtc dt:dt=""string"">2014-05-21T22:42:00Z</DateUtc></FrequencyChange></FrequencyChanges></Clock>\n",60.031,1,-1783402202,0,,-999999,1,14875,t,44662,59537,5/21/2014,15:42:00,,2,Session2,SessionsList,0,,-999999,3,699133,t,33231,732364,685057,2,1,2,4,,,,,,,,4,1,4,NonCued4,MiniBlocks2,,,,1208196,2,1,r,-999999,3,1231367,r,846,1232213,Green,Congruent,r,White,0,,0,6,1226370,,0,0,,,,,,,,,,,,,Pictures\white.bmp,4000,2000,Pictures\GreenLeft.bmp,,,,,,,,,,2,1,2,StimulusPr,Pictures\black.bmp,NonCuedStim4,Left
POP_2,27018,1,"<?xml version=""1.0""?>\n<Clock xmlns:dt=""urn:schemas-microsoft-com:datatypes""><Description dt:dt=""string"">E-Prime Primary Realtime Clock</Description><StartTime><Timestamp dt:dt=""int"">0</Timestamp><DateUtc dt:dt=""string"">2014-05-21T22:42:00Z</DateUtc></StartTime><FrequencyChanges><FrequencyChange><Frequency dt:dt=""r8"">2793030000</Frequency><Timestamp dt:dt=""r8"">3.42207729461381E+15</Timestamp><Current dt:dt=""r8"">0</Current><DateUtc dt:dt=""string"">2014-05-21T22:42:00Z</DateUtc></FrequencyChange></FrequencyChanges></Clock>\n",60.031,1,-1783402202,0,,-999999,1,14875,t,44662,59537,5/21/2014,15:42:00,,2,Session2,SessionsList,0,,-999999,3,699133,t,33231,732364,685057,2,1,2,4,,,,,,,,4,1,4,NonCued4,MiniBlocks2,,,,1208196,3,1,r,-999999,16,1240380,r,774,1241154,Red,Incongruent,r,White,0,,0,2,1235366,,0,0,,,,,,,,,,,,,Pictures\white.bmp,4000,2000,Pictures\black.bmp,,,,,,,,,,3,1,3,StimulusPr,Pictures\RedRight.bmp,NonCuedStim4,Right
POP_2,27018,1,"<?xml version=""1.0""?>\n<Clock xmlns:dt=""urn:schemas-microsoft-com:datatypes""><Description dt:dt=""string"">E-Prime Primary Realtime Clock</Description><StartTime><Timestamp dt:dt=""int"">0</Timestamp><DateUtc dt:dt=""string"">2014-05-21T22:42:00Z</DateUtc></StartTime><FrequencyChanges><FrequencyChange><Frequency dt:dt=""r8"">2793030000</Frequency><Timestamp dt:dt=""r8"">3.42207729461381E+15</Timestamp><Current dt:dt=""r8"">0</Current><DateUtc dt:dt=""string"">2014-05-21T22:42:00Z</DateUtc></FrequencyChange></FrequencyChanges></Clock>\n",60.031,1,-1783402202,0,,-999999,1,14875,t,44662,59537,5/21/2014,15:42:00,,2,Session2,SessionsList,0,,-999999,3,699133,t,33231,732364,685057,2,1,2,4,,,,,,,,4,1,4,NonCued4,MiniBlocks2,,,,1208196,4,1,b,-999999,12,1248376,b,580,1248956,Green,Congruent,b,White,0,,0,3,1244361,,0,0,,,,,,,,,,,,,Pictures\white.bmp,3000,16000,Pictures\black.bmp,,,,,,,,,,4,1,4,StimulusPr,Pictures\GreenRight.bmp,NonCuedStim4,Right
POP_2,27018,1,"<?xml version=""1.0""?>\n<Clock xmlns:dt=""urn:schemas-microsoft-com:datatypes""><Description dt:dt=""string"">E-Prime Primary Realtime Clock</Description><StartTime><Timestamp dt:dt=""int"">0</Timestamp><DateUtc dt:dt=""string"">2014-05-21T22:42:00Z</DateUtc></StartTime><FrequencyChanges><FrequencyChange><Frequency dt:dt=""r8"">2793030000</Frequency><Timestamp dt:dt=""r8"">3.42207729461381E+15</Timestamp><Current dt:dt=""r8"">0</Current><DateUtc dt:dt=""string"">2014-05-21T22:42:00Z</DateUtc></FrequencyChange></FrequencyChanges></Clock>\n",60.031,1,-1783402202,0,,-999999,1,14875,t,44662,59537,5/21/2014,15:42:00,,2,Session2,SessionsList,0,,-999999,3,699133,t,33231,732364,685057,2,1,2,4,,,,,,,,4,1,4,NonCued4,MiniBlocks2,,,,1208196,5,1,r,-999999,14,1276378,r,590,1276968,Green,Congruent,r,White,0,,0,4,1266367,,0,0,,,,,,,,,,,,,Pictures\white.bmp,9000,10000,Pictures\GreenLeft.bmp,,,,,,,,,,5,1,5,StimulusPr,Pictures\black.bmp,NonCuedStim4,Left
POP_2,27018,1,"<?xml version=""1.0""?>\n<Clock xmlns:dt=""urn:schemas-microsoft-com:datatypes""><Description dt:dt=""string"">E-Prime Primary Realtime Clock</Description><StartTime><Timestamp dt:dt=""int"">0</Timestamp><DateUtc dt:dt=""string"">2014-05-21T22:42:00Z</DateUtc></StartTime><FrequencyChanges><FrequencyChange><Frequency dt:dt=""r8"">2793030000</Frequency><Timestamp dt:dt=""r8"">3.42207729461381E+15</Timestamp><Current dt:dt=""r8"">0</Current><DateUtc dt:dt=""string"">2014-05-21T22:42:00Z</DateUtc></FrequencyChange></FrequencyChanges></Clock>\n",60.031,1,-1783402202,0,,-999999,1,14875,t,44662,59537,5/21/2014,15:42:00,,2,Session2,SessionsList,0,,-999999,3,699133,t,33231,732364,685057,2,1,2,4,,,,,,,,4,1,4,NonCued4,MiniBlocks2,,,,1208196,6,1,b,-999999,6,1292370,b,462,1292832,Green,Congruent,b,White,0,,0,9,1288372,,0,0,,,,,,,,,,,,,Pictures\white.bmp,3000,16000,Pictures\black.bmp,,,,,,,,,,6,1,6,StimulusPr,Pictures\GreenRight.bmp,NonCuedStim4,Right
POP_2,27018,1,"<?xml version=""1.0""?>\n<Clock xmlns:dt=""urn:schemas-microsoft-com:datatypes""><Description dt:dt=""string"">E-Prime Primary Realtime Clock</Description><StartTime><Timestamp dt:dt=""int"">0</Timestamp><DateUtc dt:dt=""string"">2014-05-21T22:42:00Z</DateUtc></StartTime><FrequencyChanges><FrequencyChange><Frequency dt:dt=""r8"">2793030000</Frequency><Timestamp dt:dt=""r8"">3.42207729461381E+15</Timestamp><Current dt:dt=""r8"">0</Current><DateUtc dt:dt=""string"">2014-05-21T22:42:00Z</DateUtc></FrequencyChange></FrequencyChanges></Clock>\n",60.031,1,-1783402202,0,,-999999,1,14875,t,44662,59537,5/21/2014,15:42:00,,2,Session2,SessionsList,0,,-999999,3,699133,t,33231,732364,685057,2,1,2,4,,,,,,,,4,1,4,NonCued4,MiniBlocks2,,,,1208196,7,1,b,-999999,13,1314376,b,732,1315108,Red,Incongruent,b,White,0,,0,15,1310378,,0,0,,,,,,,,,,,,,Pictures\white.bmp,3000,16000,Pictures\RedLeft.bmp,,,,,,,,,,7,1,7,StimulusPr,Pictures\black.bmp,NonCuedStim4,Left
POP_2,27018,1,"<?xml version=""1.0""?>\n<Clock xmlns:dt=""urn:schemas-microsoft-com:datatypes""><Description dt:dt=""string"">E-Prime Primary Realtime Clock</Description><StartTime><Timestamp dt:dt=""int"">0</Timestamp><DateUtc dt:dt=""string"">2014-05-21T22:42:00Z</DateUtc></StartTime><FrequencyChanges><FrequencyChange><Frequency dt:dt=""r8"">2793030000</Frequency><Timestamp dt:dt=""r8"">3.42207729461381E+15</Timestamp><Current dt:dt=""r8"">0</Current><DateUtc dt:dt=""string"">2014-05-21T22:42:00Z</DateUtc></FrequencyChange></FrequencyChanges></Clock>\n",60.031,1,-1783402202,0,,-999999,1,14875,t,44662,59537,5/21/2014,15:42:00,,2,Session2,SessionsList,0,,-999999,3,699133,t,33231,732364,685057,2,1,2,4,,,,,,,,4,1,4,NonCued4,MiniBlocks2,,,,1208196,8,1,r,-999999,18,1336382,r,721,1337103,Green,Congruent,r,White,0,,0,3,1332367,,0,0,,,,,,,,,,,,,Pictures\white.bmp,3000,2000,Pictures\GreenLeft.bmp,,,,,,,,,,8,1,8,StimulusPr,Pictures\black.bmp,NonCuedStim4,Left
POP_2,27018,1,"<?xml version=""1.0""?>\n<Clock xmlns:dt=""urn:schemas-microsoft-com:datatypes""><Description dt:dt=""string"">E-Prime Primary Realtime Clock</Description><StartTime><Timestamp dt:dt=""int"">0</Timestamp><DateUtc dt:dt=""string"">2014-05-21T22:42:00Z</DateUtc></StartTime><FrequencyChanges><FrequencyChange><Frequency dt:dt=""r8"">2793030000</Frequency><Timestamp dt:dt=""r8"">3.42207729461381E+15</Timestamp><Current dt:dt=""r8"">0</Current><DateUtc dt:dt=""string"">2014-05-21T22:42:00Z</DateUtc></FrequencyChange></FrequencyChanges></Clock>\n",60.031,1,-1783402202,0,,-999999,1,14875,t,44662,59537,5/21/2014,15:42:00,,2,Session2,SessionsList,0,,-999999,3,699133,t,33231,732364,685057,2,1,2,4,,,,,,,,4,1,4,NonCued4,MiniBlocks2,,,,1208196,9,1,b,-999999,13,1347376,b,405,1347781,Green,Congruent,b,White,0,,0,17,1340380,,0,0,,,,,,,,,,,,,Pictures\white.bmp,6000,2000,Pictures\black.bmp,,,,,,,,,,9,1,9,StimulusPr,Pictures\GreenRight.bmp,NonCuedStim4,Right
POP_2,27018,1,"<?xml version=""1.0""?>\n<Clock xmlns:dt=""urn:schemas-microsoft-com:datatypes""><Description dt:dt=""string"">E-Prime Primary Realtime Clock</Description><StartTime><Timestamp dt:dt=""int"">0</Timestamp><DateUtc dt:dt=""string"">2014-05-21T22:42:00Z</DateUtc></StartTime><FrequencyChanges><FrequencyChange><Frequency dt:dt=""r8"">2793030000</Frequency><Timestamp dt:dt=""r8"">3.42207729461381E+15</Timestamp><Current dt:dt=""r8"">0</Current><DateUtc dt:dt=""string"">2014-05-21T22:42:00Z</DateUtc></FrequencyChange></FrequencyChanges></Clock>\n",60.031,1,-1783402202,0,,-999999,1,14875,t,44662,59537,5/21/2014,15:42:00,,2,Session2,SessionsList,0,,-999999,3,699133,t,33231,732364,685057,2,1,2,4,,,,,,,,4,1,4,NonCued4,MiniBlocks2,,,,1208196,10,1,b,-999999,8,1356372,b,531,1356903,Green,Congruent,b,White,0,,0,10,1351374,,0,0,,,,,,,,,,,,,Pictures\white.bmp,4000,4000,Pictures\black.bmp,,,,,,,,,,10,1,10,StimulusPr,Pictures\GreenRight.bmp,NonCuedStim4,Right
