ExperimentName,Subject,Session,Clock.Information,Display.RefreshRate,Group,RandomSeed,Session1Onset.ACC,Session1Onset.CRESP,Session1Onset.DurationError,Session1Onset.OnsetDelay,Session1Onset.OnsetTime,Session1Onset.RESP,Session1Onset.RT,Session1Onset.RTTime,SessionDate,SessionTime,SessionTimeUtc,Block,Procedure[Block],Running[Block],Session2Onset.ACC,Session2Onset.CRESP,Session2Onset.DurationError,Session2Onset.OnsetDelay,Session2Onset.OnsetTime,Session2Onset.RESP,Session2Onset.RT,Session2Onset.RTTime,SessionBreak.OnsetTime,SessionsList,SessionsList.Cycle,SessionsList.Sample,Trial,CuedPrompt1.OnsetTime,CuedPrompt2.OnsetTime,CuedPrompt3.OnsetTime,CuedPrompt4.OnsetTime,MiniBlocks1,MiniBlocks1.Cycle,MiniBlocks1.Sample,MiniBlocks2,MiniBlocks2.Cycle,MiniBlocks2.Sample,Procedure[Trial],Running[Trial],UncuedPrompt1.OnsetTime,UncuedPrompt2.OnsetTime,UncuedPrompt3.OnsetTime,UncuedPrompt4.OnsetTime,SubTrial,Arrow1.ACC,Arrow1.CRESP,Arrow1.DurationError,Arrow1.OnsetDelay,Arrow1.OnsetTime,Arrow1.RESP,Arrow1.RT,Arrow1.RTTime,ArrowColor,Congruence,CorrectResp,Cue,Cue.ACC,Cue.CRESP,Cue.DurationError,Cue.OnsetDelay,Cue.OnsetTime,Cue.RESP,Cue.RT,Cue.RTTime,CuedStim1,CuedStim1.Cycle,CuedStim1.Sample,CuedStim2,CuedStim2.Cycle,CuedStim2.Sample,CuedStim3,CuedStim3.Cycle,CuedStim3.Sample,CuedStim4,CuedStim4.Cycle,CuedStim4.Sample,CueImage,JitterCue,JitterTrial,LeftImage,NonCuedStim1,NonCuedStim1.Cycle,NonCuedStim1.Sample,NonCuedStim2,NonCuedStim2.Cycle,NonCuedStim2.Sample,NonCuedStim3,NonCuedStim3.Cycle,NonCuedStim3.Sample,NonCuedStim4,NonCuedStim4.Cycle,NonCuedStim4.Sample,Procedure[SubTrial],RightImage,Running[SubTrial],Stimulus
POP_2,27041,1,"<?xml version=""1.0""?>\n<Clock xmlns:dt=""urn:schemas-microsoft-com:datatypes""><Description dt:dt=""string"">E-Prime Primary Realtime Clock</Description><StartTime><Timestamp dt:dt=""int"">0</Timestamp><DateUtc dt:dt=""string"">2014-06-07T20:07:39Z</DateUtc></StartTime><FrequencyChanges><FrequencyChange><Frequency dt:dt=""r8"">2793040000</Frequency><Timestamp dt:dt=""r8"">1.03128315866605E+15</Timestamp><Current dt:dt=""r8"">0</Current><DateUtc dt:dt=""string"">2014-06-07T20:07:39Z</DateUtc></FrequencyChange></FrequencyChanges></Clock>\n",60.03,1,1929461600,0,,-999999,3,51652,t,9153,60805,6/7/2014,13:07:39,8:07:39 PM,1,Session1,SessionsList,,,,,,,,,,1,1,1,1,,,,,,,,1,1,1,NonCued3,MiniBlocks2,,,60814,,1,1,b,-999999,15,80820,b,828,81648,Green,Congruent,b,White,0,,0,4,70809,,0,0,,,,,,,,,,,,,Pictures\white.bmp,9000,10000,Pictures\black.bmp,,,,,,,1,1,1,,,,StimulusPr,Pictures\GreenRight.bmp,NonCuedStim3,Right
POP_2,27041,1,"<?xml version=""1.0""?>\n<Clock xmlns:dt=""urn:schemas-microsoft-com:datatypes""><Description dt:dt=""string"">E-Prime Primary Realtime Clock</Description><StartTime><Timestamp dt:dt=""int"">0</Timestamp><DateUtc dt:dt=""string"">2014-06-07T20:07:39Z</DateUtc></StartTime><FrequencyChanges><FrequencyChange><Frequency dt:dt=""r8"">2793040000</Frequency><Timestamp dt:dt=""r8"">1.03128315866605E+15</Timestamp><Current dt:dt=""r8"">0</Current><DateUtc dt:dt=""string"">2014-06-07T20:07:39Z</DateUtc></FrequencyChange></FrequencyChanges></Clock>\n",60.03,1,1929461600,0,,-999999,3,51652,t,9153,60805,6/7/2014,13:07:39,8:07:39 PM,1,Session1,SessionsList,,,,,,,,,,1,1,1,1,,,,,,,,1,1,1,NonCued3,MiniBlocks2,,,60814,,2,1,r,-999999,4,102809,r,858,103667,Red,Incongruent,r,White,0,,0,9,92814,,0,0,,,,,,,,,,,,,Pictures\white.bmp,9000,10000,Pictures\black.bmp,,,,,,,2,1,2,,,,StimulusPr,Pictures\RedRight.bmp,NonCuedStim3,Right
POP_2,27041,1,"<?xml version=""1.0""?>\n<Clock xmlns:dt=""urn:schemas-microsoft-com:datatypes""><Description dt:dt=""string"">E-Prime Primary Realtime Clock</Description><StartTime><Timestamp dt:dt=""int"">0</Timestamp><DateUtc dt:dt=""string"">2014-06-07T20:07:39Z</DateUtc></StartTime><FrequencyChanges><FrequencyChange><Frequency dt:dt=""r8"">2793040000</Frequency><Timestamp dt:dt=""r8"">1.03128315866605E+15</Timestamp><Current dt:dt=""r8"">0</Current><DateUtc dt:dt=""string"">2014-06-07T20:07:39Z</DateUtc></FrequencyChange></FrequencyChanges></Clock>\n",60.03,1,1929461600,0,,-999999,3,51652,t,9153,60805,6/7/2014,13:07:39,8:07:39 PM,1,Session1,SessionsList,,,,,,,,,,1,1,1,1,,,,,,,,1,1,1,NonCued3,MiniBlocks2,,,60814,,3,1,r,-999999,12,119817,r,916,120733,Green,Congruent,r,White,0,,0,15,114820,,0,0,,,,,,,,,,,,,Pictures\white.bmp,4000,4000,Pictures\GreenLeft.bmp,,,,,,,3,1,3,,,,StimulusPr,Pictures\black.bmp,NonCuedStim3,Left
POP_2,27041,1,"<?xml version=""1.0""?>\n<Clock xmlns:dt=""urn:schemas-microsoft-com:datatypes""><Description dt:dt=""string"">E-Prime Primary Realtime Clock</Description><StartTime><Timestamp dt:dt=""int"">0</Timestamp><DateUtc dt:dt=""string"">2014-06-07T20:07:39Z</DateUtc></StartTime><FrequencyChanges><FrequencyChange><Frequency dt:dt=""r8"">2793040000</Frequency><Timestamp dt:dt=""r8"">1.03128315866605E+15</Timestamp><Current dt:dt=""r8"">0</Current><DateUtc dt:dt=""string"">2014-06-07T20:07:39Z</DateUtc></FrequencyChange></FrequencyChanges></Clock>\n",60.03,1,1929461600,0,,-999999,3,51652,t,9153,60805,6/7/2014,13:07:39,8:07:39 PM,1,Session1,SessionsList,,,,,,,,,,1,1,1,1,,,,,,,,1,1,1,NonCued3,MiniBlocks2,,,60814,,4,1,b,-999999,6,132811,b,642,133453,Red,Incongruent,b,White,0,,0,9,125814,,0,0,,,,,,,,,,,,,Pictures\white.bmp,6000,4000,Pictures\RedLeft.bmp,,,,,,,4,1,4,,,,StimulusPr,Pictures\black.bmp,NonCuedStim3,Left
POP_2,27041,1,"<?xml version=""1.0""?>\n<Clock xmlns:dt=""urn:schemas-microsoft-com:datatypes""><Description dt:dt=""string"">E-Prime Primary Realtime Clock</Description><StartTime><Timestamp dt:dt=""int"">0</Timestamp><DateUtc dt:dt=""string"">2014-06-07T20:07:39Z</DateUtc></StartTime><FrequencyChanges><FrequencyChange><Frequency dt:dt=""r8"">2793040000</Frequency><Timestamp dt:dt=""r8"">1.03128315866605E+15</Timestamp><Current dt:dt=""r8"">0</Current><DateUtc dt:dt=""string"">2014-06-07T20:07:39Z</DateUtc></FrequencyChange></FrequencyChanges></Clock>\n",60.03,1,1929461600,0,,-999999,3,51652,t,9153,60805,6/7/2014,13:07:39,8:07:39 PM,1,Session1,SessionsList,,,,,,,,,,1,1,1,1,,,,,,,,1,1,1,NonCued3,MiniBlocks2,,,60814,,5,1,b,-999999,18,142823,b,783,143606,Green,Congruent,b,White,0,,0,3,138808,,0,0,,,,,,,,,,,,,Pictures\white.bmp,3000,2000,Pictures\black.bmp,,,,,,,5,1,5,,,,StimulusPr,Pictures\GreenRight.bmp,NonCuedStim3,Right
POP_2,27041,1,"<?xml version=""1.0""?>\n<Clock xmlns:dt=""urn:schemas-microsoft-com:datatypes""><Description dt:dt=""string"">E-Prime Primary Realtime Clock</Description><StartTime><Timestamp dt:dt=""int"">0</Timestamp><DateUtc dt:dt=""string"">2014-06-07T20:07:39Z</DateUtc></StartTime><FrequencyChanges><FrequencyChange><Frequency dt:dt=""r8"">2793040000</Frequency><Timestamp dt:dt=""r8"">1.03128315866605E+15</Timestamp><Current dt:dt=""r8"">0</Current><DateUtc dt:dt=""string"">2014-06-07T20:07:39Z</DateUtc></FrequencyChange></FrequencyChanges></Clock>\n",60.03,1,1929461600,0,,-999999,3,51652,t,9153,60805,6/7/2014,13:07:39,8:07:39 PM,1,Session1,SessionsList,,,,,,,,,,1,1,1,1,,,,,,,,1,1,1,NonCued3,MiniBlocks2,,,60814,,6,1,r,-999999,14,150819,r,798,151617,Green,Congruent,r,White,0,,0,16,146821,,0,0,,,,,,,,,,,,,Pictures\white.bmp,3000,2000,Pictures\GreenLeft.bmp,,,,,,,6,1,6,,,,StimulusPr,Pictures\black.bmp,NonCuedStim3,Left
POP_2,27041,1,"<?xml version=""1.0""?>\n<Clock xmlns:dt=""urn:schemas-microsoft-com:datatypes""><Description dt:dt=""string"">E-Prime Primary Realtime Clock</Description><StartTime><Timestamp dt:dt=""int"">0</Timestamp><DateUtc dt:dt=""string"">2014-06-07T20:07:39Z</DateUtc></StartTime><FrequencyChanges><FrequencyChange><Frequency dt:dt=""r8"">2793040000</Frequency><Timestamp dt:dt=""r8"">1.03128315866605E+15</Timestamp><Current dt:dt=""r8"">0</Current><DateUtc dt:dt=""string"">2014-06-07T20:07:39Z</DateUtc></FrequencyChange></FrequencyChanges></Clock>\n",60.03,1,1929461600,0,,-999999,3,51652,t,9153,60805,6/7/2014,13:07:39,8:07:39 PM,1,Session1,SessionsList,,,,,,,,,,1,1,1,1,,,,,,,,1,1,1,NonCued3,MiniBlocks2,,,60814,,7,1,b,-999999,8,161813,b,566,162379,Green,Congruent,b,White,0,,0,12,154817,,0,0,,,,,,,,,,,,,Pictures\white.bmp,6000,16000,Pictures\black.bmp,,,,,,,7,1,7,,,,StimulusPr,Pictures\GreenRight.bmp,NonCuedStim3,Right
POP_2,27041,1,"<?xml version=""1.0""?>\n<Clock xmlns:dt=""urn:schemas-microsoft-com:datatypes""><Description dt:dt=""string"">E-Prime Primary Realtime Clock</Description><StartTime><Timestamp dt:dt=""int"">0</Timestamp><DateUtc dt:dt=""string"">2014-06-07T20:07:39Z</DateUtc></StartTime><FrequencyChanges><FrequencyChange><Frequency dt:dt=""r8"">2793040000</Frequency><Timestamp dt:dt=""r8"">1.03128315866605E+15</Timestamp><Current dt:dt=""r8"">0</Current><DateUtc dt:dt=""string"">2014-06-07T20:07:39Z</DateUtc></FrequencyChange></FrequencyChanges></Clock>\n",60.03,1,1929461600,0,,-999999,3,51652,t,9153,60805,6/7/2014,13:07:39,8:07:39 PM,1,Session1,SessionsList,,,,,,,,,,1,1,1,1,,,,,,,,1,1,1,NonCued3,MiniBlocks2,,,60814,,8,1,r,-999999,14,183819,r,688,184507,Red,Incongruent,r,White,0,,0,16,179821,,0,0,,,,,,,,,,,,,Pictures\white.bmp,3000,2000,Pictures\black.bmp,,,,,,,8,1,8,,,,StimulusPr,Pictures\RedRight.bmp,NonCuedStim3,Right
POP_2,27041,1,"<?xml version=""1.0""?>\n<Clock xmlns:dt=""urn:schemas-microsoft-com:datatypes""><Description dt:dt=""string"">E-Prime Primary Realtime Clock</Description><StartTime><Timestamp dt:dt=""int"">0</Timestamp><DateUtc dt:dt=""string"">2014-06-07T20:07:39Z</DateUtc></StartTime><FrequencyChanges><FrequencyChange><Frequency dt:dt=""r8"">2793040000</Frequency><Timestamp dt:dt=""r8"">1.03128315866605E+15</Timestamp><Current dt:dt=""r8"">0</Current><DateUtc dt:dt=""string"">2014-06-07T20:07:39Z</DateUtc></FrequencyChange></FrequencyChanges></Clock>\n",60.03,1,1929461600,0,,-999999,3,51652,t,9153,60805,6/7/2014,13:07:39,8:07:39 PM,1,Session1,SessionsList,,,,,,,,,,1,1,1,1,,,,,,,,1,1,1,NonCued3,MiniBlocks2,,,60814,,9,1,r,-999999,8,197812,r,894,198706,Green,Congruent,r,White,0,,0,13,187817,,0,0,,,,,,,,,,,,,Pictures\white.bmp,9000,10000,Pictures\GreenLeft.bmp,,,,,,,9,1,9,,,,StimulusPr,Pictures\black.bmp,NonCuedStim3,Left
POP_2,27041,1,"<?xml version=""1.0""?>\n<Clock xmlns:dt=""urn:schemas-microsoft-com:datatypes""><Description dt:dt=""string"">E-Prime Primary Realtime Clock</Description><StartTime><Timestamp dt:dt=""int"">0</Timestamp><DateUtc dt:dt=""string"">2014-06-07T20:07:39Z</DateUtc></StartTime><FrequencyChanges><FrequencyChange><Frequency dt:dt=""r8"">2793040000</Frequency><Timestamp dt:dt=""r8"">1.03128315866605E+15</Timestamp><Current dt:dt=""r8"">0</Current><DateUtc dt:dt=""string"">2014-06-07T20:07:39Z</DateUtc></FrequencyChange></FrequencyChanges></Clock>\n",60.03,1,1929461600,0,,-999999,3,51652,t,9153,60805,6/7/2014,13:07:39,8:07:39 PM,1,Session1,SessionsList,,,,,,,,,,1,1,1,1,,,,,,,,1,1,1,NonCued3,MiniBlocks2,,,60814,,10,1,r,-999999,15,216819,r,607,217426,Green,Congruent,r,White,0,,0,18,209822,,0,0,,,,,,,,,,,,,Pictures\white.bmp,6000,4000,Pictures\GreenLeft.bmp,,,,,,,10,1,10,,,,StimulusPr,Pictures\black.bmp,NonCuedStim3,Left
POP_2,27041,1,"<?xml version=""1.0""?>\n<Clock xmlns:dt=""urn:schemas-microsoft-com:datatypes""><Description dt:dt=""string"">E-Prime Primary Realtime Clock</Description><StartTime><Timestamp dt:dt=""int"">0</Timestamp><DateUtc dt:dt=""string"">2014-06-07T20:07:39Z</DateUtc></StartTime><FrequencyChanges><FrequencyChange><Frequency dt:dt=""r8"">2793040000</Frequency><Timestamp dt:dt=""r8"">1.03128315866605E+15</Timestamp><Current dt:dt=""r8"">0</Current><DateUtc dt:dt=""string"">2014-06-07T20:07:39Z</DateUtc></FrequencyChange></FrequencyChanges></Clock>\n",60.03,1,1929461600,0,,-999999,3,51652,t,9153,60805,6/7/2014,13:07:39,8:07:39 PM,1,Session1,SessionsList,,,,,,,,,,1,1,1,2,,,221450,,,,,2,1,2,Cued3,MiniBlocks2,,,,,1,1,b,-999999,5,235809,b,611,236420,White,Congruent,b,Green,0,,0,7,231811,,0,0,,,,,,,1,1,1,,,,Pictures\green.bmp,3000,2000,Pictures\black.bmp,,,,,,,,,,,,,StimulusPr,Pictures\right.bmp,CuedStim3,Right
POP_2,27041,1,"<?xml version=""1.0""?>\n<Clock xmlns:dt=""urn:schemas-microsoft-com:datatypes""><Description dt:dt=""string"">E-Prime Primary Realtime Clock</Description><StartTime><Timestamp dt:dt=""int"">0</Timestamp><DateUtc dt:dt=""string"">2014-06-07T20:07:39Z</DateUtc></StartTime><FrequencyChanges><FrequencyChange><Frequency dt:dt=""r8"">2793040000</Frequency><Timestamp dt:dt=""r8"">1.03128315866605E+15</Timestamp><Current dt:dt=""r8"">0</Current><DateUtc dt:dt=""string"">2014-06-07T20:07:39Z</DateUtc></FrequencyChange></FrequencyChanges></Clock>\n",60.03,1,1929461600,0,,-999999,3,51652,t,9153,60805,6/7/2014,13:07:39,8:07:39 PM,1,Session1,SessionsList,,,,,,,,,,1,1,1,2,,,221450,,,,,2,1,2,Cued3,MiniBlocks2,,,,,2,1,b,-999999,18,243822,b,483,244305,White,Congruent,b,Green,0,,0,3,239807,,0,0,,,,,,,2,1,2,,,,Pictures\green.bmp,3000,10000,Pictures\black.bmp,,,,,,,,,,,,,StimulusPr,Pictures\right.bmp,CuedStim3,Right
POP_2,27041,1,"<?xml version=""1.0""?>\n<Clock xmlns:dt=""urn:schemas-microsoft-com:datatypes""><Description dt:dt=""string"">E-Prime Primary Realtime Clock</Description><StartTime><Timestamp dt:dt=""int"">0</Timestamp><DateUtc dt:dt=""string"">2014-06-07T20:07:39Z</DateUtc></StartTime><FrequencyChanges><FrequencyChange><Frequency dt:dt=""r8"">2793040000</Frequency><Timestamp dt:dt=""r8"">1.03128315866605E+15</Timestamp><Current dt:dt=""r8"">0</Current><DateUtc dt:dt=""string"">2014-06-07T20:07:39Z</DateUtc></FrequencyChange></FrequencyChanges></Clock>\n",60.03,1,1929461600,0,,-999999,3,51652,t,9153,60805,6/7/2014,13:07:39,8:07:39 PM,1,Session1,SessionsList,,,,,,,,,,1,1,1,2,,,221450,,,,,2,1,2,Cued3,MiniBlocks2,,,,,3,1,r,-999999,7,265811,r,410,266221,White,Congruent,r,Green,0,,0,5,255799,,0,0,,,,,,,3,1,3,,,,Pictures\green.bmp,9000,2000,Pictures\left.bmp,,,,,,,,,,,,,StimulusPr,Pictures\black.bmp,CuedStim3,Left
POP_2,27041,1,"<?xml version=""1.0""?>\n<Clock xmlns:dt=""urn:schemas-microsoft-com:datatypes""><Description dt:dt=""string"">E-Prime Primary Realtime Clock</Description><StartTime><Timestamp dt:dt=""int"">0</Timestamp><DateUtc dt:dt=""string"">2014-06-07T20:07:39Z</DateUtc></StartTime><FrequencyChanges><FrequencyChange><Frequency dt:dt=""r8"">2793040000</Frequency><Timestamp dt:dt=""r8"">1.03128315866605E+15</Timestamp><Current dt:dt=""r8"">0</Current><DateUtc dt:dt=""string"">2014-06-07T20:07:39Z</DateUtc></FrequencyChange></FrequencyChanges></Clock>\n",60.03,1,1929461600,0,,-999999,3,51652,t,9153,60805,6/7/2014,13:07:39,8:07:39 PM,1,Session1,SessionsList,,,,,,,,,,1,1,1,2,,,221450,,,,,2,1,2,Cued3,MiniBlocks2,,,,,4,1,r,-999999,19,274823,r,489,275312,White,Congruent,r,Green,0,,0,5,269809,,0,0,,,,,,,4,1,4,,,,Pictures\green.bmp,4000,16000,Pictures\left.bmp,,,,,,,,,,,,,StimulusPr,Pictures\black.bmp,CuedStim3,Left
POP_2,27041,1,"<?xml version=""1.0""?>\n<Clock xmlns:dt=""urn:schemas-microsoft-com:datatypes""><Description dt:dt=""string"">E-Prime Primary Realtime Clock</Description><StartTime><Timestamp dt:dt=""int"">0</Timestamp><DateUtc dt:dt=""string"">2014-06-07T20:07:39Z</DateUtc></StartTime><FrequencyChanges><FrequencyChange><Frequency dt:dt=""r8"">2793040000</Frequency><Timestamp dt:dt=""r8"">1.03128315866605E+15</Timestamp><Current dt:dt=""r8"">0</Current><DateUtc dt:dt=""string"">2014-06-07T20:07:39Z</DateUtc></FrequencyChange></FrequencyChanges></Clock>\n",60.03,1,1929461600,0,,-999999,3,51652,t,9153,60805,6/7/2014,13:07:39,8:07:39 PM,1,Session1,SessionsList,,,,,,,,,,1,1,1,2,,,221450,,,,,2,1,2,Cued3,MiniBlocks2,,,,,5,1,r,-999999,8,296812,r,675,297487,White,Incongruent,r,Red,0,,0,10,292814,,0,0,,,,,,,5,1,5,,,,Pictures\red.bmp,3000,4000,Pictures\black.bmp,,,,,,,,,,,,,StimulusPr,Pictures\right.bmp,CuedStim3,Right
POP_2,27041,1,"<?xml version=""1.0""?>\n<Clock xmlns:dt=""urn:schemas-microsoft-com:datatypes""><Description dt:dt=""string"">E-Prime Primary Realtime Clock</Description><StartTime><Timestamp dt:dt=""int"">0</Timestamp><DateUtc dt:dt=""string"">2014-06-07T20:07:39Z</DateUtc></StartTime><FrequencyChanges><FrequencyChange><Frequency dt:dt=""r8"">2793040000</Frequency><Timestamp dt:dt=""r8"">1.03128315866605E+15</Timestamp><Current dt:dt=""r8"">0</Current><DateUtc dt:dt=""string"">2014-06-07T20:07:39Z</DateUtc></FrequencyChange></FrequencyChanges></Clock>\n",60.03,1,1929461600,0,,-999999,3,51652,t,9153,60805,6/7/2014,13:07:39,8:07:39 PM,1,Session1,SessionsList,,,,,,,,,,1,1,1,2,,,221450,,,,,2,1,2,Cued3,MiniBlocks2,,,,,6,1,b,-999999,18,309822,b,484,310306,White,Congruent,b,Green,0,,0,5,302809,,0,0,,,,,,,6,1,6,,,,Pictures\green.bmp,6000,4000,Pictures\black.bmp,,,,,,,,,,,,,StimulusPr,Pictures\right.bmp,CuedStim3,Right
POP_2,27041,1,"<?xml version=""1.0""?>\n<Clock xmlns:dt=""urn:schemas-microsoft-com:datatypes""><Description dt:dt=""string"">E-Prime Primary Realtime Clock</Description><StartTime><Timestamp dt:dt=""int"">0</Timestamp><DateUtc dt:dt=""string"">2014-06-07T20:07:39Z</DateUtc></StartTime><FrequencyChanges><FrequencyChange><Frequency dt:dt=""r8"">2793040000</Frequency><Timestamp dt:dt=""r8"">1.03128315866605E+15</Timestamp><Current dt:dt=""r8"">0</Current><DateUtc dt:dt=""string"">2014-06-07T20:07:39Z</DateUtc></FrequencyChange></FrequencyChanges></Clock>\n",60.03,1,1929461600,0,,-999999,3,51652,t,9153,60805,6/7/2014,13:07:39,8:07:39 PM,1,Session1,SessionsList,,,,,,,,,,1,1,1,2,,,221450,,,,,2,1,2,Cued3,MiniBlocks2,,,,,7,1,r,-999999,12,320816,r,637,321453,White,Congruent,r,Green,0,,0,15,315819,,0,0,,,,,,,7,1,7,,,,Pictures\green.bmp,4000,16000,Pictures\left.bmp,,,,,,,,,,,,,StimulusPr,Pictures\black.bmp,CuedStim3,Left
POP_2,27041,1,"<?xml version=""1.0""?>\n<Clock xmlns:dt=""urn:schemas-microsoft-com:datatypes""><Description dt:dt=""string"">E-Prime Primary Realtime Clock</Description><StartTime><Timestamp dt:dt=""int"">0</Timestamp><DateUtc dt:dt=""string"">2014-06-07T20:07:39Z</DateUtc></StartTime><FrequencyChanges><FrequencyChange><Frequency dt:dt=""r8"">2793040000</Frequency><Timestamp dt:dt=""r8"">1.03128315866605E+15</Timestamp><Current dt:dt=""r8"">0</Current><DateUtc dt:dt=""string"">2014-06-07T20:07:39Z</DateUtc></FrequencyChange></FrequencyChanges></Clock>\n",60.03,1,1929461600,0,,-999999,3,51652,t,9153,60805,6/7/2014,13:07:39,8:07:39 PM,1,Session1,SessionsList,,,,,,,,,,1,1,1,2,,,221450,,,,,2,1,2,Cued3,MiniBlocks2,,,,,8,1,b,-999999,18,342822,b,664,343486,White,Incongruent,b,Red,0,,0,3,338807,,0,0,,,,,,,8,1,8,,,,Pictures\red.bmp,3000,2000,Pictures\left.bmp,,,,,,,,,,,,,StimulusPr,Pictures\black.bmp,CuedStim3,Left
POP_2,27041,1,"<?xml version=""1.0""?>\n<Clock xmlns:dt=""urn:schemas-microsoft-com:datatypes""><Description dt:dt=""string"">E-Prime Primary Realtime Clock</Description><StartTime><Timestamp dt:dt=""int"">0</Timestamp><DateUtc dt:dt=""string"">2014-06-07T20:07:39Z</DateUtc></StartTime><FrequencyChanges><FrequencyChange><Frequency dt:dt=""r8"">2793040000</Frequency><Timestamp dt:dt=""r8"">1.03128315866605E+15</Timestamp><Current dt:dt=""r8"">0</Current><DateUtc dt:dt=""string"">2014-06-07T20:07:39Z</DateUtc></FrequencyChange></FrequencyChanges></Clock>\n",60.03,1,1929461600,0,,-999999,3,51652,t,9153,60805,6/7/2014,13:07:39,8:07:39 PM,1,Session1,SessionsList,,,,,,,,,,1,1,1,2,,,221450,,,,,2,1,2,Cued3,MiniBlocks2,,,,,9,1,r,-999999,14,350818,r,491,351309,White,Congruent,r,Green,0,,0,16,346820,,0,0,,,,,,,9,1,9,,,,Pictures\green.bmp,3000,2000,Pictures\left.bmp,,,,,,,,,,,,,StimulusPr,Pictures\black.bmp,CuedStim3,Left
POP_2,27041,1,"<?xml version=""1.0""?>\n<Clock xmlns:dt=""urn:schemas-microsoft-com:datatypes""><Description dt:dt=""string"">E-Prime Primary Realtime Clock</Description><StartTime><Timestamp dt:dt=""int"">0</Timestamp><DateUtc dt:dt=""string"">2014-06-07T20:07:39Z</DateUtc></StartTime><FrequencyChanges><FrequencyChange><Frequency dt:dt=""r8"">2793040000</Frequency><Timestamp dt:dt=""r8"">1.03128315866605E+15</Timestamp><Current dt:dt=""r8"">0</Current><DateUtc dt:dt=""string"">2014-06-07T20:07:39Z</DateUtc></FrequencyChange></FrequencyChanges></Clock>\n",60.03,1,1929461600,0,,-999999,3,51652,t,9153,60805,6/7/2014,13:07:39,8:07:39 PM,1,Session1,SessionsList,,,,,,,,,,1,1,1,2,,,221450,,,,,2,1,2,Cued3,MiniBlocks2,,,,,10,1,b,-999999,7,364811,b,535,365346,White,Congruent,b,Green,0,,0,12,354816,,0,0,,,,,,,10,1,10,,,,Pictures\green.bmp,9000,10000,Pictures\black.bmp,,,,,,,,,,,,,StimulusPr,Pictures\right.bmp,CuedStim3,Right
POP_2,27041,1,"<?xml version=""1.0""?>\n<Clock xmlns:dt=""urn:schemas-microsoft-com:datatypes""><Description dt:dt=""string"">E-Prime Primary Realtime Clock</Description><StartTime><Timestamp dt:dt=""int"">0</Timestamp><DateUtc dt:dt=""string"">2014-06-07T20:07:39Z</DateUtc></StartTime><FrequencyChanges><FrequencyChange><Frequency dt:dt=""r8"">2793040000</Frequency><Timestamp dt:dt=""r8"">1.03128315866605E+15</Timestamp><Current dt:dt=""r8"">0</Current><DateUtc dt:dt=""string"">2014-06-07T20:07:39Z</DateUtc></FrequencyChange></FrequencyChanges></Clock>\n",60.03,1,1929461600,0,,-999999,3,51652,t,9153,60805,6/7/2014,13:07:39,8:07:39 PM,1,Session1,SessionsList,,,,,,,,,,1,1,1,3,,,,375372,,,,3,1,3,Cued4,MiniBlocks2,,,,,1,1,b,-999999,11,392814,b,547,393361,White,Congruent,b,Green,0,,0,13,385817,,0,0,,,,,,,,,,1,1,1,Pictures\green.bmp,6000,2000,Pictures\black.bmp,,,,,,,,,,,,,StimulusPr,Pictures\right.bmp,CuedStim4,Right
POP_2,27041,1,"<?xml version=""1.0""?>\n<Clock xmlns:dt=""urn:schemas-microsoft-com:datatypes""><Description dt:dt=""string"">E-Prime Primary Realtime Clock</Description><StartTime><Timestamp dt:dt=""int"">0</Timestamp><DateUtc dt:dt=""string"">2014-06-07T20:07:39Z</DateUtc></StartTime><FrequencyChanges><FrequencyChange><Frequency dt:dt=""r8"">2793040000</Frequency><Timestamp dt:dt=""r8"">1.03128315866605E+15</Timestamp><Current dt:dt=""r8"">0</Current><DateUtc dt:dt=""string"">2014-06-07T20:07:39Z</DateUtc></FrequencyChange></FrequencyChanges></Clock>\n",60.03,1,1929461600,0,,-999999,3,51652,t,9153,60805,6/7/2014,13:07:39,8:07:39 PM,1,Session1,SessionsList,,,,,,,,,,1,1,1,3,,,,375372,,,,3,1,3,Cued4,MiniBlocks2,,,,,2,1,r,-999999,4,406807,r,616,407423,White,Incongruent,r,Red,0,,0,9,396812,,0,0,,,,,,,,,,2,1,2,Pictures\red.bmp,9000,2000,Pictures\black.bmp,,,,,,,,,,,,,StimulusPr,Pictures\right.bmp,CuedStim4,Right
POP_2,27041,1,"<?xml version=""1.0""?>\n<Clock xmlns:dt=""urn:schemas-microsoft-com:datatypes""><Description dt:dt=""string"">E-Prime Primary Realtime Clock</Description><StartTime><Timestamp dt:dt=""int"">0</Timestamp><DateUtc dt:dt=""string"">2014-06-07T20:07:39Z</DateUtc></StartTime><FrequencyChanges><FrequencyChange><Frequency dt:dt=""r8"">2793040000</Frequency><Timestamp dt:dt=""r8"">1.03128315866605E+15</Timestamp><Current dt:dt=""r8"">0</Current><DateUtc dt:dt=""string"">2014-06-07T20:07:39Z</DateUtc></FrequencyChange></FrequencyChanges></Clock>\n",60.03,1,1929461600,0,,-999999,3,51652,t,9153,60805,6/7/2014,13:07:39,8:07:39 PM,1,Session1,SessionsList,,,,,,,,,,1,1,1,3,,,,375372,,,,3,1,3,Cued4,MiniBlocks2,,,,,3,1,b,-999999,16,414819,b,606,415425,White,Congruent,b,Green,0,,0,18,410821,,0,0,,,,,,,,,,3,1,3,Pictures\green.bmp,3000,4000,Pictures\black.bmp,,,,,,,,,,,,,StimulusPr,Pictures\right.bmp,CuedStim4,Right
POP_2,27041,1,"<?xml version=""1.0""?>\n<Clock xmlns:dt=""urn:schemas-microsoft-com:datatypes""><Description dt:dt=""string"">E-Prime Primary Realtime Clock</Description><StartTime><Timestamp dt:dt=""int"">0</Timestamp><DateUtc dt:dt=""string"">2014-06-07T20:07:39Z</DateUtc></StartTime><FrequencyChanges><FrequencyChange><Frequency dt:dt=""r8"">2793040000</Frequency><Timestamp dt:dt=""r8"">1.03128315866605E+15</Timestamp><Current dt:dt=""r8"">0</Current><DateUtc dt:dt=""string"">2014-06-07T20:07:39Z</DateUtc></FrequencyChange></FrequencyChanges></Clock>\n",60.03,1,1929461600,0,,-999999,3,51652,t,9153,60805,6/7/2014,13:07:39,8:07:39 PM,1,Session1,SessionsList,,,,,,,,,,1,1,1,3,,,,375372,,,,3,1,3,Cued4,MiniBlocks2,,,,,4,1,r,-999999,11,424814,r,679,425493,White,Congruent,r,Green,0,,0,13,420816,,0,0,,,,,,,,,,4,1,4,Pictures\green.bmp,3000,4000,Pictures\left.bmp,,,,,,,,,,,,,StimulusPr,Pictures\black.bmp,CuedStim4,Left
POP_2,27041,1,"<?xml version=""1.0""?>\n<Clock xmlns:dt=""urn:schemas-microsoft-com:datatypes""><Description dt:dt=""string"">E-Prime Primary Realtime Clock</Description><StartTime><Timestamp dt:dt=""int"">0</Timestamp><DateUtc dt:dt=""string"">2014-06-07T20:07:39Z</DateUtc></StartTime><FrequencyChanges><FrequencyChange><Frequency dt:dt=""r8"">2793040000</Frequency><Timestamp dt:dt=""r8"">1.03128315866605E+15</Timestamp><Current dt:dt=""r8"">0</Current><DateUtc dt:dt=""string"">2014-06-07T20:07:39Z</DateUtc></FrequencyChange></FrequencyChanges></Clock>\n",60.03,1,1929461600,0,,-999999,3,51652,t,9153,60805,6/7/2014,13:07:39,8:07:39 PM,1,Session1,SessionsList,,,,,,,,,,1,1,1,3,,,,375372,,,,3,1,3,Cued4,MiniBlocks2,,,,,5,1,b,-999999,6,435809,b,561,436370,White,Incongruent,b,Red,0,,0,8,430811,,0,0,,,,,,,,,,5,1,5,Pictures\red.bmp,4000,16000,Pictures\left.bmp,,,,,,,,,,,,,StimulusPr,Pictures\black.bmp,CuedStim4,Left
POP_2,27041,1,"<?xml version=""1.0""?>\n<Clock xmlns:dt=""urn:schemas-microsoft-com:datatypes""><Description dt:dt=""string"">E-Prime Primary Realtime Clock</Description><StartTime><Timestamp dt:dt=""int"">0</Timestamp><DateUtc dt:dt=""string"">2014-06-07T20:07:39Z</DateUtc></StartTime><FrequencyChanges><FrequencyChange><Frequency dt:dt=""r8"">2793040000</Frequency><Timestamp dt:dt=""r8"">1.03128315866605E+15</Timestamp><Current dt:dt=""r8"">0</Current><DateUtc dt:dt=""string"">2014-06-07T20:07:39Z</DateUtc></FrequencyChange></FrequencyChanges></Clock>\n",60.03,1,1929461600,0,,-999999,3,51652,t,9153,60805,6/7/2014,13:07:39,8:07:39 PM,1,Session1,SessionsList,,,,,,,,,,1,1,1,3,,,,375372,,,,3,1,3,Cued4,MiniBlocks2,,,,,6,1,b,-999999,11,457814,b,579,458393,White,Congruent,b,Green,0,,0,13,453816,,0,0,,,,,,,,,,6,1,6,Pictures\green.bmp,3000,2000,Pictures\black.bmp,,,,,,,,,,,,,StimulusPr,Pictures\right.bmp,CuedStim4,Right
POP_2,27041,1,"<?xml version=""1.0""?>\n<Clock xmlns:dt=""urn:schemas-microsoft-com:datatypes""><Description dt:dt=""string"">E-Prime Primary Realtime Clock</Description><StartTime><Timestamp dt:dt=""int"">0</Timestamp><DateUtc dt:dt=""string"">2014-06-07T20:07:39Z</DateUtc></StartTime><FrequencyChanges><FrequencyChange><Frequency dt:dt=""r8"">2793040000</Frequency><Timestamp dt:dt=""r8"">1.03128315866605E+15</Timestamp><Current dt:dt=""r8"">0</Current><DateUtc dt:dt=""string"">2014-06-07T20:07:39Z</DateUtc></FrequencyChange></FrequencyChanges></Clock>\n",60.03,1,1929461600,0,,-999999,3,51652,t,9153,60805,6/7/2014,13:07:39,8:07:39 PM,1,Session1,SessionsList,,,,,,,,,,1,1,1,3,,,,375372,,,,3,1,3,Cued4,MiniBlocks2,,,,,7,1,b,-999999,4,471807,b,452,472259,White,Congruent,b,Green,0,,0,9,461812,,0,0,,,,,,,,,,7,1,7,Pictures\green.bmp,9000,10000,Pictures\black.bmp,,,,,,,,,,,,,StimulusPr,Pictures\right.bmp,CuedStim4,Right
POP_2,27041,1,"<?xml version=""1.0""?>\n<Clock xmlns:dt=""urn:schemas-microsoft-com:datatypes""><Description dt:dt=""string"">E-Prime Primary Realtime Clock</Description><StartTime><Timestamp dt:dt=""int"">0</Timestamp><DateUtc dt:dt=""string"">2014-06-07T20:07:39Z</DateUtc></StartTime><FrequencyChanges><FrequencyChange><Frequency dt:dt=""r8"">2793040000</Frequency><Timestamp dt:dt=""r8"">1.03128315866605E+15</Timestamp><Current dt:dt=""r8"">0</Current><DateUtc dt:dt=""string"">2014-06-07T20:07:39Z</DateUtc></FrequencyChange></FrequencyChanges></Clock>\n",60.03,1,1929461600,0,,-999999,3,51652,t,9153,60805,6/7/2014,13:07:39,8:07:39 PM,1,Session1,SessionsList,,,,,,,,,,1,1,1,3,,,,375372,,,,3,1,3,Cued4,MiniBlocks2,,,,,8,1,b,-999999,11,490814,b,783,491597,White,Incongruent,b,Red,0,,0,15,483818,,0,0,,,,,,,,,,8,1,8,Pictures\red.bmp,6000,10000,Pictures\left.bmp,,,,,,,,,,,,,StimulusPr,Pictures\black.bmp,CuedStim4,Left
POP_2,27041,1,"<?xml version=""1.0""?>\n<Clock xmlns:dt=""urn:schemas-microsoft-com:datatypes""><Description dt:dt=""string"">E-Prime Primary Realtime Clock</Description><StartTime><Timestamp dt:dt=""int"">0</Timestamp><DateUtc dt:dt=""string"">2014-06-07T20:07:39Z</DateUtc></StartTime><FrequencyChanges><FrequencyChange><Frequency dt:dt=""r8"">2793040000</Frequency><Timestamp dt:dt=""r8"">1.03128315866605E+15</Timestamp><Current dt:dt=""r8"">0</Current><DateUtc dt:dt=""string"">2014-06-07T20:07:39Z</DateUtc></FrequencyChange></FrequencyChanges></Clock>\n",60.03,1,1929461600,0,,-999999,3,51652,t,9153,60805,6/7/2014,13:07:39,8:07:39 PM,1,Session1,SessionsList,,,,,,,,,,1,1,1,3,,,,375372,,,,3,1,3,Cued4,MiniBlocks2,,,,,9,1,r,-999999,18,509821,r,462,510283,White,Congruent,r,Green,0,,0,5,502808,,0,0,,,,,,,,,,9,1,9,Pictures\green.bmp,6000,16000,Pictures\left.bmp,,,,,,,,,,,,,StimulusPr,Pictures\black.bmp,CuedStim4,Left
POP_2,27041,1,"<?xml version=""1.0""?>\n<Clock xmlns:dt=""urn:schemas-microsoft-com:datatypes""><Description dt:dt=""string"">E-Prime Primary Realtime Clock</Description><StartTime><Timestamp dt:dt=""int"">0</Timestamp><DateUtc dt:dt=""string"">2014-06-07T20:07:39Z</DateUtc></StartTime><FrequencyChanges><FrequencyChange><Frequency dt:dt=""r8"">2793040000</Frequency><Timestamp dt:dt=""r8"">1.03128315866605E+15</Timestamp><Current dt:dt=""r8"">0</Current><DateUtc dt:dt=""string"">2014-06-07T20:07:39Z</DateUtc></FrequencyChange></FrequencyChanges></Clock>\n",60.03,1,1929461600,0,,-999999,3,51652,t,9153,60805,6/7/2014,13:07:39,8:07:39 PM,1,Session1,SessionsList,,,,,,,,,,1,1,1,3,,,,375372,,,,3,1,3,Cued4,MiniBlocks2,,,,,10,1,r,-999999,7,532810,r,636,533446,White,Congruent,r,Green,0,,0,9,527812,,0,0,,,,,,,,,,10,1,10,Pictures\green.bmp,4000,2000,Pictures\left.bmp,,,,,,,,,,,,,StimulusPr,Pictures\black.bmp,CuedStim4,Left
POP_2,27041,1,"<?xml version=""1.0""?>\n<Clock xmlns:dt=""urn:schemas-microsoft-com:datatypes""><Description dt:dt=""string"">E-Prime Primary Realtime Clock</Description><StartTime><Timestamp dt:dt=""int"">0</Timestamp><DateUtc dt:dt=""string"">2014-06-07T20:07:39Z</DateUtc></StartTime><FrequencyChanges><FrequencyChange><Frequency dt:dt=""r8"">2793040000</Frequency><Timestamp dt:dt=""r8"">1.03128315866605E+15</Timestamp><Current dt:dt=""r8"">0</Current><DateUtc dt:dt=""string"">2014-06-07T20:07:39Z</DateUtc></FrequencyChange></FrequencyChanges></Clock>\n",60.03,1,1929461600,0,,-999999,3,51652,t,9153,60805,6/7/2014,13:07:39,8:07:39 PM,1,Session1,SessionsList,,,,,,,,,,1,1,1,4,,,,,,,,4,1,4,NonCued4,MiniBlocks2,,,,535475,1,1,r,-999999,15,549818,r,582,550400,Green,Congruent,r,White,0,,0,17,545820,,0,0,,,,,,,,,,,,,Pictures\white.bmp,3000,2000,Pictures\GreenLeft.bmp,,,,,,,,,,1,1,1,StimulusPr,Pictures\black.bmp,NonCuedStim4,Left
POP_2,27041,1,"<?xml version=""1.0""?>\n<Clock xmlns:dt=""urn:schemas-microsoft-com:datatypes""><Description dt:dt=""string"">E-Prime Primary Realtime Clock</Description><StartTime><Timestamp dt:dt=""int"">0</Timestamp><DateUtc dt:dt=""string"">2014-06-07T20:07:39Z</DateUtc></StartTime><FrequencyChanges><FrequencyChange><Frequency dt:dt=""r8"">2793040000</Frequency><Timestamp dt:dt=""r8"">1.03128315866605E+15</Timestamp><Current dt:dt=""r8"">0</Current><DateUtc dt:dt=""string"">2014-06-07T20:07:39Z</DateUtc></FrequencyChange></FrequencyChanges></Clock>\n",60.03,1,1929461600,0,,-999999,3,51652,t,9153,60805,6/7/2014,13:07:39,8:07:39 PM,1,Session1,SessionsList,,,,,,,,,,1,1,1,4,,,,,,,,4,1,4,NonCued4,MiniBlocks2,,,,535475,2,1,r,-999999,10,558813,r,646,559459,Green,Congruent,r,White,0,,0,13,553816,,0,0,,,,,,,,,,,,,Pictures\white.bmp,4000,2000,Pictures\GreenLeft.bmp,,,,,,,,,,2,1,2,StimulusPr,Pictures\black.bmp,NonCuedStim4,Left
POP_2,27041,1,"<?xml version=""1.0""?>\n<Clock xmlns:dt=""urn:schemas-microsoft-com:datatypes""><Description dt:dt=""string"">E-Prime Primary Realtime Clock</Description><StartTime><Timestamp dt:dt=""int"">0</Timestamp><DateUtc dt:dt=""string"">2014-06-07T20:07:39Z</DateUtc></StartTime><FrequencyChanges><FrequencyChange><Frequency dt:dt=""r8"">2793040000</Frequency><Timestamp dt:dt=""r8"">1.03128315866605E+15</Timestamp><Current dt:dt=""r8"">0</Current><DateUtc dt:dt=""string"">2014-06-07T20:07:39Z</DateUtc></FrequencyChange></FrequencyChanges></Clock>\n",60.03,1,1929461600,0,,-999999,3,51652,t,9153,60805,6/7/2014,13:07:39,8:07:39 PM,1,Session1,SessionsList,,,,,,,,,,1,1,1,4,,,,,,,,4,1,4,NonCued4,MiniBlocks2,,,,535475,3,1,r,-999999,6,567809,r,542,568351,Red,Incongruent,r,White,0,,0,8,562811,,0,0,,,,,,,,,,,,,Pictures\white.bmp,4000,2000,Pictures\black.bmp,,,,,,,,,,3,1,3,StimulusPr,Pictures\RedRight.bmp,NonCuedStim4,Right
POP_2,27041,1,"<?xml version=""1.0""?>\n<Clock xmlns:dt=""urn:schemas-microsoft-com:datatypes""><Description dt:dt=""string"">E-Prime Primary Realtime Clock</Description><StartTime><Timestamp dt:dt=""int"">0</Timestamp><DateUtc dt:dt=""string"">2014-06-07T20:07:39Z</DateUtc></StartTime><FrequencyChanges><FrequencyChange><Frequency dt:dt=""r8"">2793040000</Frequency><Timestamp dt:dt=""r8"">1.03128315866605E+15</Timestamp><Current dt:dt=""r8"">0</Current><DateUtc dt:dt=""string"">2014-06-07T20:07:39Z</DateUtc></FrequencyChange></FrequencyChanges></Clock>\n",60.03,1,1929461600,0,,-999999,3,51652,t,9153,60805,6/7/2014,13:07:39,8:07:39 PM,1,Session1,SessionsList,,,,,,,,,,1,1,1,4,,,,,,,,4,1,4,NonCued4,MiniBlocks2,,,,535475,4,1,b,-999999,2,575805,b,931,576736,Green,Congruent,b,White,0,,0,4,571807,,0,0,,,,,,,,,,,,,Pictures\white.bmp,3000,16000,Pictures\black.bmp,,,,,,,,,,4,1,4,StimulusPr,Pictures\GreenRight.bmp,NonCuedStim4,Right
POP_2,27041,1,"<?xml version=""1.0""?>\n<Clock xmlns:dt=""urn:schemas-microsoft-com:datatypes""><Description dt:dt=""string"">E-Prime Primary Realtime Clock</Description><StartTime><Timestamp dt:dt=""int"">0</Timestamp><DateUtc dt:dt=""string"">2014-06-07T20:07:39Z</DateUtc></StartTime><FrequencyChanges><FrequencyChange><Frequency dt:dt=""r8"">2793040000</Frequency><Timestamp dt:dt=""r8"">1.03128315866605E+15</Timestamp><Current dt:dt=""r8"">0</Current><DateUtc dt:dt=""string"">2014-06-07T20:07:39Z</DateUtc></FrequencyChange></FrequencyChanges></Clock>\n",60.03,1,1929461600,0,,-999999,3,51652,t,9153,60805,6/7/2014,13:07:39,8:07:39 PM,1,Session1,SessionsList,,,,,,,,,,1,1,1,4,,,,,,,,4,1,4,NonCued4,MiniBlocks2,,,,535475,5,1,r,-999999,5,603808,r,633,604441,Green,Congruent,r,White,0,,0,10,593813,,0,0,,,,,,,,,,,,,Pictures\white.bmp,9000,10000,Pictures\GreenLeft.bmp,,,,,,,,,,5,1,5,StimulusPr,Pictures\black.bmp,NonCuedStim4,Left
POP_2,27041,1,"<?xml version=""1.0""?>\n<Clock xmlns:dt=""urn:schemas-microsoft-com:datatypes""><Description dt:dt=""string"">E-Prime Primary Realtime Clock</Description><StartTime><Timestamp dt:dt=""int"">0</Timestamp><DateUtc dt:dt=""string"">2014-06-07T20:07:39Z</DateUtc></StartTime><FrequencyChanges><FrequencyChange><Frequency dt:dt=""r8"">2793040000</Frequency><Timestamp dt:dt=""r8"">1.03128315866605E+15</Timestamp><Current dt:dt=""r8"">0</Current><DateUtc dt:dt=""string"">2014-06-07T20:07:39Z</DateUtc></FrequencyChange></FrequencyChanges></Clock>\n",60.03,1,1929461600,0,,-999999,3,51652,t,9153,60805,6/7/2014,13:07:39,8:07:39 PM,1,Session1,SessionsList,,,,,,,,,,1,1,1,4,,,,,,,,4,1,4,NonCued4,MiniBlocks2,,,,535475,6,1,b,-999999,14,619816,b,614,620430,Green,Congruent,b,White,0,,0,16,615818,,0,0,,,,,,,,,,,,,Pictures\white.bmp,3000,16000,Pictures\black.bmp,,,,,,,,,,6,1,6,StimulusPr,Pictures\GreenRight.bmp,NonCuedStim4,Right
POP_2,27041,1,"<?xml version=""1.0""?>\n<Clock xmlns:dt=""urn:schemas-microsoft-com:datatypes""><Description dt:dt=""string"">E-Prime Primary Realtime Clock</Description><StartTime><Timestamp dt:dt=""int"">0</Timestamp><DateUtc dt:dt=""string"">2014-06-07T20:07:39Z</DateUtc></StartTime><FrequencyChanges><FrequencyChange><Frequency dt:dt=""r8"">2793040000</Frequency><Timestamp dt:dt=""r8"">1.03128315866605E+15</Timestamp><Current dt:dt=""r8"">0</Current><DateUtc dt:dt=""string"">2014-06-07T20:07:39Z</DateUtc></FrequencyChange></FrequencyChanges></Clock>\n",60.03,1,1929461600,0,,-999999,3,51652,t,9153,60805,6/7/2014,13:07:39,8:07:39 PM,1,Session1,SessionsList,,,,,,,,,,1,1,1,4,,,,,,,,4,1,4,NonCued4,MiniBlocks2,,,,535475,7,1,b,-999999,3,641805,b,723,642528,Red,Incongruent,b,White,0,,0,5,637807,,0,0,,,,,,,,,,,,,Pictures\white.bmp,3000,16000,Pictures\RedLeft.bmp,,,,,,,,,,7,1,7,StimulusPr,Pictures\black.bmp,NonCuedStim4,Left
POP_2,27041,1,"<?xml version=""1.0""?>\n<Clock xmlns:dt=""urn:schemas-microsoft-com:datatypes""><Description dt:dt=""string"">E-Prime Primary Realtime Clock</Description><StartTime><Timestamp dt:dt=""int"">0</Timestamp><DateUtc dt:dt=""string"">2014-06-07T20:07:39Z</DateUtc></StartTime><FrequencyChanges><FrequencyChange><Frequency dt:dt=""r8"">2793040000</Frequency><Timestamp dt:dt=""r8"">1.03128315866605E+15</Timestamp><Current dt:dt=""r8"">0</Current><DateUtc dt:dt=""string"">2014-06-07T20:07:39Z</DateUtc></FrequencyChange></FrequencyChanges></Clock>\n",60.03,1,1929461600,0,,-999999,3,51652,t,9153,60805,6/7/2014,13:07:39,8:07:39 PM,1,Session1,SessionsList,,,,,,,,,,1,1,1,4,,,,,,,,4,1,4,NonCued4,MiniBlocks2,,,,535475,8,1,r,-999999,9,663811,r,740,664551,Green,Congruent,r,White,0,,0,11,659813,,0,0,,,,,,,,,,,,,Pictures\white.bmp,3000,2000,Pictures\GreenLeft.bmp,,,,,,,,,,8,1,8,StimulusPr,Pictures\black.bmp,NonCuedStim4,Left
POP_2,27041,1,"<?xml version=""1.0""?>\n<Clock xmlns:dt=""urn:schemas-microsoft-com:datatypes""><Description dt:dt=""string"">E-Prime Primary Realtime Clock</Description><StartTime><Timestamp dt:dt=""int"">0</Timestamp><DateUtc dt:dt=""string"">2014-06-07T20:07:39Z</DateUtc></StartTime><FrequencyChanges><FrequencyChange><Frequency dt:dt=""r8"">2793040000</Frequency><Timestamp dt:dt=""r8"">1.03128315866605E+15</Timestamp><Current dt:dt=""r8"">0</Current><DateUtc dt:dt=""string"">2014-06-07T20:07:39Z</DateUtc></FrequencyChange></FrequencyChanges></Clock>\n",60.03,1,1929461600,0,,-999999,3,51652,t,9153,60805,6/7/2014,13:07:39,8:07:39 PM,1,Session1,SessionsList,,,,,,,,,,1,1,1,4,,,,,,,,4,1,4,NonCued4,MiniBlocks2,,,,535475,9,1,b,-999999,3,674805,b,559,675364,Green,Congruent,b,White,0,,0,7,667809,,0,0,,,,,,,,,,,,,Pictures\white.bmp,6000,2000,Pictures\black.bmp,,,,,,,,,,9,1,9,StimulusPr,Pictures\GreenRight.bmp,NonCuedStim4,Right
POP_2,27041,1,"<?xml version=""1.0""?>\n<Clock xmlns:dt=""urn:schemas-microsoft-com:datatypes""><Description dt:dt=""string"">E-Prime Primary Realtime Clock</Description><StartTime><Timestamp dt:dt=""int"">0</Timestamp><DateUtc dt:dt=""string"">2014-06-07T20:07:39Z</DateUtc></StartTime><FrequencyChanges><FrequencyChange><Frequency dt:dt=""r8"">2793040000</Frequency><Timestamp dt:dt=""r8"">1.03128315866605E+15</Timestamp><Current dt:dt=""r8"">0</Current><DateUtc dt:dt=""string"">2014-06-07T20:07:39Z</DateUtc></FrequencyChange></FrequencyChanges></Clock>\n",60.03,1,1929461600,0,,-999999,3,51652,t,9153,60805,6/7/2014,13:07:39,8:07:39 PM,1,Session1,SessionsList,,,,,,,,,,1,1,1,4,,,,,,,,4,1,4,NonCued4,MiniBlocks2,,,,535475,10,1,b,-999999,15,683817,b,649,684466,Green,Congruent,b,White,0,,0,18,678820,,0,0,,,,,,,,,,,,,Pictures\white.bmp,4000,4000,Pictures\black.bmp,,,,,,,,,,10,1,10,StimulusPr,Pictures\GreenRight.bmp,NonCuedStim4,Right
POP_2,27041,1,"<?xml version=""1.0""?>\n<Clock xmlns:dt=""urn:schemas-microsoft-com:datatypes""><Description dt:dt=""string"">E-Prime Primary Realtime Clock</Description><StartTime><Timestamp dt:dt=""int"">0</Timestamp><DateUtc dt:dt=""string"">2014-06-07T20:07:39Z</DateUtc></StartTime><FrequencyChanges><FrequencyChange><Frequency dt:dt=""r8"">2793040000</Frequency><Timestamp dt:dt=""r8"">1.03128315866605E+15</Timestamp><Current dt:dt=""r8"">0</Current><DateUtc dt:dt=""string"">2014-06-07T20:07:39Z</DateUtc></FrequencyChange></FrequencyChanges></Clock>\n",60.03,1,1929461600,0,,-999999,3,51652,t,9153,60805,6/7/2014,13:07:39,8:07:39 PM,2,Session2,SessionsList,0,,-999999,14,708238,t,32735,740973,688482,2,1,2,1,740989,,,,1,1,1,,,,Cued1,MiniBlocks1,,,,,1,1,r,-999999,9,754982,r,478,755460,White,Congruent,r,Green,0,,0,11,749984,,0,0,1,1,1,,,,,,,,,,Pictures\green.bmp,4000,4000,Pictures\left.bmp,,,,,,,,,,,,,StimulusPr,Pictures\black.bmp,CuedStim1,Left
POP_2,27041,1,"<?xml version=""1.0""?>\n<Clock xmlns:dt=""urn:schemas-microsoft-com:datatypes""><Description dt:dt=""string"">E-Prime Primary Realtime Clock</Description><StartTime><Timestamp dt:dt=""int"">0</Timestamp><DateUtc dt:dt=""string"">2014-06-07T20:07:39Z</DateUtc></StartTime><FrequencyChanges><FrequencyChange><Frequency dt:dt=""r8"">2793040000</Frequency><Timestamp dt:dt=""r8"">1.03128315866605E+15</Timestamp><Current dt:dt=""r8"">0</Current><DateUtc dt:dt=""string"">2014-06-07T20:07:39Z</DateUtc></FrequencyChange></FrequencyChanges></Clock>\n",60.03,1,1929461600,0,,-999999,3,51652,t,9153,60805,6/7/2014,13:07:39,8:07:39 PM,2,Session2,SessionsList,0,,-999999,14,708238,t,32735,740973,688482,2,1,2,1,740989,,,,1,1,1,,,,Cued1,MiniBlocks1,,,,,2,1,b,-999999,3,767976,b,597,768573,White,Congruent,b,Green,0,,0,6,760979,,0,0,2,1,2,,,,,,,,,,Pictures\green.bmp,6000,2000,Pictures\black.bmp,,,,,,,,,,,,,StimulusPr,Pictures\right.bmp,CuedStim1,Right
POP_2,27041,1,"<?xml version=""1.0""?>\n<Clock xmlns:dt=""urn:schemas-microsoft-com:datatypes""><Description dt:dt=""string"">E-Prime Primary Realtime Clock</Description><StartTime><Timestamp dt:dt=""int"">0</Timestamp><DateUtc dt:dt=""string"">2014-06-07T20:07:39Z</DateUtc></StartTime><FrequencyChanges><FrequencyChange><Frequency dt:dt=""r8"">2793040000</Frequency><Timestamp dt:dt=""r8"">1.03128315866605E+15</Timestamp><Current dt:dt=""r8"">0</Current><DateUtc dt:dt=""string"">2014-06-07T20:07:39Z</DateUtc></FrequencyChange></FrequencyChanges></Clock>\n",60.03,1,1929461600,0,,-999999,3,51652,t,9153,60805,6/7/2014,13:07:39,8:07:39 PM,2,Session2,SessionsList,0,,-999999,14,708238,t,32735,740973,688482,2,1,2,1,740989,,,,1,1,1,,,,Cued1,MiniBlocks1,,,,,3,1,b,-999999,14,775988,b,498,776486,White,Congruent,b,Green,0,,0,17,771990,,0,0,3,1,3,,,,,,,,,,Pictures\green.bmp,3000,2000,Pictures\black.bmp,,,,,,,,,,,,,StimulusPr,Pictures\right.bmp,CuedStim1,Right
POP_2,27041,1,"<?xml version=""1.0""?>\n<Clock xmlns:dt=""urn:schemas-microsoft-com:datatypes""><Description dt:dt=""string"">E-Prime Primary Realtime Clock</Description><StartTime><Timestamp dt:dt=""int"">0</Timestamp><DateUtc dt:dt=""string"">2014-06-07T20:07:39Z</DateUtc></StartTime><FrequencyChanges><FrequencyChange><Frequency dt:dt=""r8"">2793040000</Frequency><Timestamp dt:dt=""r8"">1.03128315866605E+15</Timestamp><Current dt:dt=""r8"">0</Current><DateUtc dt:dt=""string"">2014-06-07T20:07:39Z</DateUtc></FrequencyChange></FrequencyChanges></Clock>\n",60.03,1,1929461600,0,,-999999,3,51652,t,9153,60805,6/7/2014,13:07:39,8:07:39 PM,2,Session2,SessionsList,0,,-999999,14,708238,t,32735,740973,688482,2,1,2,1,740989,,,,1,1,1,,,,Cued1,MiniBlocks1,,,,,4,1,b,-999999,10,783984,b,553,784537,White,Incongruent,b,Red,0,,0,12,779986,,0,0,4,1,4,,,,,,,,,,Pictures\red.bmp,3000,16000,Pictures\left.bmp,,,,,,,,,,,,,StimulusPr,Pictures\black.bmp,CuedStim1,Left
POP_2,27041,1,"<?xml version=""1.0""?>\n<Clock xmlns:dt=""urn:schemas-microsoft-com:datatypes""><Description dt:dt=""string"">E-Prime Primary Realtime Clock</Description><StartTime><Timestamp dt:dt=""int"">0</Timestamp><DateUtc dt:dt=""string"">2014-06-07T20:07:39Z</DateUtc></StartTime><FrequencyChanges><FrequencyChange><Frequency dt:dt=""r8"">2793040000</Frequency><Timestamp dt:dt=""r8"">1.03128315866605E+15</Timestamp><Current dt:dt=""r8"">0</Current><DateUtc dt:dt=""string"">2014-06-07T20:07:39Z</DateUtc></FrequencyChange></FrequencyChanges></Clock>\n",60.03,1,1929461600,0,,-999999,3,51652,t,9153,60805,6/7/2014,13:07:39,8:07:39 PM,2,Session2,SessionsList,0,,-999999,14,708238,t,32735,740973,688482,2,1,2,1,740989,,,,1,1,1,,,,Cued1,MiniBlocks1,,,,,5,1,r,-999999,15,805989,r,617,806606,White,Congruent,r,Green,0,,0,18,801991,,0,0,5,1,5,,,,,,,,,,Pictures\green.bmp,3000,16000,Pictures\left.bmp,,,,,,,,,,,,,StimulusPr,Pictures\black.bmp,CuedStim1,Left
POP_2,27041,1,"<?xml version=""1.0""?>\n<Clock xmlns:dt=""urn:schemas-microsoft-com:datatypes""><Description dt:dt=""string"">E-Prime Primary Realtime Clock</Description><StartTime><Timestamp dt:dt=""int"">0</Timestamp><DateUtc dt:dt=""string"">2014-06-07T20:07:39Z</DateUtc></StartTime><FrequencyChanges><FrequencyChange><Frequency dt:dt=""r8"">2793040000</Frequency><Timestamp dt:dt=""r8"">1.03128315866605E+15</Timestamp><Current dt:dt=""r8"">0</Current><DateUtc dt:dt=""string"">2014-06-07T20:07:39Z</DateUtc></FrequencyChange></FrequencyChanges></Clock>\n",60.03,1,1929461600,0,,-999999,3,51652,t,9153,60805,6/7/2014,13:07:39,8:07:39 PM,2,Session2,SessionsList,0,,-999999,14,708238,t,32735,740973,688482,2,1,2,1,740989,,,,1,1,1,,,,Cued1,MiniBlocks1,,,,,6,1,r,-999999,19,833992,r,522,834514,White,Congruent,r,Green,0,,0,7,823980,,0,0,6,1,6,,,,,,,,,,Pictures\green.bmp,9000,10000,Pictures\left.bmp,,,,,,,,,,,,,StimulusPr,Pictures\black.bmp,CuedStim1,Left
POP_2,27041,1,"<?xml version=""1.0""?>\n<Clock xmlns:dt=""urn:schemas-microsoft-com:datatypes""><Description dt:dt=""string"">E-Prime Primary Realtime Clock</Description><StartTime><Timestamp dt:dt=""int"">0</Timestamp><DateUtc dt:dt=""string"">2014-06-07T20:07:39Z</DateUtc></StartTime><FrequencyChanges><FrequencyChange><Frequency dt:dt=""r8"">2793040000</Frequency><Timestamp dt:dt=""r8"">1.03128315866605E+15</Timestamp><Current dt:dt=""r8"">0</Current><DateUtc dt:dt=""string"">2014-06-07T20:07:39Z</DateUtc></FrequencyChange></FrequencyChanges></Clock>\n",60.03,1,1929461600,0,,-999999,3,51652,t,9153,60805,6/7/2014,13:07:39,8:07:39 PM,2,Session2,SessionsList,0,,-999999,14,708238,t,32735,740973,688482,2,1,2,1,740989,,,,1,1,1,,,,Cued1,MiniBlocks1,,,,,7,1,b,-999999,11,849984,b,656,850640,White,Congruent,b,Green,0,,0,13,845986,,0,0,7,1,7,,,,,,,,,,Pictures\green.bmp,3000,16000,Pictures\black.bmp,,,,,,,,,,,,,StimulusPr,Pictures\right.bmp,CuedStim1,Right
POP_2,27041,1,"<?xml version=""1.0""?>\n<Clock xmlns:dt=""urn:schemas-microsoft-com:datatypes""><Description dt:dt=""string"">E-Prime Primary Realtime Clock</Description><StartTime><Timestamp dt:dt=""int"">0</Timestamp><DateUtc dt:dt=""string"">2014-06-07T20:07:39Z</DateUtc></StartTime><FrequencyChanges><FrequencyChange><Frequency dt:dt=""r8"">2793040000</Frequency><Timestamp dt:dt=""r8"">1.03128315866605E+15</Timestamp><Current dt:dt=""r8"">0</Current><DateUtc dt:dt=""string"">2014-06-07T20:07:39Z</DateUtc></FrequencyChange></FrequencyChanges></Clock>\n",60.03,1,1929461600,0,,-999999,3,51652,t,9153,60805,6/7/2014,13:07:39,8:07:39 PM,2,Session2,SessionsList,0,,-999999,14,708238,t,32735,740973,688482,2,1,2,1,740989,,,,1,1,1,,,,Cued1,MiniBlocks1,,,,,8,1,r,-999999,15,872989,r,608,873597,White,Incongruent,r,Red,0,,0,17,867991,,0,0,8,1,8,,,,,,,,,,Pictures\red.bmp,4000,2000,Pictures\black.bmp,,,,,,,,,,,,,StimulusPr,Pictures\right.bmp,CuedStim1,Right
POP_2,27041,1,"<?xml version=""1.0""?>\n<Clock xmlns:dt=""urn:schemas-microsoft-com:datatypes""><Description dt:dt=""string"">E-Prime Primary Realtime Clock</Description><StartTime><Timestamp dt:dt=""int"">0</Timestamp><DateUtc dt:dt=""string"">2014-06-07T20:07:39Z</DateUtc></StartTime><FrequencyChanges><FrequencyChange><Frequency dt:dt=""r8"">2793040000</Frequency><Timestamp dt:dt=""r8"">1.03128315866605E+15</Timestamp><Current dt:dt=""r8"">0</Current><DateUtc dt:dt=""string"">2014-06-07T20:07:39Z</DateUtc></FrequencyChange></FrequencyChanges></Clock>\n",60.03,1,1929461600,0,,-999999,3,51652,t,9153,60805,6/7/2014,13:07:39,8:07:39 PM,2,Session2,SessionsList,0,,-999999,14,708238,t,32735,740973,688482,2,1,2,1,740989,,,,1,1,1,,,,Cued1,MiniBlocks1,,,,,9,1,b,-999999,11,881984,b,412,882396,White,Congruent,b,Green,0,,0,13,876987,,0,0,9,1,9,,,,,,,,,,Pictures\green.bmp,4000,2000,Pictures\black.bmp,,,,,,,,,,,,,StimulusPr,Pictures\right.bmp,CuedStim1,Right
POP_2,27041,1,"<?xml version=""1.0""?>\n<Clock xmlns:dt=""urn:schemas-microsoft-com:datatypes""><Description dt:dt=""string"">E-Prime Primary Realtime Clock</Description><StartTime><Timestamp dt:dt=""int"">0</Timestamp><DateUtc dt:dt=""string"">2014-06-07T20:07:39Z</DateUtc></StartTime><FrequencyChanges><FrequencyChange><Frequency dt:dt=""r8"">2793040000</Frequency><Timestamp dt:dt=""r8"">1.03128315866605E+15</Timestamp><Current dt:dt=""r8"">0</Current><DateUtc dt:dt=""string"">2014-06-07T20:07:39Z</DateUtc></FrequencyChange></FrequencyChanges></Clock>\n",60.03,1,1929461600,0,,-999999,3,51652,t,9153,60805,6/7/2014,13:07:39,8:07:39 PM,2,Session2,SessionsList,0,,-999999,14,708238,t,32735,740973,688482,2,1,2,1,740989,,,,1,1,1,,,,Cued1,MiniBlocks1,,,,,10,1,r,-999999,7,889980,r,367,890347,White,Congruent,r,Green,0,,0,9,885982,,0,0,10,1,10,,,,,,,,,,Pictures\green.bmp,3000,2000,Pictures\left.bmp,,,,,,,,,,,,,StimulusPr,Pictures\black.bmp,CuedStim1,Left
POP_2,27041,1,"<?xml version=""1.0""?>\n<Clock xmlns:dt=""urn:schemas-microsoft-com:datatypes""><Description dt:dt=""string"">E-Prime Primary Realtime Clock</Description><StartTime><Timestamp dt:dt=""int"">0</Timestamp><DateUtc dt:dt=""string"">2014-06-07T20:07:39Z</DateUtc></StartTime><FrequencyChanges><FrequencyChange><Frequency dt:dt=""r8"">2793040000</Frequency><Timestamp dt:dt=""r8"">1.03128315866605E+15</Timestamp><Current dt:dt=""r8"">0</Current><DateUtc dt:dt=""string"">2014-06-07T20:07:39Z</DateUtc></FrequencyChange></FrequencyChanges></Clock>\n",60.03,1,1929461600,0,,-999999,3,51652,t,9153,60805,6/7/2014,13:07:39,8:07:39 PM,2,Session2,SessionsList,0,,-999999,14,708238,t,32735,740973,688482,2,1,2,2,,,,,2,1,2,,,,NonCued1,MiniBlocks1,892379,,,,1,1,r,-999999,16,906989,r,520,907509,Green,Congruent,r,White,0,,0,18,901991,,0,0,,,,,,,,,,,,,Pictures\white.bmp,4000,2000,Pictures\GreenLeft.bmp,1,1,1,,,,,,,,,,StimulusPr,Pictures\black.bmp,NonCuedStim1,Left
POP_2,27041,1,"<?xml version=""1.0""?>\n<Clock xmlns:dt=""urn:schemas-microsoft-com:datatypes""><Description dt:dt=""string"">E-Prime Primary Realtime Clock</Description><StartTime><Timestamp dt:dt=""int"">0</Timestamp><DateUtc dt:dt=""string"">2014-06-07T20:07:39Z</DateUtc></StartTime><FrequencyChanges><FrequencyChange><Frequency dt:dt=""r8"">2793040000</Frequency><Timestamp dt:dt=""r8"">1.03128315866605E+15</Timestamp><Current dt:dt=""r8"">0</Current><DateUtc dt:dt=""string"">2014-06-07T20:07:39Z</DateUtc></FrequencyChange></FrequencyChanges></Clock>\n",60.03,1,1929461600,0,,-999999,3,51652,t,9153,60805,6/7/2014,13:07:39,8:07:39 PM,2,Session2,SessionsList,0,,-999999,14,708238,t,32735,740973,688482,2,1,2,2,,,,,2,1,2,,,,NonCued1,MiniBlocks1,892379,,,,2,1,b,-999999,10,917983,b,530,918513,Green,Congruent,b,White,0,,0,13,910986,,0,0,,,,,,,,,,,,,Pictures\white.bmp,6000,16000,Pictures\black.bmp,2,1,2,,,,,,,,,,StimulusPr,Pictures\GreenRight.bmp,NonCuedStim1,Right
POP_2,27041,1,"<?xml version=""1.0""?>\n<Clock xmlns:dt=""urn:schemas-microsoft-com:datatypes""><Description dt:dt=""string"">E-Prime Primary Realtime Clock</Description><StartTime><Timestamp dt:dt=""int"">0</Timestamp><DateUtc dt:dt=""string"">2014-06-07T20:07:39Z</DateUtc></StartTime><FrequencyChanges><FrequencyChange><Frequency dt:dt=""r8"">2793040000</Frequency><Timestamp dt:dt=""r8"">1.03128315866605E+15</Timestamp><Current dt:dt=""r8"">0</Current><DateUtc dt:dt=""string"">2014-06-07T20:07:39Z</DateUtc></FrequencyChange></FrequencyChanges></Clock>\n",60.03,1,1929461600,0,,-999999,3,51652,t,9153,60805,6/7/2014,13:07:39,8:07:39 PM,2,Session2,SessionsList,0,,-999999,14,708238,t,32735,740973,688482,2,1,2,2,,,,,2,1,2,,,,NonCued1,MiniBlocks1,892379,,,,3,1,r,-999999,15,942987,r,664,943651,Red,Incongruent,r,White,0,,0,3,935975,,0,0,,,,,,,,,,,,,Pictures\white.bmp,6000,10000,Pictures\black.bmp,3,1,3,,,,,,,,,,StimulusPr,Pictures\RedRight.bmp,NonCuedStim1,Right
POP_2,27041,1,"<?xml version=""1.0""?>\n<Clock xmlns:dt=""urn:schemas-microsoft-com:datatypes""><Description dt:dt=""string"">E-Prime Primary Realtime Clock</Description><StartTime><Timestamp dt:dt=""int"">0</Timestamp><DateUtc dt:dt=""string"">2014-06-07T20:07:39Z</DateUtc></StartTime><FrequencyChanges><FrequencyChange><Frequency dt:dt=""r8"">2793040000</Frequency><Timestamp dt:dt=""r8"">1.03128315866605E+15</Timestamp><Current dt:dt=""r8"">0</Current><DateUtc dt:dt=""string"">2014-06-07T20:07:39Z</DateUtc></FrequencyChange></FrequencyChanges></Clock>\n",60.03,1,1929461600,0,,-999999,3,51652,t,9153,60805,6/7/2014,13:07:39,8:07:39 PM,2,Session2,SessionsList,0,,-999999,14,708238,t,32735,740973,688482,2,1,2,2,,,,,2,1,2,,,,NonCued1,MiniBlocks1,892379,,,,4,1,r,-999999,3,964976,r,751,965727,Green,Congruent,r,White,0,,0,8,954981,,0,0,,,,,,,,,,,,,Pictures\white.bmp,9000,10000,Pictures\GreenLeft.bmp,4,1,4,,,,,,,,,,StimulusPr,Pictures\black.bmp,NonCuedStim1,Left
POP_2,27041,1,"<?xml version=""1.0""?>\n<Clock xmlns:dt=""urn:schemas-microsoft-com:datatypes""><Description dt:dt=""string"">E-Prime Primary Realtime Clock</Description><StartTime><Timestamp dt:dt=""int"">0</Timestamp><DateUtc dt:dt=""string"">2014-06-07T20:07:39Z</DateUtc></StartTime><FrequencyChanges><FrequencyChange><Frequency dt:dt=""r8"">2793040000</Frequency><Timestamp dt:dt=""r8"">1.03128315866605E+15</Timestamp><Current dt:dt=""r8"">0</Current><DateUtc dt:dt=""string"">2014-06-07T20:07:39Z</DateUtc></FrequencyChange></FrequencyChanges></Clock>\n",60.03,1,1929461600,0,,-999999,3,51652,t,9153,60805,6/7/2014,13:07:39,8:07:39 PM,2,Session2,SessionsList,0,,-999999,14,708238,t,32735,740973,688482,2,1,2,2,,,,,2,1,2,,,,NonCued1,MiniBlocks1,892379,,,,5,1,b,-999999,12,980985,b,629,981614,Green,Congruent,b,White,0,,0,14,976987,,0,0,,,,,,,,,,,,,Pictures\white.bmp,3000,2000,Pictures\black.bmp,5,1,5,,,,,,,,,,StimulusPr,Pictures\GreenRight.bmp,NonCuedStim1,Right
POP_2,27041,1,"<?xml version=""1.0""?>\n<Clock xmlns:dt=""urn:schemas-microsoft-com:datatypes""><Description dt:dt=""string"">E-Prime Primary Realtime Clock</Description><StartTime><Timestamp dt:dt=""int"">0</Timestamp><DateUtc dt:dt=""string"">2014-06-07T20:07:39Z</DateUtc></StartTime><FrequencyChanges><FrequencyChange><Frequency dt:dt=""r8"">2793040000</Frequency><Timestamp dt:dt=""r8"">1.03128315866605E+15</Timestamp><Current dt:dt=""r8"">0</Current><DateUtc dt:dt=""string"">2014-06-07T20:07:39Z</DateUtc></FrequencyChange></FrequencyChanges></Clock>\n",60.03,1,1929461600,0,,-999999,3,51652,t,9153,60805,6/7/2014,13:07:39,8:07:39 PM,2,Session2,SessionsList,0,,-999999,14,708238,t,32735,740973,688482,2,1,2,2,,,,,2,1,2,,,,NonCued1,MiniBlocks1,892379,,,,6,1,b,-999999,7,989980,b,646,990626,Red,Incongruent,b,White,0,,0,10,984983,,0,0,,,,,,,,,,,,,Pictures\white.bmp,4000,16000,Pictures\RedLeft.bmp,6,1,6,,,,,,,,,,StimulusPr,Pictures\black.bmp,NonCuedStim1,Left
POP_2,27041,1,"<?xml version=""1.0""?>\n<Clock xmlns:dt=""urn:schemas-microsoft-com:datatypes""><Description dt:dt=""string"">E-Prime Primary Realtime Clock</Description><StartTime><Timestamp dt:dt=""int"">0</Timestamp><DateUtc dt:dt=""string"">2014-06-07T20:07:39Z</DateUtc></StartTime><FrequencyChanges><FrequencyChange><Frequency dt:dt=""r8"">2793040000</Frequency><Timestamp dt:dt=""r8"">1.03128315866605E+15</Timestamp><Current dt:dt=""r8"">0</Current><DateUtc dt:dt=""string"">2014-06-07T20:07:39Z</DateUtc></FrequencyChange></FrequencyChanges></Clock>\n",60.03,1,1929461600,0,,-999999,3,51652,t,9153,60805,6/7/2014,13:07:39,8:07:39 PM,2,Session2,SessionsList,0,,-999999,14,708238,t,32735,740973,688482,2,1,2,2,,,,,2,1,2,,,,NonCued1,MiniBlocks1,892379,,,,7,1,b,-999999,13,1011986,b,620,1012606,Green,Congruent,b,White,0,,0,15,1007988,,0,0,,,,,,,,,,,,,Pictures\white.bmp,3000,4000,Pictures\black.bmp,7,1,7,,,,,,,,,,StimulusPr,Pictures\GreenRight.bmp,NonCuedStim1,Right
POP_2,27041,1,"<?xml version=""1.0""?>\n<Clock xmlns:dt=""urn:schemas-microsoft-com:datatypes""><Description dt:dt=""string"">E-Prime Primary Realtime Clock</Description><StartTime><Timestamp dt:dt=""int"">0</Timestamp><DateUtc dt:dt=""string"">2014-06-07T20:07:39Z</DateUtc></StartTime><FrequencyChanges><FrequencyChange><Frequency dt:dt=""r8"">2793040000</Frequency><Timestamp dt:dt=""r8"">1.03128315866605E+15</Timestamp><Current dt:dt=""r8"">0</Current><DateUtc dt:dt=""string"">2014-06-07T20:07:39Z</DateUtc></FrequencyChange></FrequencyChanges></Clock>\n",60.03,1,1929461600,0,,-999999,3,51652,t,9153,60805,6/7/2014,13:07:39,8:07:39 PM,2,Session2,SessionsList,0,,-999999,14,708238,t,32735,740973,688482,2,1,2,2,,,,,2,1,2,,,,NonCued1,MiniBlocks1,892379,,,,8,1,b,-999999,8,1021981,b,567,1022548,Green,Congruent,b,White,0,,0,10,1017983,,0,0,,,,,,,,,,,,,Pictures\white.bmp,3000,4000,Pictures\black.bmp,8,1,8,,,,,,,,,,StimulusPr,Pictures\GreenRight.bmp,NonCuedStim1,Right
POP_2,27041,1,"<?xml version=""1.0""?>\n<Clock xmlns:dt=""urn:schemas-microsoft-com:datatypes""><Description dt:dt=""string"">E-Prime Primary Realtime Clock</Description><StartTime><Timestamp dt:dt=""int"">0</Timestamp><DateUtc dt:dt=""string"">2014-06-07T20:07:39Z</DateUtc></StartTime><FrequencyChanges><FrequencyChange><Frequency dt:dt=""r8"">2793040000</Frequency><Timestamp dt:dt=""r8"">1.03128315866605E+15</Timestamp><Current dt:dt=""r8"">0</Current><DateUtc dt:dt=""string"">2014-06-07T20:07:39Z</DateUtc></FrequencyChange></FrequencyChanges></Clock>\n",60.03,1,1929461600,0,,-999999,3,51652,t,9153,60805,6/7/2014,13:07:39,8:07:39 PM,2,Session2,SessionsList,0,,-999999,14,708238,t,32735,740973,688482,2,1,2,2,,,,,2,1,2,,,,NonCued1,MiniBlocks1,892379,,,,9,1,b,-999999,16,1037989,b,800,1038789,Red,Incongruent,b,White,0,,0,6,1027978,,0,0,,,,,,,,,,,,,Pictures\white.bmp,9000,2000,Pictures\RedLeft.bmp,9,1,9,,,,,,,,,,StimulusPr,Pictures\black.bmp,NonCuedStim1,Left
POP_2,27041,1,"<?xml version=""1.0""?>\n<Clock xmlns:dt=""urn:schemas-microsoft-com:datatypes""><Description dt:dt=""string"">E-Prime Primary Realtime Clock</Description><StartTime><Timestamp dt:dt=""int"">0</Timestamp><DateUtc dt:dt=""string"">2014-06-07T20:07:39Z</DateUtc></StartTime><FrequencyChanges><FrequencyChange><Frequency dt:dt=""r8"">2793040000</Frequency><Timestamp dt:dt=""r8"">1.03128315866605E+15</Timestamp><Current dt:dt=""r8"">0</Current><DateUtc dt:dt=""string"">2014-06-07T20:07:39Z</DateUtc></FrequencyChange></FrequencyChanges></Clock>\n",60.03,1,1929461600,0,,-999999,3,51652,t,9153,60805,6/7/2014,13:07:39,8:07:39 PM,2,Session2,SessionsList,0,,-999999,14,708238,t,32735,740973,688482,2,1,2,2,,,,,2,1,2,,,,NonCued1,MiniBlocks1,892379,,,,10,1,r,-999999,11,1048984,r,867,1049851,Green,Congruent,r,White,0,,0,13,1041987,,0,0,,,,,,,,,,,,,Pictures\white.bmp,6000,2000,Pictures\GreenLeft.bmp,10,1,10,,,,,,,,,,StimulusPr,Pictures\black.bmp,NonCuedStim1,Left
POP_2,27041,1,"<?xml version=""1.0""?>\n<Clock xmlns:dt=""urn:schemas-microsoft-com:datatypes""><Description dt:dt=""string"">E-Prime Primary Realtime Clock</Description><StartTime><Timestamp dt:dt=""int"">0</Timestamp><DateUtc dt:dt=""string"">2014-06-07T20:07:39Z</DateUtc></StartTime><FrequencyChanges><FrequencyChange><Frequency dt:dt=""r8"">2793040000</Frequency><Timestamp dt:dt=""r8"">1.03128315866605E+15</Timestamp><Current dt:dt=""r8"">0</Current><DateUtc dt:dt=""string"">2014-06-07T20:07:39Z</DateUtc></FrequencyChange></FrequencyChanges></Clock>\n",60.03,1,1929461600,0,,-999999,3,51652,t,9153,60805,6/7/2014,13:07:39,8:07:39 PM,2,Session2,SessionsList,0,,-999999,14,708238,t,32735,740973,688482,2,1,2,3,,,,,3,1,3,,,,NonCued2,MiniBlocks1,,1051882,,,1,1,b,-999999,17,1071989,b,908,1072897,Green,Congruent,b,White,0,,0,4,1061977,,0,0,,,,,,,,,,,,,Pictures\white.bmp,9000,10000,Pictures\black.bmp,,,,1,1,1,,,,,,,StimulusPr,Pictures\GreenRight.bmp,NonCuedStim2,Right
POP_2,27041,1,"<?xml version=""1.0""?>\n<Clock xmlns:dt=""urn:schemas-microsoft-com:datatypes""><Description dt:dt=""string"">E-Prime Primary Realtime Clock</Description><StartTime><Timestamp dt:dt=""int"">0</Timestamp><DateUtc dt:dt=""string"">2014-06-07T20:07:39Z</DateUtc></StartTime><FrequencyChanges><FrequencyChange><Frequency dt:dt=""r8"">2793040000</Frequency><Timestamp dt:dt=""r8"">1.03128315866605E+15</Timestamp><Current dt:dt=""r8"">0</Current><DateUtc dt:dt=""string"">2014-06-07T20:07:39Z</DateUtc></FrequencyChange></FrequencyChanges></Clock>\n",60.03,1,1929461600,0,,-999999,3,51652,t,9153,60805,6/7/2014,13:07:39,8:07:39 PM,2,Session2,SessionsList,0,,-999999,14,708238,t,32735,740973,688482,2,1,2,3,,,,,3,1,3,,,,NonCued2,MiniBlocks1,,1051882,,,2,1,r,-999999,8,1087981,r,569,1088550,Green,Congruent,r,White,0,,0,10,1083983,,0,0,,,,,,,,,,,,,Pictures\white.bmp,3000,2000,Pictures\GreenLeft.bmp,,,,2,1,2,,,,,,,StimulusPr,Pictures\black.bmp,NonCuedStim2,Left
POP_2,27041,1,"<?xml version=""1.0""?>\n<Clock xmlns:dt=""urn:schemas-microsoft-com:datatypes""><Description dt:dt=""string"">E-Prime Primary Realtime Clock</Description><StartTime><Timestamp dt:dt=""int"">0</Timestamp><DateUtc dt:dt=""string"">2014-06-07T20:07:39Z</DateUtc></StartTime><FrequencyChanges><FrequencyChange><Frequency dt:dt=""r8"">2793040000</Frequency><Timestamp dt:dt=""r8"">1.03128315866605E+15</Timestamp><Current dt:dt=""r8"">0</Current><DateUtc dt:dt=""string"">2014-06-07T20:07:39Z</DateUtc></FrequencyChange></FrequencyChanges></Clock>\n",60.03,1,1929461600,0,,-999999,3,51652,t,9153,60805,6/7/2014,13:07:39,8:07:39 PM,2,Session2,SessionsList,0,,-999999,14,708238,t,32735,740973,688482,2,1,2,3,,,,,3,1,3,,,,NonCued2,MiniBlocks1,,1051882,,,3,1,r,-999999,5,1095977,r,594,1096571,Red,Incongruent,r,White,0,,0,7,1091979,,0,0,,,,,,,,,,,,,Pictures\white.bmp,3000,2000,Pictures\black.bmp,,,,3,1,3,,,,,,,StimulusPr,Pictures\RedRight.bmp,NonCuedStim2,Right
POP_2,27041,1,"<?xml version=""1.0""?>\n<Clock xmlns:dt=""urn:schemas-microsoft-com:datatypes""><Description dt:dt=""string"">E-Prime Primary Realtime Clock</Description><StartTime><Timestamp dt:dt=""int"">0</Timestamp><DateUtc dt:dt=""string"">2014-06-07T20:07:39Z</DateUtc></StartTime><FrequencyChanges><FrequencyChange><Frequency dt:dt=""r8"">2793040000</Frequency><Timestamp dt:dt=""r8"">1.03128315866605E+15</Timestamp><Current dt:dt=""r8"">0</Current><DateUtc dt:dt=""string"">2014-06-07T20:07:39Z</DateUtc></FrequencyChange></FrequencyChanges></Clock>\n",60.03,1,1929461600,0,,-999999,3,51652,t,9153,60805,6/7/2014,13:07:39,8:07:39 PM,2,Session2,SessionsList,0,,-999999,14,708238,t,32735,740973,688482,2,1,2,3,,,,,3,1,3,,,,NonCued2,MiniBlocks1,,1051882,,,4,1,r,-999999,17,1104989,r,522,1105511,Green,Congruent,r,White,0,,0,3,1099975,,0,0,,,,,,,,,,,,,Pictures\white.bmp,4000,16000,Pictures\GreenLeft.bmp,,,,4,1,4,,,,,,,StimulusPr,Pictures\black.bmp,NonCuedStim2,Left
POP_2,27041,1,"<?xml version=""1.0""?>\n<Clock xmlns:dt=""urn:schemas-microsoft-com:datatypes""><Description dt:dt=""string"">E-Prime Primary Realtime Clock</Description><StartTime><Timestamp dt:dt=""int"">0</Timestamp><DateUtc dt:dt=""string"">2014-06-07T20:07:39Z</DateUtc></StartTime><FrequencyChanges><FrequencyChange><Frequency dt:dt=""r8"">2793040000</Frequency><Timestamp dt:dt=""r8"">1.03128315866605E+15</Timestamp><Current dt:dt=""r8"">0</Current><DateUtc dt:dt=""string"">2014-06-07T20:07:39Z</DateUtc></FrequencyChange></FrequencyChanges></Clock>\n",60.03,1,1929461600,0,,-999999,3,51652,t,9153,60805,6/7/2014,13:07:39,8:07:39 PM,2,Session2,SessionsList,0,,-999999,14,708238,t,32735,740973,688482,2,1,2,3,,,,,3,1,3,,,,NonCued2,MiniBlocks1,,1051882,,,5,1,r,-999999,3,1129976,r,479,1130455,Green,Congruent,r,White,0,,0,8,1122980,,0,0,,,,,,,,,,,,,Pictures\white.bmp,6000,4000,Pictures\GreenLeft.bmp,,,,5,1,5,,,,,,,StimulusPr,Pictures\black.bmp,NonCuedStim2,Left
POP_2,27041,1,"<?xml version=""1.0""?>\n<Clock xmlns:dt=""urn:schemas-microsoft-com:datatypes""><Description dt:dt=""string"">E-Prime Primary Realtime Clock</Description><StartTime><Timestamp dt:dt=""int"">0</Timestamp><DateUtc dt:dt=""string"">2014-06-07T20:07:39Z</DateUtc></StartTime><FrequencyChanges><FrequencyChange><Frequency dt:dt=""r8"">2793040000</Frequency><Timestamp dt:dt=""r8"">1.03128315866605E+15</Timestamp><Current dt:dt=""r8"">0</Current><DateUtc dt:dt=""string"">2014-06-07T20:07:39Z</DateUtc></FrequencyChange></FrequencyChanges></Clock>\n",60.03,1,1929461600,0,,-999999,3,51652,t,9153,60805,6/7/2014,13:07:39,8:07:39 PM,2,Session2,SessionsList,0,,-999999,14,708238,t,32735,740973,688482,2,1,2,3,,,,,3,1,3,,,,NonCued2,MiniBlocks1,,1051882,,,6,1,b,-999999,15,1139988,b,554,1140542,Red,Incongruent,b,White,0,,0,17,1135990,,0,0,,,,,,,,,,,,,Pictures\white.bmp,3000,4000,Pictures\RedLeft.bmp,,,,6,1,6,,,,,,,StimulusPr,Pictures\black.bmp,NonCuedStim2,Left
POP_2,27041,1,"<?xml version=""1.0""?>\n<Clock xmlns:dt=""urn:schemas-microsoft-com:datatypes""><Description dt:dt=""string"">E-Prime Primary Realtime Clock</Description><StartTime><Timestamp dt:dt=""int"">0</Timestamp><DateUtc dt:dt=""string"">2014-06-07T20:07:39Z</DateUtc></StartTime><FrequencyChanges><FrequencyChange><Frequency dt:dt=""r8"">2793040000</Frequency><Timestamp dt:dt=""r8"">1.03128315866605E+15</Timestamp><Current dt:dt=""r8"">0</Current><DateUtc dt:dt=""string"">2014-06-07T20:07:39Z</DateUtc></FrequencyChange></FrequencyChanges></Clock>\n",60.03,1,1929461600,0,,-999999,3,51652,t,9153,60805,6/7/2014,13:07:39,8:07:39 PM,2,Session2,SessionsList,0,,-999999,14,708238,t,32735,740973,688482,2,1,2,3,,,,,3,1,3,,,,NonCued2,MiniBlocks1,,1051882,,,7,1,b,-999999,10,1150982,b,912,1151894,Green,Congruent,b,White,0,,0,13,1145985,,0,0,,,,,,,,,,,,,Pictures\white.bmp,4000,16000,Pictures\black.bmp,,,,7,1,7,,,,,,,StimulusPr,Pictures\GreenRight.bmp,NonCuedStim2,Right
POP_2,27041,1,"<?xml version=""1.0""?>\n<Clock xmlns:dt=""urn:schemas-microsoft-com:datatypes""><Description dt:dt=""string"">E-Prime Primary Realtime Clock</Description><StartTime><Timestamp dt:dt=""int"">0</Timestamp><DateUtc dt:dt=""string"">2014-06-07T20:07:39Z</DateUtc></StartTime><FrequencyChanges><FrequencyChange><Frequency dt:dt=""r8"">2793040000</Frequency><Timestamp dt:dt=""r8"">1.03128315866605E+15</Timestamp><Current dt:dt=""r8"">0</Current><DateUtc dt:dt=""string"">2014-06-07T20:07:39Z</DateUtc></FrequencyChange></FrequencyChanges></Clock>\n",60.03,1,1929461600,0,,-999999,3,51652,t,9153,60805,6/7/2014,13:07:39,8:07:39 PM,2,Session2,SessionsList,0,,-999999,14,708238,t,32735,740973,688482,2,1,2,3,,,,,3,1,3,,,,NonCued2,MiniBlocks1,,1051882,,,8,1,r,-999999,13,1178985,r,573,1179558,Green,Congruent,r,White,0,,0,2,1168974,,0,0,,,,,,,,,,,,,Pictures\white.bmp,9000,2000,Pictures\GreenLeft.bmp,,,,8,1,8,,,,,,,StimulusPr,Pictures\black.bmp,NonCuedStim2,Left
POP_2,27041,1,"<?xml version=""1.0""?>\n<Clock xmlns:dt=""urn:schemas-microsoft-com:datatypes""><Description dt:dt=""string"">E-Prime Primary Realtime Clock</Description><StartTime><Timestamp dt:dt=""int"">0</Timestamp><DateUtc dt:dt=""string"">2014-06-07T20:07:39Z</DateUtc></StartTime><FrequencyChanges><FrequencyChange><Frequency dt:dt=""r8"">2793040000</Frequency><Timestamp dt:dt=""r8"">1.03128315866605E+15</Timestamp><Current dt:dt=""r8"">0</Current><DateUtc dt:dt=""string"">2014-06-07T20:07:39Z</DateUtc></FrequencyChange></FrequencyChanges></Clock>\n",60.03,1,1929461600,0,,-999999,3,51652,t,9153,60805,6/7/2014,13:07:39,8:07:39 PM,2,Session2,SessionsList,0,,-999999,14,708238,t,32735,740973,688482,2,1,2,3,,,,,3,1,3,,,,NonCued2,MiniBlocks1,,1051882,,,9,1,b,-999999,9,1186981,b,636,1187617,Green,Congruent,b,White,0,,0,11,1182983,,0,0,,,,,,,,,,,,,Pictures\white.bmp,3000,10000,Pictures\black.bmp,,,,9,1,9,,,,,,,StimulusPr,Pictures\GreenRight.bmp,NonCuedStim2,Right
POP_2,27041,1,"<?xml version=""1.0""?>\n<Clock xmlns:dt=""urn:schemas-microsoft-com:datatypes""><Description dt:dt=""string"">E-Prime Primary Realtime Clock</Description><StartTime><Timestamp dt:dt=""int"">0</Timestamp><DateUtc dt:dt=""string"">2014-06-07T20:07:39Z</DateUtc></StartTime><FrequencyChanges><FrequencyChange><Frequency dt:dt=""r8"">2793040000</Frequency><Timestamp dt:dt=""r8"">1.03128315866605E+15</Timestamp><Current dt:dt=""r8"">0</Current><DateUtc dt:dt=""string"">2014-06-07T20:07:39Z</DateUtc></FrequencyChange></FrequencyChanges></Clock>\n",60.03,1,1929461600,0,,-999999,3,51652,t,9153,60805,6/7/2014,13:07:39,8:07:39 PM,2,Session2,SessionsList,0,,-999999,14,708238,t,32735,740973,688482,2,1,2,3,,,,,3,1,3,,,,NonCued2,MiniBlocks1,,1051882,,,10,1,b,-999999,19,1202990,b,844,1203834,Green,Congruent,b,White,0,,0,3,1198975,,0,0,,,,,,,,,,,,,Pictures\white.bmp,3000,2000,Pictures\black.bmp,,,,10,1,10,,,,,,,StimulusPr,Pictures\GreenRight.bmp,NonCuedStim2,Right
POP_2,27041,1,"<?xml version=""1.0""?>\n<Clock xmlns:dt=""urn:schemas-microsoft-com:datatypes""><Description dt:dt=""string"">E-Prime Primary Realtime Clock</Description><StartTime><Timestamp dt:dt=""int"">0</Timestamp><DateUtc dt:dt=""string"">2014-06-07T20:07:39Z</DateUtc></StartTime><FrequencyChanges><FrequencyChange><Frequency dt:dt=""r8"">2793040000</Frequency><Timestamp dt:dt=""r8"">1.03128315866605E+15</Timestamp><Current dt:dt=""r8"">0</Current><DateUtc dt:dt=""string"">2014-06-07T20:07:39Z</DateUtc></FrequencyChange></FrequencyChanges></Clock>\n",60.03,1,1929461600,0,,-999999,3,51652,t,9153,60805,6/7/2014,13:07:39,8:07:39 PM,2,Session2,SessionsList,0,,-999999,14,708238,t,32735,740973,688482,2,1,2,4,,1205855,,,4,1,4,,,,Cued2,MiniBlocks1,,,,,1,1,b,-999999,8,1222980,b,834,1223814,White,Congruent,b,Green,0,,0,11,1215983,,0,0,,,,1,1,1,,,,,,,Pictures\green.bmp,6000,4000,Pictures\black.bmp,,,,,,,,,,,,,StimulusPr,Pictures\right.bmp,CuedStim2,Right
POP_2,27041,1,"<?xml version=""1.0""?>\n<Clock xmlns:dt=""urn:schemas-microsoft-com:datatypes""><Description dt:dt=""string"">E-Prime Primary Realtime Clock</Description><StartTime><Timestamp dt:dt=""int"">0</Timestamp><DateUtc dt:dt=""string"">2014-06-07T20:07:39Z</DateUtc></StartTime><FrequencyChanges><FrequencyChange><Frequency dt:dt=""r8"">2793040000</Frequency><Timestamp dt:dt=""r8"">1.03128315866605E+15</Timestamp><Current dt:dt=""r8"">0</Current><DateUtc dt:dt=""string"">2014-06-07T20:07:39Z</DateUtc></FrequencyChange></FrequencyChanges></Clock>\n",60.03,1,1929461600,0,,-999999,3,51652,t,9153,60805,6/7/2014,13:07:39,8:07:39 PM,2,Session2,SessionsList,0,,-999999,14,708238,t,32735,740973,688482,2,1,2,4,,1205855,,,4,1,4,,,,Cued2,MiniBlocks1,,,,,2,1,b,-999999,17,1238988,b,347,1239335,White,Congruent,b,Green,0,,0,5,1228977,,0,0,,,,2,1,2,,,,,,,Pictures\green.bmp,9000,10000,Pictures\black.bmp,,,,,,,,,,,,,StimulusPr,Pictures\right.bmp,CuedStim2,Right
POP_2,27041,1,"<?xml version=""1.0""?>\n<Clock xmlns:dt=""urn:schemas-microsoft-com:datatypes""><Description dt:dt=""string"">E-Prime Primary Realtime Clock</Description><StartTime><Timestamp dt:dt=""int"">0</Timestamp><DateUtc dt:dt=""string"">2014-06-07T20:07:39Z</DateUtc></StartTime><FrequencyChanges><FrequencyChange><Frequency dt:dt=""r8"">2793040000</Frequency><Timestamp dt:dt=""r8"">1.03128315866605E+15</Timestamp><Current dt:dt=""r8"">0</Current><DateUtc dt:dt=""string"">2014-06-07T20:07:39Z</DateUtc></FrequencyChange></FrequencyChanges></Clock>\n",60.03,1,1929461600,0,,-999999,3,51652,t,9153,60805,6/7/2014,13:07:39,8:07:39 PM,2,Session2,SessionsList,0,,-999999,14,708238,t,32735,740973,688482,2,1,2,4,,1205855,,,4,1,4,,,,Cued2,MiniBlocks1,,,,,3,1,r,-999999,8,1254980,r,507,1255487,White,Incongruent,r,Red,0,,0,10,1250982,,0,0,,,,3,1,3,,,,,,,Pictures\red.bmp,3000,2000,Pictures\black.bmp,,,,,,,,,,,,,StimulusPr,Pictures\right.bmp,CuedStim2,Right
POP_2,27041,1,"<?xml version=""1.0""?>\n<Clock xmlns:dt=""urn:schemas-microsoft-com:datatypes""><Description dt:dt=""string"">E-Prime Primary Realtime Clock</Description><StartTime><Timestamp dt:dt=""int"">0</Timestamp><DateUtc dt:dt=""string"">2014-06-07T20:07:39Z</DateUtc></StartTime><FrequencyChanges><FrequencyChange><Frequency dt:dt=""r8"">2793040000</Frequency><Timestamp dt:dt=""r8"">1.03128315866605E+15</Timestamp><Current dt:dt=""r8"">0</Current><DateUtc dt:dt=""string"">2014-06-07T20:07:39Z</DateUtc></FrequencyChange></FrequencyChanges></Clock>\n",60.03,1,1929461600,0,,-999999,3,51652,t,9153,60805,6/7/2014,13:07:39,8:07:39 PM,2,Session2,SessionsList,0,,-999999,14,708238,t,32735,740973,688482,2,1,2,4,,1205855,,,4,1,4,,,,Cued2,MiniBlocks1,,,,,4,1,r,-999999,3,1265975,r,508,1266483,White,Congruent,r,Green,0,,0,6,1258978,,0,0,,,,4,1,4,,,,,,,Pictures\green.bmp,6000,16000,Pictures\left.bmp,,,,,,,,,,,,,StimulusPr,Pictures\black.bmp,CuedStim2,Left
POP_2,27041,1,"<?xml version=""1.0""?>\n<Clock xmlns:dt=""urn:schemas-microsoft-com:datatypes""><Description dt:dt=""string"">E-Prime Primary Realtime Clock</Description><StartTime><Timestamp dt:dt=""int"">0</Timestamp><DateUtc dt:dt=""string"">2014-06-07T20:07:39Z</DateUtc></StartTime><FrequencyChanges><FrequencyChange><Frequency dt:dt=""r8"">2793040000</Frequency><Timestamp dt:dt=""r8"">1.03128315866605E+15</Timestamp><Current dt:dt=""r8"">0</Current><DateUtc dt:dt=""string"">2014-06-07T20:07:39Z</DateUtc></FrequencyChange></FrequencyChanges></Clock>\n",60.03,1,1929461600,0,,-999999,3,51652,t,9153,60805,6/7/2014,13:07:39,8:07:39 PM,2,Session2,SessionsList,0,,-999999,14,708238,t,32735,740973,688482,2,1,2,4,,1205855,,,4,1,4,,,,Cued2,MiniBlocks1,,,,,5,1,b,-999999,9,1287980,b,560,1288540,White,Congruent,b,Green,0,,0,10,1283982,,0,0,,,,5,1,5,,,,,,,Pictures\green.bmp,3000,2000,Pictures\black.bmp,,,,,,,,,,,,,StimulusPr,Pictures\right.bmp,CuedStim2,Right
POP_2,27041,1,"<?xml version=""1.0""?>\n<Clock xmlns:dt=""urn:schemas-microsoft-com:datatypes""><Description dt:dt=""string"">E-Prime Primary Realtime Clock</Description><StartTime><Timestamp dt:dt=""int"">0</Timestamp><DateUtc dt:dt=""string"">2014-06-07T20:07:39Z</DateUtc></StartTime><FrequencyChanges><FrequencyChange><Frequency dt:dt=""r8"">2793040000</Frequency><Timestamp dt:dt=""r8"">1.03128315866605E+15</Timestamp><Current dt:dt=""r8"">0</Current><DateUtc dt:dt=""string"">2014-06-07T20:07:39Z</DateUtc></FrequencyChange></FrequencyChanges></Clock>\n",60.03,1,1929461600,0,,-999999,3,51652,t,9153,60805,6/7/2014,13:07:39,8:07:39 PM,2,Session2,SessionsList,0,,-999999,14,708238,t,32735,740973,688482,2,1,2,4,,1205855,,,4,1,4,,,,Cued2,MiniBlocks1,,,,,6,1,r,-999999,5,1295976,r,642,1296618,White,Congruent,r,Green,0,,0,7,1291978,,0,0,,,,6,1,6,,,,,,,Pictures\green.bmp,3000,2000,Pictures\left.bmp,,,,,,,,,,,,,StimulusPr,Pictures\black.bmp,CuedStim2,Left
POP_2,27041,1,"<?xml version=""1.0""?>\n<Clock xmlns:dt=""urn:schemas-microsoft-com:datatypes""><Description dt:dt=""string"">E-Prime Primary Realtime Clock</Description><StartTime><Timestamp dt:dt=""int"">0</Timestamp><DateUtc dt:dt=""string"">2014-06-07T20:07:39Z</DateUtc></StartTime><FrequencyChanges><FrequencyChange><Frequency dt:dt=""r8"">2793040000</Frequency><Timestamp dt:dt=""r8"">1.03128315866605E+15</Timestamp><Current dt:dt=""r8"">0</Current><DateUtc dt:dt=""string"">2014-06-07T20:07:39Z</DateUtc></FrequencyChange></FrequencyChanges></Clock>\n",60.03,1,1929461600,0,,-999999,3,51652,t,9153,60805,6/7/2014,13:07:39,8:07:39 PM,2,Session2,SessionsList,0,,-999999,14,708238,t,32735,740973,688482,2,1,2,4,,1205855,,,4,1,4,,,,Cued2,MiniBlocks1,,,,,7,1,b,-999999,16,1306987,b,915,1307902,White,Incongruent,b,Red,0,,0,3,1299974,,0,0,,,,7,1,7,,,,,,,Pictures\red.bmp,6000,4000,Pictures\left.bmp,,,,,,,,,,,,,StimulusPr,Pictures\black.bmp,CuedStim2,Left
POP_2,27041,1,"<?xml version=""1.0""?>\n<Clock xmlns:dt=""urn:schemas-microsoft-com:datatypes""><Description dt:dt=""string"">E-Prime Primary Realtime Clock</Description><StartTime><Timestamp dt:dt=""int"">0</Timestamp><DateUtc dt:dt=""string"">2014-06-07T20:07:39Z</DateUtc></StartTime><FrequencyChanges><FrequencyChange><Frequency dt:dt=""r8"">2793040000</Frequency><Timestamp dt:dt=""r8"">1.03128315866605E+15</Timestamp><Current dt:dt=""r8"">0</Current><DateUtc dt:dt=""string"">2014-06-07T20:07:39Z</DateUtc></FrequencyChange></FrequencyChanges></Clock>\n",60.03,1,1929461600,0,,-999999,3,51652,t,9153,60805,6/7/2014,13:07:39,8:07:39 PM,2,Session2,SessionsList,0,,-999999,14,708238,t,32735,740973,688482,2,1,2,4,,1205855,,,4,1,4,,,,Cued2,MiniBlocks1,,,,,8,1,b,-999999,11,1317982,b,662,1318644,White,Congruent,b,Green,0,,0,13,1312984,,0,0,,,,8,1,8,,,,,,,Pictures\green.bmp,4000,4000,Pictures\black.bmp,,,,,,,,,,,,,StimulusPr,Pictures\right.bmp,CuedStim2,Right
POP_2,27041,1,"<?xml version=""1.0""?>\n<Clock xmlns:dt=""urn:schemas-microsoft-com:datatypes""><Description dt:dt=""string"">E-Prime Primary Realtime Clock</Description><StartTime><Timestamp dt:dt=""int"">0</Timestamp><DateUtc dt:dt=""string"">2014-06-07T20:07:39Z</DateUtc></StartTime><FrequencyChanges><FrequencyChange><Frequency dt:dt=""r8"">2793040000</Frequency><Timestamp dt:dt=""r8"">1.03128315866605E+15</Timestamp><Current dt:dt=""r8"">0</Current><DateUtc dt:dt=""string"">2014-06-07T20:07:39Z</DateUtc></FrequencyChange></FrequencyChanges></Clock>\n",60.03,1,1929461600,0,,-999999,3,51652,t,9153,60805,6/7/2014,13:07:39,8:07:39 PM,2,Session2,SessionsList,0,,-999999,14,708238,t,32735,740973,688482,2,1,2,4,,1205855,,,4,1,4,,,,Cued2,MiniBlocks1,,,,,9,1,b,-999999,3,1333974,b,683,1334657,White,Incongruent,b,Red,0,,0,7,1323979,,0,0,,,,9,1,9,,,,,,,Pictures\red.bmp,9000,10000,Pictures\left.bmp,,,,,,,,,,,,,StimulusPr,Pictures\black.bmp,CuedStim2,Left
POP_2,27041,1,"<?xml version=""1.0""?>\n<Clock xmlns:dt=""urn:schemas-microsoft-com:datatypes""><Description dt:dt=""string"">E-Prime Primary Realtime Clock</Description><StartTime><Timestamp dt:dt=""int"">0</Timestamp><DateUtc dt:dt=""string"">2014-06-07T20:07:39Z</DateUtc></StartTime><FrequencyChanges><FrequencyChange><Frequency dt:dt=""r8"">2793040000</Frequency><Timestamp dt:dt=""r8"">1.03128315866605E+15</Timestamp><Current dt:dt=""r8"">0</Current><DateUtc dt:dt=""string"">2014-06-07T20:07:39Z</DateUtc></FrequencyChange></FrequencyChanges></Clock>\n",60.03,1,1929461600,0,,-999999,3,51652,t,9153,60805,6/7/2014,13:07:39,8:07:39 PM,2,Session2,SessionsList,0,,-999999,14,708238,t,32735,740973,688482,2,1,2,4,,1205855,,,4,1,4,,,,Cued2,MiniBlocks1,,,,,10,1,r,-999999,8,1355979,r,646,1356625,White,Congruent,r,Green,0,,0,12,1345984,,0,0,,,,10,1,10,,,,,,,Pictures\green.bmp,9000,10000,Pictures\left.bmp,,,,,,,,,,,,,StimulusPr,Pictures\black.bmp,CuedStim2,Left
