ExperimentName,Subject,Session,Clock.Information,Display.RefreshRate,Group,RandomSeed,Session1Onset.ACC,Session1Onset.CRESP,Session1Onset.DurationError,Session1Onset.OnsetDelay,Session1Onset.OnsetTime,Session1Onset.RESP,Session1Onset.RT,Session1Onset.RTTime,SessionDate,SessionTime,SessionTimeUtc,Block,Procedure[Block],Running[Block],Session2Onset.ACC,Session2Onset.CRESP,Session2Onset.DurationError,Session2Onset.OnsetDelay,Session2Onset.OnsetTime,Session2Onset.RESP,Session2Onset.RT,Session2Onset.RTTime,SessionBreak.OnsetTime,SessionsList,SessionsList.Cycle,SessionsList.Sample,Trial,CuedPrompt1.OnsetTime,CuedPrompt2.OnsetTime,CuedPrompt3.OnsetTime,CuedPrompt4.OnsetTime,MiniBlocks1,MiniBlocks1.Cycle,MiniBlocks1.Sample,MiniBlocks2,MiniBlocks2.Cycle,MiniBlocks2.Sample,Procedure[Trial],Running[Trial],UncuedPrompt1.OnsetTime,UncuedPrompt2.OnsetTime,UncuedPrompt3.OnsetTime,UncuedPrompt4.OnsetTime,SubTrial,Arrow1.ACC,Arrow1.CRESP,Arrow1.DurationError,Arrow1.OnsetDelay,Arrow1.OnsetTime,Arrow1.RESP,Arrow1.RT,Arrow1.RTTime,ArrowColor,Congruence,CorrectResp,Cue,Cue.ACC,Cue.CRESP,Cue.DurationError,Cue.OnsetDelay,Cue.OnsetTime,Cue.RESP,Cue.RT,Cue.RTTime,CuedStim1,CuedStim1.Cycle,CuedStim1.Sample,CuedStim2,CuedStim2.Cycle,CuedStim2.Sample,CuedStim3,CuedStim3.Cycle,CuedStim3.Sample,CuedStim4,CuedStim4.Cycle,CuedStim4.Sample,CueImage,JitterCue,JitterTrial,LeftImage,NonCuedStim1,NonCuedStim1.Cycle,NonCuedStim1.Sample,NonCuedStim2,NonCuedStim2.Cycle,NonCuedStim2.Sample,NonCuedStim3,NonCuedStim3.Cycle,NonCuedStim3.Sample,NonCuedStim4,NonCuedStim4.Cycle,NonCuedStim4.Sample,Procedure[SubTrial],RightImage,Running[SubTrial],Stimulus
POP_2,16052,1,"<?xml version=""1.0""?>\n<Clock xmlns:dt=""urn:schemas-microsoft-com:datatypes""><Description dt:dt=""string"">E-Prime Primary Realtime Clock</Description><StartTime><Timestamp dt:dt=""int"">0</Timestamp><DateUtc dt:dt=""string"">2014-05-16T22:17:56Z</DateUtc></StartTime><FrequencyChanges><FrequencyChange><Frequency dt:dt=""r8"">2793030000</Frequency><Timestamp dt:dt=""r8"">2.21137872553098E+15</Timestamp><Current dt:dt=""r8"">0</Current><DateUtc dt:dt=""string"">2014-05-16T22:17:56Z</DateUtc></FrequencyChange></FrequencyChanges></Clock>\n",60.03,1,-585559856,0,,-999999,10,60729,t,45317,106046,5/16/2014,15:17:56,,1,Session1,SessionsList,,,,,,,,,,1,1,1,1,106056,,,,1,1,1,,,,Cued1,MiniBlocks1,,,,,1,1,r,-999999,8,120049,r,513,120562,White,Congruent,r,Green,0,,0,12,115051,,0,0,1,1,1,,,,,,,,,,Pictures\green.bmp,4000,4000,Pictures\left.bmp,,,,,,,,,,,,,StimulusPr,Pictures\black.bmp,CuedStim1,Left
POP_2,16052,1,"<?xml version=""1.0""?>\n<Clock xmlns:dt=""urn:schemas-microsoft-com:datatypes""><Description dt:dt=""string"">E-Prime Primary Realtime Clock</Description><StartTime><Timestamp dt:dt=""int"">0</Timestamp><DateUtc dt:dt=""string"">2014-05-16T22:17:56Z</DateUtc></StartTime><FrequencyChanges><FrequencyChange><Frequency dt:dt=""r8"">2793030000</Frequency><Timestamp dt:dt=""r8"">2.21137872553098E+15</Timestamp><Current dt:dt=""r8"">0</Current><DateUtc dt:dt=""string"">2014-05-16T22:17:56Z</DateUtc></FrequencyChange></FrequencyChanges></Clock>\n",60.03,1,-585559856,0,,-999999,10,60729,t,45317,106046,5/16/2014,15:17:56,,1,Session1,SessionsList,,,,,,,,,,1,1,1,1,106056,,,,1,1,1,,,,Cued1,MiniBlocks1,,,,,2,1,b,-999999,13,133059,b,507,133566,White,Congruent,b,Green,0,,0,17,126063,,0,0,2,1,2,,,,,,,,,,Pictures\green.bmp,6000,2000,Pictures\black.bmp,,,,,,,,,,,,,StimulusPr,Pictures\right.bmp,CuedStim1,Right
POP_2,16052,1,"<?xml version=""1.0""?>\n<Clock xmlns:dt=""urn:schemas-microsoft-com:datatypes""><Description dt:dt=""string"">E-Prime Primary Realtime Clock</Description><StartTime><Timestamp dt:dt=""int"">0</Timestamp><DateUtc dt:dt=""string"">2014-05-16T22:17:56Z</DateUtc></StartTime><FrequencyChanges><FrequencyChange><Frequency dt:dt=""r8"">2793030000</Frequency><Timestamp dt:dt=""r8"">2.21137872553098E+15</Timestamp><Current dt:dt=""r8"">0</Current><DateUtc dt:dt=""string"">2014-05-16T22:17:56Z</DateUtc></FrequencyChange></FrequencyChanges></Clock>\n",60.03,1,-585559856,0,,-999999,10,60729,t,45317,106046,5/16/2014,15:17:56,,1,Session1,SessionsList,,,,,,,,,,1,1,1,1,106056,,,,1,1,1,,,,Cued1,MiniBlocks1,,,,,3,1,b,-999999,10,141055,b,515,141570,White,Congruent,b,Green,0,,0,13,137057,,0,0,3,1,3,,,,,,,,,,Pictures\green.bmp,3000,2000,Pictures\black.bmp,,,,,,,,,,,,,StimulusPr,Pictures\right.bmp,CuedStim1,Right
POP_2,16052,1,"<?xml version=""1.0""?>\n<Clock xmlns:dt=""urn:schemas-microsoft-com:datatypes""><Description dt:dt=""string"">E-Prime Primary Realtime Clock</Description><StartTime><Timestamp dt:dt=""int"">0</Timestamp><DateUtc dt:dt=""string"">2014-05-16T22:17:56Z</DateUtc></StartTime><FrequencyChanges><FrequencyChange><Frequency dt:dt=""r8"">2793030000</Frequency><Timestamp dt:dt=""r8"">2.21137872553098E+15</Timestamp><Current dt:dt=""r8"">0</Current><DateUtc dt:dt=""string"">2014-05-16T22:17:56Z</DateUtc></FrequencyChange></FrequencyChanges></Clock>\n",60.03,1,-585559856,0,,-999999,10,60729,t,45317,106046,5/16/2014,15:17:56,,1,Session1,SessionsList,,,,,,,,,,1,1,1,1,106056,,,,1,1,1,,,,Cued1,MiniBlocks1,,,,,4,1,b,-999999,5,149051,b,488,149539,White,Incongruent,b,Red,0,,0,8,145053,,0,0,4,1,4,,,,,,,,,,Pictures\red.bmp,3000,16000,Pictures\left.bmp,,,,,,,,,,,,,StimulusPr,Pictures\black.bmp,CuedStim1,Left
POP_2,16052,1,"<?xml version=""1.0""?>\n<Clock xmlns:dt=""urn:schemas-microsoft-com:datatypes""><Description dt:dt=""string"">E-Prime Primary Realtime Clock</Description><StartTime><Timestamp dt:dt=""int"">0</Timestamp><DateUtc dt:dt=""string"">2014-05-16T22:17:56Z</DateUtc></StartTime><FrequencyChanges><FrequencyChange><Frequency dt:dt=""r8"">2793030000</Frequency><Timestamp dt:dt=""r8"">2.21137872553098E+15</Timestamp><Current dt:dt=""r8"">0</Current><DateUtc dt:dt=""string"">2014-05-16T22:17:56Z</DateUtc></FrequencyChange></FrequencyChanges></Clock>\n",60.03,1,-585559856,0,,-999999,10,60729,t,45317,106046,5/16/2014,15:17:56,,1,Session1,SessionsList,,,,,,,,,,1,1,1,1,106056,,,,1,1,1,,,,Cued1,MiniBlocks1,,,,,5,1,r,-999999,11,171057,r,659,171716,White,Congruent,r,Green,0,,0,13,167059,,0,0,5,1,5,,,,,,,,,,Pictures\green.bmp,3000,16000,Pictures\left.bmp,,,,,,,,,,,,,StimulusPr,Pictures\black.bmp,CuedStim1,Left
POP_2,16052,1,"<?xml version=""1.0""?>\n<Clock xmlns:dt=""urn:schemas-microsoft-com:datatypes""><Description dt:dt=""string"">E-Prime Primary Realtime Clock</Description><StartTime><Timestamp dt:dt=""int"">0</Timestamp><DateUtc dt:dt=""string"">2014-05-16T22:17:56Z</DateUtc></StartTime><FrequencyChanges><FrequencyChange><Frequency dt:dt=""r8"">2793030000</Frequency><Timestamp dt:dt=""r8"">2.21137872553098E+15</Timestamp><Current dt:dt=""r8"">0</Current><DateUtc dt:dt=""string"">2014-05-16T22:17:56Z</DateUtc></FrequencyChange></FrequencyChanges></Clock>\n",60.03,1,-585559856,0,,-999999,10,60729,t,45317,106046,5/16/2014,15:17:56,,1,Session1,SessionsList,,,,,,,,,,1,1,1,1,106056,,,,1,1,1,,,,Cued1,MiniBlocks1,,,,,6,1,r,-999999,14,199060,r,472,199532,White,Congruent,r,Green,0,,0,2,189048,,0,0,6,1,6,,,,,,,,,,Pictures\green.bmp,9000,10000,Pictures\left.bmp,,,,,,,,,,,,,StimulusPr,Pictures\black.bmp,CuedStim1,Left
POP_2,16052,1,"<?xml version=""1.0""?>\n<Clock xmlns:dt=""urn:schemas-microsoft-com:datatypes""><Description dt:dt=""string"">E-Prime Primary Realtime Clock</Description><StartTime><Timestamp dt:dt=""int"">0</Timestamp><DateUtc dt:dt=""string"">2014-05-16T22:17:56Z</DateUtc></StartTime><FrequencyChanges><FrequencyChange><Frequency dt:dt=""r8"">2793030000</Frequency><Timestamp dt:dt=""r8"">2.21137872553098E+15</Timestamp><Current dt:dt=""r8"">0</Current><DateUtc dt:dt=""string"">2014-05-16T22:17:56Z</DateUtc></FrequencyChange></FrequencyChanges></Clock>\n",60.03,1,-585559856,0,,-999999,10,60729,t,45317,106046,5/16/2014,15:17:56,,1,Session1,SessionsList,,,,,,,,,,1,1,1,1,106056,,,,1,1,1,,,,Cued1,MiniBlocks1,,,,,7,1,b,-999999,6,215052,b,686,215738,White,Congruent,b,Green,0,,0,8,211054,,0,0,7,1,7,,,,,,,,,,Pictures\green.bmp,3000,16000,Pictures\black.bmp,,,,,,,,,,,,,StimulusPr,Pictures\right.bmp,CuedStim1,Right
POP_2,16052,1,"<?xml version=""1.0""?>\n<Clock xmlns:dt=""urn:schemas-microsoft-com:datatypes""><Description dt:dt=""string"">E-Prime Primary Realtime Clock</Description><StartTime><Timestamp dt:dt=""int"">0</Timestamp><DateUtc dt:dt=""string"">2014-05-16T22:17:56Z</DateUtc></StartTime><FrequencyChanges><FrequencyChange><Frequency dt:dt=""r8"">2793030000</Frequency><Timestamp dt:dt=""r8"">2.21137872553098E+15</Timestamp><Current dt:dt=""r8"">0</Current><DateUtc dt:dt=""string"">2014-05-16T22:17:56Z</DateUtc></FrequencyChange></FrequencyChanges></Clock>\n",60.03,1,-585559856,0,,-999999,10,60729,t,45317,106046,5/16/2014,15:17:56,,1,Session1,SessionsList,,,,,,,,,,1,1,1,1,106056,,,,1,1,1,,,,Cued1,MiniBlocks1,,,,,8,1,r,-999999,11,238057,r,505,238562,White,Incongruent,r,Red,0,,0,13,233059,,0,0,8,1,8,,,,,,,,,,Pictures\red.bmp,4000,2000,Pictures\black.bmp,,,,,,,,,,,,,StimulusPr,Pictures\right.bmp,CuedStim1,Right
POP_2,16052,1,"<?xml version=""1.0""?>\n<Clock xmlns:dt=""urn:schemas-microsoft-com:datatypes""><Description dt:dt=""string"">E-Prime Primary Realtime Clock</Description><StartTime><Timestamp dt:dt=""int"">0</Timestamp><DateUtc dt:dt=""string"">2014-05-16T22:17:56Z</DateUtc></StartTime><FrequencyChanges><FrequencyChange><Frequency dt:dt=""r8"">2793030000</Frequency><Timestamp dt:dt=""r8"">2.21137872553098E+15</Timestamp><Current dt:dt=""r8"">0</Current><DateUtc dt:dt=""string"">2014-05-16T22:17:56Z</DateUtc></FrequencyChange></FrequencyChanges></Clock>\n",60.03,1,-585559856,0,,-999999,10,60729,t,45317,106046,5/16/2014,15:17:56,,1,Session1,SessionsList,,,,,,,,,,1,1,1,1,106056,,,,1,1,1,,,,Cued1,MiniBlocks1,,,,,9,1,b,-999999,6,247052,b,453,247505,White,Congruent,b,Green,0,,0,12,242055,,0,0,9,1,9,,,,,,,,,,Pictures\green.bmp,4000,2000,Pictures\black.bmp,,,,,,,,,,,,,StimulusPr,Pictures\right.bmp,CuedStim1,Right
POP_2,16052,1,"<?xml version=""1.0""?>\n<Clock xmlns:dt=""urn:schemas-microsoft-com:datatypes""><Description dt:dt=""string"">E-Prime Primary Realtime Clock</Description><StartTime><Timestamp dt:dt=""int"">0</Timestamp><DateUtc dt:dt=""string"">2014-05-16T22:17:56Z</DateUtc></StartTime><FrequencyChanges><FrequencyChange><Frequency dt:dt=""r8"">2793030000</Frequency><Timestamp dt:dt=""r8"">2.21137872553098E+15</Timestamp><Current dt:dt=""r8"">0</Current><DateUtc dt:dt=""string"">2014-05-16T22:17:56Z</DateUtc></FrequencyChange></FrequencyChanges></Clock>\n",60.03,1,-585559856,0,,-999999,10,60729,t,45317,106046,5/16/2014,15:17:56,,1,Session1,SessionsList,,,,,,,,,,1,1,1,1,106056,,,,1,1,1,,,,Cued1,MiniBlocks1,,,,,10,1,r,-999999,19,255065,r,439,255504,White,Congruent,r,Green,0,,0,8,251050,,0,0,10,1,10,,,,,,,,,,Pictures\green.bmp,3000,2000,Pictures\left.bmp,,,,,,,,,,,,,StimulusPr,Pictures\black.bmp,CuedStim1,Left
POP_2,16052,1,"<?xml version=""1.0""?>\n<Clock xmlns:dt=""urn:schemas-microsoft-com:datatypes""><Description dt:dt=""string"">E-Prime Primary Realtime Clock</Description><StartTime><Timestamp dt:dt=""int"">0</Timestamp><DateUtc dt:dt=""string"">2014-05-16T22:17:56Z</DateUtc></StartTime><FrequencyChanges><FrequencyChange><Frequency dt:dt=""r8"">2793030000</Frequency><Timestamp dt:dt=""r8"">2.21137872553098E+15</Timestamp><Current dt:dt=""r8"">0</Current><DateUtc dt:dt=""string"">2014-05-16T22:17:56Z</DateUtc></FrequencyChange></FrequencyChanges></Clock>\n",60.03,1,-585559856,0,,-999999,10,60729,t,45317,106046,5/16/2014,15:17:56,,1,Session1,SessionsList,,,,,,,,,,1,1,1,2,,,,,2,1,2,,,,NonCued1,MiniBlocks1,257530,,,,1,1,r,-999999,10,273056,r,552,273608,Green,Congruent,r,White,0,,0,12,268058,,0,0,,,,,,,,,,,,,Pictures\white.bmp,4000,2000,Pictures\GreenLeft.bmp,1,1,1,,,,,,,,,,StimulusPr,Pictures\black.bmp,NonCuedStim1,Left
POP_2,16052,1,"<?xml version=""1.0""?>\n<Clock xmlns:dt=""urn:schemas-microsoft-com:datatypes""><Description dt:dt=""string"">E-Prime Primary Realtime Clock</Description><StartTime><Timestamp dt:dt=""int"">0</Timestamp><DateUtc dt:dt=""string"">2014-05-16T22:17:56Z</DateUtc></StartTime><FrequencyChanges><FrequencyChange><Frequency dt:dt=""r8"">2793030000</Frequency><Timestamp dt:dt=""r8"">2.21137872553098E+15</Timestamp><Current dt:dt=""r8"">0</Current><DateUtc dt:dt=""string"">2014-05-16T22:17:56Z</DateUtc></FrequencyChange></FrequencyChanges></Clock>\n",60.03,1,-585559856,0,,-999999,10,60729,t,45317,106046,5/16/2014,15:17:56,,1,Session1,SessionsList,,,,,,,,,,1,1,1,2,,,,,2,1,2,,,,NonCued1,MiniBlocks1,257530,,,,2,1,b,-999999,4,284050,b,562,284612,Green,Congruent,b,White,0,,0,8,277054,,0,0,,,,,,,,,,,,,Pictures\white.bmp,6000,16000,Pictures\black.bmp,2,1,2,,,,,,,,,,StimulusPr,Pictures\GreenRight.bmp,NonCuedStim1,Right
POP_2,16052,1,"<?xml version=""1.0""?>\n<Clock xmlns:dt=""urn:schemas-microsoft-com:datatypes""><Description dt:dt=""string"">E-Prime Primary Realtime Clock</Description><StartTime><Timestamp dt:dt=""int"">0</Timestamp><DateUtc dt:dt=""string"">2014-05-16T22:17:56Z</DateUtc></StartTime><FrequencyChanges><FrequencyChange><Frequency dt:dt=""r8"">2793030000</Frequency><Timestamp dt:dt=""r8"">2.21137872553098E+15</Timestamp><Current dt:dt=""r8"">0</Current><DateUtc dt:dt=""string"">2014-05-16T22:17:56Z</DateUtc></FrequencyChange></FrequencyChanges></Clock>\n",60.03,1,-585559856,0,,-999999,10,60729,t,45317,106046,5/16/2014,15:17:56,,1,Session1,SessionsList,,,,,,,,,,1,1,1,2,,,,,2,1,2,,,,NonCued1,MiniBlocks1,257530,,,,3,1,r,-999999,9,309055,r,698,309753,Red,Incongruent,r,White,0,,0,13,302058,,0,0,,,,,,,,,,,,,Pictures\white.bmp,6000,10000,Pictures\black.bmp,3,1,3,,,,,,,,,,StimulusPr,Pictures\RedRight.bmp,NonCuedStim1,Right
POP_2,16052,1,"<?xml version=""1.0""?>\n<Clock xmlns:dt=""urn:schemas-microsoft-com:datatypes""><Description dt:dt=""string"">E-Prime Primary Realtime Clock</Description><StartTime><Timestamp dt:dt=""int"">0</Timestamp><DateUtc dt:dt=""string"">2014-05-16T22:17:56Z</DateUtc></StartTime><FrequencyChanges><FrequencyChange><Frequency dt:dt=""r8"">2793030000</Frequency><Timestamp dt:dt=""r8"">2.21137872553098E+15</Timestamp><Current dt:dt=""r8"">0</Current><DateUtc dt:dt=""string"">2014-05-16T22:17:56Z</DateUtc></FrequencyChange></FrequencyChanges></Clock>\n",60.03,1,-585559856,0,,-999999,10,60729,t,45317,106046,5/16/2014,15:17:56,,1,Session1,SessionsList,,,,,,,,,,1,1,1,2,,,,,2,1,2,,,,NonCued1,MiniBlocks1,257530,,,,4,1,r,-999999,14,331060,r,516,331576,Green,Congruent,r,White,0,,0,3,321049,,0,0,,,,,,,,,,,,,Pictures\white.bmp,9000,10000,Pictures\GreenLeft.bmp,4,1,4,,,,,,,,,,StimulusPr,Pictures\black.bmp,NonCuedStim1,Left
POP_2,16052,1,"<?xml version=""1.0""?>\n<Clock xmlns:dt=""urn:schemas-microsoft-com:datatypes""><Description dt:dt=""string"">E-Prime Primary Realtime Clock</Description><StartTime><Timestamp dt:dt=""int"">0</Timestamp><DateUtc dt:dt=""string"">2014-05-16T22:17:56Z</DateUtc></StartTime><FrequencyChanges><FrequencyChange><Frequency dt:dt=""r8"">2793030000</Frequency><Timestamp dt:dt=""r8"">2.21137872553098E+15</Timestamp><Current dt:dt=""r8"">0</Current><DateUtc dt:dt=""string"">2014-05-16T22:17:56Z</DateUtc></FrequencyChange></FrequencyChanges></Clock>\n",60.03,1,-585559856,0,,-999999,10,60729,t,45317,106046,5/16/2014,15:17:56,,1,Session1,SessionsList,,,,,,,,,,1,1,1,2,,,,,2,1,2,,,,NonCued1,MiniBlocks1,257530,,,,5,1,b,-999999,6,347052,b,477,347529,Green,Congruent,b,White,0,,0,8,343054,,0,0,,,,,,,,,,,,,Pictures\white.bmp,3000,2000,Pictures\black.bmp,5,1,5,,,,,,,,,,StimulusPr,Pictures\GreenRight.bmp,NonCuedStim1,Right
POP_2,16052,1,"<?xml version=""1.0""?>\n<Clock xmlns:dt=""urn:schemas-microsoft-com:datatypes""><Description dt:dt=""string"">E-Prime Primary Realtime Clock</Description><StartTime><Timestamp dt:dt=""int"">0</Timestamp><DateUtc dt:dt=""string"">2014-05-16T22:17:56Z</DateUtc></StartTime><FrequencyChanges><FrequencyChange><Frequency dt:dt=""r8"">2793030000</Frequency><Timestamp dt:dt=""r8"">2.21137872553098E+15</Timestamp><Current dt:dt=""r8"">0</Current><DateUtc dt:dt=""string"">2014-05-16T22:17:56Z</DateUtc></FrequencyChange></FrequencyChanges></Clock>\n",60.03,1,-585559856,0,,-999999,10,60729,t,45317,106046,5/16/2014,15:17:56,,1,Session1,SessionsList,,,,,,,,,,1,1,1,2,,,,,2,1,2,,,,NonCued1,MiniBlocks1,257530,,,,6,1,b,-999999,18,356064,b,518,356582,Red,Incongruent,b,White,0,,0,4,351050,,0,0,,,,,,,,,,,,,Pictures\white.bmp,4000,16000,Pictures\RedLeft.bmp,6,1,6,,,,,,,,,,StimulusPr,Pictures\black.bmp,NonCuedStim1,Left
POP_2,16052,1,"<?xml version=""1.0""?>\n<Clock xmlns:dt=""urn:schemas-microsoft-com:datatypes""><Description dt:dt=""string"">E-Prime Primary Realtime Clock</Description><StartTime><Timestamp dt:dt=""int"">0</Timestamp><DateUtc dt:dt=""string"">2014-05-16T22:17:56Z</DateUtc></StartTime><FrequencyChanges><FrequencyChange><Frequency dt:dt=""r8"">2793030000</Frequency><Timestamp dt:dt=""r8"">2.21137872553098E+15</Timestamp><Current dt:dt=""r8"">0</Current><DateUtc dt:dt=""string"">2014-05-16T22:17:56Z</DateUtc></FrequencyChange></FrequencyChanges></Clock>\n",60.03,1,-585559856,0,,-999999,10,60729,t,45317,106046,5/16/2014,15:17:56,,1,Session1,SessionsList,,,,,,,,,,1,1,1,2,,,,,2,1,2,,,,NonCued1,MiniBlocks1,257530,,,,7,1,b,-999999,7,378053,b,441,378494,Green,Congruent,b,White,0,,0,9,374055,,0,0,,,,,,,,,,,,,Pictures\white.bmp,3000,4000,Pictures\black.bmp,7,1,7,,,,,,,,,,StimulusPr,Pictures\GreenRight.bmp,NonCuedStim1,Right
POP_2,16052,1,"<?xml version=""1.0""?>\n<Clock xmlns:dt=""urn:schemas-microsoft-com:datatypes""><Description dt:dt=""string"">E-Prime Primary Realtime Clock</Description><StartTime><Timestamp dt:dt=""int"">0</Timestamp><DateUtc dt:dt=""string"">2014-05-16T22:17:56Z</DateUtc></StartTime><FrequencyChanges><FrequencyChange><Frequency dt:dt=""r8"">2793030000</Frequency><Timestamp dt:dt=""r8"">2.21137872553098E+15</Timestamp><Current dt:dt=""r8"">0</Current><DateUtc dt:dt=""string"">2014-05-16T22:17:56Z</DateUtc></FrequencyChange></FrequencyChanges></Clock>\n",60.03,1,-585559856,0,,-999999,10,60729,t,45317,106046,5/16/2014,15:17:56,,1,Session1,SessionsList,,,,,,,,,,1,1,1,2,,,,,2,1,2,,,,NonCued1,MiniBlocks1,257530,,,,8,1,b,-999999,2,388048,b,567,388615,Green,Congruent,b,White,0,,0,4,384050,,0,0,,,,,,,,,,,,,Pictures\white.bmp,3000,4000,Pictures\black.bmp,8,1,8,,,,,,,,,,StimulusPr,Pictures\GreenRight.bmp,NonCuedStim1,Right
POP_2,16052,1,"<?xml version=""1.0""?>\n<Clock xmlns:dt=""urn:schemas-microsoft-com:datatypes""><Description dt:dt=""string"">E-Prime Primary Realtime Clock</Description><StartTime><Timestamp dt:dt=""int"">0</Timestamp><DateUtc dt:dt=""string"">2014-05-16T22:17:56Z</DateUtc></StartTime><FrequencyChanges><FrequencyChange><Frequency dt:dt=""r8"">2793030000</Frequency><Timestamp dt:dt=""r8"">2.21137872553098E+15</Timestamp><Current dt:dt=""r8"">0</Current><DateUtc dt:dt=""string"">2014-05-16T22:17:56Z</DateUtc></FrequencyChange></FrequencyChanges></Clock>\n",60.03,1,-585559856,0,,-999999,10,60729,t,45317,106046,5/16/2014,15:17:56,,1,Session1,SessionsList,,,,,,,,,,1,1,1,2,,,,,2,1,2,,,,NonCued1,MiniBlocks1,257530,,,,9,1,b,-999999,11,404057,b,689,404746,Red,Incongruent,b,White,0,,0,16,394062,,0,0,,,,,,,,,,,,,Pictures\white.bmp,9000,2000,Pictures\RedLeft.bmp,9,1,9,,,,,,,,,,StimulusPr,Pictures\black.bmp,NonCuedStim1,Left
POP_2,16052,1,"<?xml version=""1.0""?>\n<Clock xmlns:dt=""urn:schemas-microsoft-com:datatypes""><Description dt:dt=""string"">E-Prime Primary Realtime Clock</Description><StartTime><Timestamp dt:dt=""int"">0</Timestamp><DateUtc dt:dt=""string"">2014-05-16T22:17:56Z</DateUtc></StartTime><FrequencyChanges><FrequencyChange><Frequency dt:dt=""r8"">2793030000</Frequency><Timestamp dt:dt=""r8"">2.21137872553098E+15</Timestamp><Current dt:dt=""r8"">0</Current><DateUtc dt:dt=""string"">2014-05-16T22:17:56Z</DateUtc></FrequencyChange></FrequencyChanges></Clock>\n",60.03,1,-585559856,0,,-999999,10,60729,t,45317,106046,5/16/2014,15:17:56,,1,Session1,SessionsList,,,,,,,,,,1,1,1,2,,,,,2,1,2,,,,NonCued1,MiniBlocks1,257530,,,,10,1,r,-999999,6,415052,r,610,415662,Green,Congruent,r,White,0,,0,9,408055,,0,0,,,,,,,,,,,,,Pictures\white.bmp,6000,2000,Pictures\GreenLeft.bmp,10,1,10,,,,,,,,,,StimulusPr,Pictures\black.bmp,NonCuedStim1,Left
POP_2,16052,1,"<?xml version=""1.0""?>\n<Clock xmlns:dt=""urn:schemas-microsoft-com:datatypes""><Description dt:dt=""string"">E-Prime Primary Realtime Clock</Description><StartTime><Timestamp dt:dt=""int"">0</Timestamp><DateUtc dt:dt=""string"">2014-05-16T22:17:56Z</DateUtc></StartTime><FrequencyChanges><FrequencyChange><Frequency dt:dt=""r8"">2793030000</Frequency><Timestamp dt:dt=""r8"">2.21137872553098E+15</Timestamp><Current dt:dt=""r8"">0</Current><DateUtc dt:dt=""string"">2014-05-16T22:17:56Z</DateUtc></FrequencyChange></FrequencyChanges></Clock>\n",60.03,1,-585559856,0,,-999999,10,60729,t,45317,106046,5/16/2014,15:17:56,,1,Session1,SessionsList,,,,,,,,,,1,1,1,3,,,,,3,1,3,,,,NonCued2,MiniBlocks1,,417684,,,1,1,b,-999999,11,438057,b,616,438673,Green,Congruent,b,White,0,,0,16,428062,,0,0,,,,,,,,,,,,,Pictures\white.bmp,9000,10000,Pictures\black.bmp,,,,1,1,1,,,,,,,StimulusPr,Pictures\GreenRight.bmp,NonCuedStim2,Right
POP_2,16052,1,"<?xml version=""1.0""?>\n<Clock xmlns:dt=""urn:schemas-microsoft-com:datatypes""><Description dt:dt=""string"">E-Prime Primary Realtime Clock</Description><StartTime><Timestamp dt:dt=""int"">0</Timestamp><DateUtc dt:dt=""string"">2014-05-16T22:17:56Z</DateUtc></StartTime><FrequencyChanges><FrequencyChange><Frequency dt:dt=""r8"">2793030000</Frequency><Timestamp dt:dt=""r8"">2.21137872553098E+15</Timestamp><Current dt:dt=""r8"">0</Current><DateUtc dt:dt=""string"">2014-05-16T22:17:56Z</DateUtc></FrequencyChange></FrequencyChanges></Clock>\n",60.03,1,-585559856,0,,-999999,10,60729,t,45317,106046,5/16/2014,15:17:56,,1,Session1,SessionsList,,,,,,,,,,1,1,1,3,,,,,3,1,3,,,,NonCued2,MiniBlocks1,,417684,,,2,1,r,-999999,3,454049,r,612,454661,Green,Congruent,r,White,0,,0,5,450051,,0,0,,,,,,,,,,,,,Pictures\white.bmp,3000,2000,Pictures\GreenLeft.bmp,,,,2,1,2,,,,,,,StimulusPr,Pictures\black.bmp,NonCuedStim2,Left
POP_2,16052,1,"<?xml version=""1.0""?>\n<Clock xmlns:dt=""urn:schemas-microsoft-com:datatypes""><Description dt:dt=""string"">E-Prime Primary Realtime Clock</Description><StartTime><Timestamp dt:dt=""int"">0</Timestamp><DateUtc dt:dt=""string"">2014-05-16T22:17:56Z</DateUtc></StartTime><FrequencyChanges><FrequencyChange><Frequency dt:dt=""r8"">2793030000</Frequency><Timestamp dt:dt=""r8"">2.21137872553098E+15</Timestamp><Current dt:dt=""r8"">0</Current><DateUtc dt:dt=""string"">2014-05-16T22:17:56Z</DateUtc></FrequencyChange></FrequencyChanges></Clock>\n",60.03,1,-585559856,0,,-999999,10,60729,t,45317,106046,5/16/2014,15:17:56,,1,Session1,SessionsList,,,,,,,,,,1,1,1,3,,,,,3,1,3,,,,NonCued2,MiniBlocks1,,417684,,,3,1,r,-999999,16,462062,r,670,462732,Red,Incongruent,r,White,0,,0,18,458064,,0,0,,,,,,,,,,,,,Pictures\white.bmp,3000,2000,Pictures\black.bmp,,,,3,1,3,,,,,,,StimulusPr,Pictures\RedRight.bmp,NonCuedStim2,Right
POP_2,16052,1,"<?xml version=""1.0""?>\n<Clock xmlns:dt=""urn:schemas-microsoft-com:datatypes""><Description dt:dt=""string"">E-Prime Primary Realtime Clock</Description><StartTime><Timestamp dt:dt=""int"">0</Timestamp><DateUtc dt:dt=""string"">2014-05-16T22:17:56Z</DateUtc></StartTime><FrequencyChanges><FrequencyChange><Frequency dt:dt=""r8"">2793030000</Frequency><Timestamp dt:dt=""r8"">2.21137872553098E+15</Timestamp><Current dt:dt=""r8"">0</Current><DateUtc dt:dt=""string"">2014-05-16T22:17:56Z</DateUtc></FrequencyChange></FrequencyChanges></Clock>\n",60.03,1,-585559856,0,,-999999,10,60729,t,45317,106046,5/16/2014,15:17:56,,1,Session1,SessionsList,,,,,,,,,,1,1,1,3,,,,,3,1,3,,,,NonCued2,MiniBlocks1,,417684,,,4,1,r,-999999,14,471057,r,431,471488,Green,Congruent,r,White,0,,0,14,466060,,0,0,,,,,,,,,,,,,Pictures\white.bmp,4000,16000,Pictures\GreenLeft.bmp,,,,4,1,4,,,,,,,StimulusPr,Pictures\black.bmp,NonCuedStim2,Left
POP_2,16052,1,"<?xml version=""1.0""?>\n<Clock xmlns:dt=""urn:schemas-microsoft-com:datatypes""><Description dt:dt=""string"">E-Prime Primary Realtime Clock</Description><StartTime><Timestamp dt:dt=""int"">0</Timestamp><DateUtc dt:dt=""string"">2014-05-16T22:17:56Z</DateUtc></StartTime><FrequencyChanges><FrequencyChange><Frequency dt:dt=""r8"">2793030000</Frequency><Timestamp dt:dt=""r8"">2.21137872553098E+15</Timestamp><Current dt:dt=""r8"">0</Current><DateUtc dt:dt=""string"">2014-05-16T22:17:56Z</DateUtc></FrequencyChange></FrequencyChanges></Clock>\n",60.03,1,-585559856,0,,-999999,10,60729,t,45317,106046,5/16/2014,15:17:56,,1,Session1,SessionsList,,,,,,,,,,1,1,1,3,,,,,3,1,3,,,,NonCued2,MiniBlocks1,,417684,,,5,1,r,-999999,15,496061,r,418,496479,Green,Congruent,r,White,0,,0,2,489048,,0,0,,,,,,,,,,,,,Pictures\white.bmp,6000,4000,Pictures\GreenLeft.bmp,,,,5,1,5,,,,,,,StimulusPr,Pictures\black.bmp,NonCuedStim2,Left
POP_2,16052,1,"<?xml version=""1.0""?>\n<Clock xmlns:dt=""urn:schemas-microsoft-com:datatypes""><Description dt:dt=""string"">E-Prime Primary Realtime Clock</Description><StartTime><Timestamp dt:dt=""int"">0</Timestamp><DateUtc dt:dt=""string"">2014-05-16T22:17:56Z</DateUtc></StartTime><FrequencyChanges><FrequencyChange><Frequency dt:dt=""r8"">2793030000</Frequency><Timestamp dt:dt=""r8"">2.21137872553098E+15</Timestamp><Current dt:dt=""r8"">0</Current><DateUtc dt:dt=""string"">2014-05-16T22:17:56Z</DateUtc></FrequencyChange></FrequencyChanges></Clock>\n",60.03,1,-585559856,0,,-999999,10,60729,t,45317,106046,5/16/2014,15:17:56,,1,Session1,SessionsList,,,,,,,,,,1,1,1,3,,,,,3,1,3,,,,NonCued2,MiniBlocks1,,417684,,,6,1,b,-999999,10,506056,b,573,506629,Red,Incongruent,b,White,0,,0,12,502058,,0,0,,,,,,,,,,,,,Pictures\white.bmp,3000,4000,Pictures\RedLeft.bmp,,,,6,1,6,,,,,,,StimulusPr,Pictures\black.bmp,NonCuedStim2,Left
POP_2,16052,1,"<?xml version=""1.0""?>\n<Clock xmlns:dt=""urn:schemas-microsoft-com:datatypes""><Description dt:dt=""string"">E-Prime Primary Realtime Clock</Description><StartTime><Timestamp dt:dt=""int"">0</Timestamp><DateUtc dt:dt=""string"">2014-05-16T22:17:56Z</DateUtc></StartTime><FrequencyChanges><FrequencyChange><Frequency dt:dt=""r8"">2793030000</Frequency><Timestamp dt:dt=""r8"">2.21137872553098E+15</Timestamp><Current dt:dt=""r8"">0</Current><DateUtc dt:dt=""string"">2014-05-16T22:17:56Z</DateUtc></FrequencyChange></FrequencyChanges></Clock>\n",60.03,1,-585559856,0,,-999999,10,60729,t,45317,106046,5/16/2014,15:17:56,,1,Session1,SessionsList,,,,,,,,,,1,1,1,3,,,,,3,1,3,,,,NonCued2,MiniBlocks1,,417684,,,7,1,b,-999999,5,517051,b,462,517513,Green,Congruent,b,White,0,,0,7,512053,,0,0,,,,,,,,,,,,,Pictures\white.bmp,4000,16000,Pictures\black.bmp,,,,7,1,7,,,,,,,StimulusPr,Pictures\GreenRight.bmp,NonCuedStim2,Right
POP_2,16052,1,"<?xml version=""1.0""?>\n<Clock xmlns:dt=""urn:schemas-microsoft-com:datatypes""><Description dt:dt=""string"">E-Prime Primary Realtime Clock</Description><StartTime><Timestamp dt:dt=""int"">0</Timestamp><DateUtc dt:dt=""string"">2014-05-16T22:17:56Z</DateUtc></StartTime><FrequencyChanges><FrequencyChange><Frequency dt:dt=""r8"">2793030000</Frequency><Timestamp dt:dt=""r8"">2.21137872553098E+15</Timestamp><Current dt:dt=""r8"">0</Current><DateUtc dt:dt=""string"">2014-05-16T22:17:56Z</DateUtc></FrequencyChange></FrequencyChanges></Clock>\n",60.03,1,-585559856,0,,-999999,10,60729,t,45317,106046,5/16/2014,15:17:56,,1,Session1,SessionsList,,,,,,,,,,1,1,1,3,,,,,3,1,3,,,,NonCued2,MiniBlocks1,,417684,,,8,1,r,-999999,7,545053,r,607,545660,Green,Congruent,r,White,0,,0,12,535058,,0,0,,,,,,,,,,,,,Pictures\white.bmp,9000,2000,Pictures\GreenLeft.bmp,,,,8,1,8,,,,,,,StimulusPr,Pictures\black.bmp,NonCuedStim2,Left
POP_2,16052,1,"<?xml version=""1.0""?>\n<Clock xmlns:dt=""urn:schemas-microsoft-com:datatypes""><Description dt:dt=""string"">E-Prime Primary Realtime Clock</Description><StartTime><Timestamp dt:dt=""int"">0</Timestamp><DateUtc dt:dt=""string"">2014-05-16T22:17:56Z</DateUtc></StartTime><FrequencyChanges><FrequencyChange><Frequency dt:dt=""r8"">2793030000</Frequency><Timestamp dt:dt=""r8"">2.21137872553098E+15</Timestamp><Current dt:dt=""r8"">0</Current><DateUtc dt:dt=""string"">2014-05-16T22:17:56Z</DateUtc></FrequencyChange></FrequencyChanges></Clock>\n",60.03,1,-585559856,0,,-999999,10,60729,t,45317,106046,5/16/2014,15:17:56,,1,Session1,SessionsList,,,,,,,,,,1,1,1,3,,,,,3,1,3,,,,NonCued2,MiniBlocks1,,417684,,,9,1,b,-999999,3,553049,b,576,553625,Green,Congruent,b,White,0,,0,5,549051,,0,0,,,,,,,,,,,,,Pictures\white.bmp,3000,10000,Pictures\black.bmp,,,,9,1,9,,,,,,,StimulusPr,Pictures\GreenRight.bmp,NonCuedStim2,Right
POP_2,16052,1,"<?xml version=""1.0""?>\n<Clock xmlns:dt=""urn:schemas-microsoft-com:datatypes""><Description dt:dt=""string"">E-Prime Primary Realtime Clock</Description><StartTime><Timestamp dt:dt=""int"">0</Timestamp><DateUtc dt:dt=""string"">2014-05-16T22:17:56Z</DateUtc></StartTime><FrequencyChanges><FrequencyChange><Frequency dt:dt=""r8"">2793030000</Frequency><Timestamp dt:dt=""r8"">2.21137872553098E+15</Timestamp><Current dt:dt=""r8"">0</Current><DateUtc dt:dt=""string"">2014-05-16T22:17:56Z</DateUtc></FrequencyChange></FrequencyChanges></Clock>\n",60.03,1,-585559856,0,,-999999,10,60729,t,45317,106046,5/16/2014,15:17:56,,1,Session1,SessionsList,,,,,,,,,,1,1,1,3,,,,,3,1,3,,,,NonCued2,MiniBlocks1,,417684,,,10,1,b,-999999,12,569058,b,698,569756,Green,Congruent,b,White,0,,0,14,565060,,0,0,,,,,,,,,,,,,Pictures\white.bmp,3000,2000,Pictures\black.bmp,,,,10,1,10,,,,,,,StimulusPr,Pictures\GreenRight.bmp,NonCuedStim2,Right
POP_2,16052,1,"<?xml version=""1.0""?>\n<Clock xmlns:dt=""urn:schemas-microsoft-com:datatypes""><Description dt:dt=""string"">E-Prime Primary Realtime Clock</Description><StartTime><Timestamp dt:dt=""int"">0</Timestamp><DateUtc dt:dt=""string"">2014-05-16T22:17:56Z</DateUtc></StartTime><FrequencyChanges><FrequencyChange><Frequency dt:dt=""r8"">2793030000</Frequency><Timestamp dt:dt=""r8"">2.21137872553098E+15</Timestamp><Current dt:dt=""r8"">0</Current><DateUtc dt:dt=""string"">2014-05-16T22:17:56Z</DateUtc></FrequencyChange></FrequencyChanges></Clock>\n",60.03,1,-585559856,0,,-999999,10,60729,t,45317,106046,5/16/2014,15:17:56,,1,Session1,SessionsList,,,,,,,,,,1,1,1,4,,571773,,,4,1,4,,,,Cued2,MiniBlocks1,,,,,1,1,b,-999999,2,589048,b,411,589459,White,Congruent,b,Green,0,,0,6,582052,,0,0,,,,1,1,1,,,,,,,Pictures\green.bmp,6000,4000,Pictures\black.bmp,,,,,,,,,,,,,StimulusPr,Pictures\right.bmp,CuedStim2,Right
POP_2,16052,1,"<?xml version=""1.0""?>\n<Clock xmlns:dt=""urn:schemas-microsoft-com:datatypes""><Description dt:dt=""string"">E-Prime Primary Realtime Clock</Description><StartTime><Timestamp dt:dt=""int"">0</Timestamp><DateUtc dt:dt=""string"">2014-05-16T22:17:56Z</DateUtc></StartTime><FrequencyChanges><FrequencyChange><Frequency dt:dt=""r8"">2793030000</Frequency><Timestamp dt:dt=""r8"">2.21137872553098E+15</Timestamp><Current dt:dt=""r8"">0</Current><DateUtc dt:dt=""string"">2014-05-16T22:17:56Z</DateUtc></FrequencyChange></FrequencyChanges></Clock>\n",60.03,1,-585559856,0,,-999999,10,60729,t,45317,106046,5/16/2014,15:17:56,,1,Session1,SessionsList,,,,,,,,,,1,1,1,4,,571773,,,4,1,4,,,,Cued2,MiniBlocks1,,,,,2,1,b,-999999,11,605057,b,753,605810,White,Congruent,b,Green,0,,0,16,595062,,0,0,,,,2,1,2,,,,,,,Pictures\green.bmp,9000,10000,Pictures\black.bmp,,,,,,,,,,,,,StimulusPr,Pictures\right.bmp,CuedStim2,Right
POP_2,16052,1,"<?xml version=""1.0""?>\n<Clock xmlns:dt=""urn:schemas-microsoft-com:datatypes""><Description dt:dt=""string"">E-Prime Primary Realtime Clock</Description><StartTime><Timestamp dt:dt=""int"">0</Timestamp><DateUtc dt:dt=""string"">2014-05-16T22:17:56Z</DateUtc></StartTime><FrequencyChanges><FrequencyChange><Frequency dt:dt=""r8"">2793030000</Frequency><Timestamp dt:dt=""r8"">2.21137872553098E+15</Timestamp><Current dt:dt=""r8"">0</Current><DateUtc dt:dt=""string"">2014-05-16T22:17:56Z</DateUtc></FrequencyChange></FrequencyChanges></Clock>\n",60.03,1,-585559856,0,,-999999,10,60729,t,45317,106046,5/16/2014,15:17:56,,1,Session1,SessionsList,,,,,,,,,,1,1,1,4,,571773,,,4,1,4,,,,Cued2,MiniBlocks1,,,,,3,1,r,-999999,4,621049,r,487,621536,White,Incongruent,r,Red,0,,0,5,617051,,0,0,,,,3,1,3,,,,,,,Pictures\red.bmp,3000,2000,Pictures\black.bmp,,,,,,,,,,,,,StimulusPr,Pictures\right.bmp,CuedStim2,Right
POP_2,16052,1,"<?xml version=""1.0""?>\n<Clock xmlns:dt=""urn:schemas-microsoft-com:datatypes""><Description dt:dt=""string"">E-Prime Primary Realtime Clock</Description><StartTime><Timestamp dt:dt=""int"">0</Timestamp><DateUtc dt:dt=""string"">2014-05-16T22:17:56Z</DateUtc></StartTime><FrequencyChanges><FrequencyChange><Frequency dt:dt=""r8"">2793030000</Frequency><Timestamp dt:dt=""r8"">2.21137872553098E+15</Timestamp><Current dt:dt=""r8"">0</Current><DateUtc dt:dt=""string"">2014-05-16T22:17:56Z</DateUtc></FrequencyChange></FrequencyChanges></Clock>\n",60.03,1,-585559856,0,,-999999,10,60729,t,45317,106046,5/16/2014,15:17:56,,1,Session1,SessionsList,,,,,,,,,,1,1,1,4,,571773,,,4,1,4,,,,Cued2,MiniBlocks1,,,,,4,1,r,-999999,14,632060,r,430,632490,White,Congruent,r,Green,0,,0,19,625064,,0,0,,,,4,1,4,,,,,,,Pictures\green.bmp,6000,16000,Pictures\left.bmp,,,,,,,,,,,,,StimulusPr,Pictures\black.bmp,CuedStim2,Left
POP_2,16052,1,"<?xml version=""1.0""?>\n<Clock xmlns:dt=""urn:schemas-microsoft-com:datatypes""><Description dt:dt=""string"">E-Prime Primary Realtime Clock</Description><StartTime><Timestamp dt:dt=""int"">0</Timestamp><DateUtc dt:dt=""string"">2014-05-16T22:17:56Z</DateUtc></StartTime><FrequencyChanges><FrequencyChange><Frequency dt:dt=""r8"">2793030000</Frequency><Timestamp dt:dt=""r8"">2.21137872553098E+15</Timestamp><Current dt:dt=""r8"">0</Current><DateUtc dt:dt=""string"">2014-05-16T22:17:56Z</DateUtc></FrequencyChange></FrequencyChanges></Clock>\n",60.03,1,-585559856,0,,-999999,10,60729,t,45317,106046,5/16/2014,15:17:56,,1,Session1,SessionsList,,,,,,,,,,1,1,1,4,,571773,,,4,1,4,,,,Cued2,MiniBlocks1,,,,,5,1,b,-999999,3,654049,b,369,654418,White,Congruent,b,Green,0,,0,5,650051,,0,0,,,,5,1,5,,,,,,,Pictures\green.bmp,3000,2000,Pictures\black.bmp,,,,,,,,,,,,,StimulusPr,Pictures\right.bmp,CuedStim2,Right
POP_2,16052,1,"<?xml version=""1.0""?>\n<Clock xmlns:dt=""urn:schemas-microsoft-com:datatypes""><Description dt:dt=""string"">E-Prime Primary Realtime Clock</Description><StartTime><Timestamp dt:dt=""int"">0</Timestamp><DateUtc dt:dt=""string"">2014-05-16T22:17:56Z</DateUtc></StartTime><FrequencyChanges><FrequencyChange><Frequency dt:dt=""r8"">2793030000</Frequency><Timestamp dt:dt=""r8"">2.21137872553098E+15</Timestamp><Current dt:dt=""r8"">0</Current><DateUtc dt:dt=""string"">2014-05-16T22:17:56Z</DateUtc></FrequencyChange></FrequencyChanges></Clock>\n",60.03,1,-585559856,0,,-999999,10,60729,t,45317,106046,5/16/2014,15:17:56,,1,Session1,SessionsList,,,,,,,,,,1,1,1,4,,571773,,,4,1,4,,,,Cued2,MiniBlocks1,,,,,6,1,r,-999999,18,662062,r,482,662544,White,Congruent,r,Green,0,,0,4,658047,,0,0,,,,6,1,6,,,,,,,Pictures\green.bmp,3000,2000,Pictures\left.bmp,,,,,,,,,,,,,StimulusPr,Pictures\black.bmp,CuedStim2,Left
POP_2,16052,1,"<?xml version=""1.0""?>\n<Clock xmlns:dt=""urn:schemas-microsoft-com:datatypes""><Description dt:dt=""string"">E-Prime Primary Realtime Clock</Description><StartTime><Timestamp dt:dt=""int"">0</Timestamp><DateUtc dt:dt=""string"">2014-05-16T22:17:56Z</DateUtc></StartTime><FrequencyChanges><FrequencyChange><Frequency dt:dt=""r8"">2793030000</Frequency><Timestamp dt:dt=""r8"">2.21137872553098E+15</Timestamp><Current dt:dt=""r8"">0</Current><DateUtc dt:dt=""string"">2014-05-16T22:17:56Z</DateUtc></FrequencyChange></FrequencyChanges></Clock>\n",60.03,1,-585559856,0,,-999999,10,60729,t,45317,106046,5/16/2014,15:17:56,,1,Session1,SessionsList,,,,,,,,,,1,1,1,4,,571773,,,4,1,4,,,,Cued2,MiniBlocks1,,,,,7,1,b,-999999,10,673056,b,695,673751,White,Incongruent,b,Red,0,,0,14,666060,,0,0,,,,7,1,7,,,,,,,Pictures\red.bmp,6000,4000,Pictures\left.bmp,,,,,,,,,,,,,StimulusPr,Pictures\black.bmp,CuedStim2,Left
POP_2,16052,1,"<?xml version=""1.0""?>\n<Clock xmlns:dt=""urn:schemas-microsoft-com:datatypes""><Description dt:dt=""string"">E-Prime Primary Realtime Clock</Description><StartTime><Timestamp dt:dt=""int"">0</Timestamp><DateUtc dt:dt=""string"">2014-05-16T22:17:56Z</DateUtc></StartTime><FrequencyChanges><FrequencyChange><Frequency dt:dt=""r8"">2793030000</Frequency><Timestamp dt:dt=""r8"">2.21137872553098E+15</Timestamp><Current dt:dt=""r8"">0</Current><DateUtc dt:dt=""string"">2014-05-16T22:17:56Z</DateUtc></FrequencyChange></FrequencyChanges></Clock>\n",60.03,1,-585559856,0,,-999999,10,60729,t,45317,106046,5/16/2014,15:17:56,,1,Session1,SessionsList,,,,,,,,,,1,1,1,4,,571773,,,4,1,4,,,,Cued2,MiniBlocks1,,,,,8,1,b,-999999,5,684051,b,566,684617,White,Congruent,b,Green,0,,0,7,679053,,0,0,,,,8,1,8,,,,,,,Pictures\green.bmp,4000,4000,Pictures\black.bmp,,,,,,,,,,,,,StimulusPr,Pictures\right.bmp,CuedStim2,Right
POP_2,16052,1,"<?xml version=""1.0""?>\n<Clock xmlns:dt=""urn:schemas-microsoft-com:datatypes""><Description dt:dt=""string"">E-Prime Primary Realtime Clock</Description><StartTime><Timestamp dt:dt=""int"">0</Timestamp><DateUtc dt:dt=""string"">2014-05-16T22:17:56Z</DateUtc></StartTime><FrequencyChanges><FrequencyChange><Frequency dt:dt=""r8"">2793030000</Frequency><Timestamp dt:dt=""r8"">2.21137872553098E+15</Timestamp><Current dt:dt=""r8"">0</Current><DateUtc dt:dt=""string"">2014-05-16T22:17:56Z</DateUtc></FrequencyChange></FrequencyChanges></Clock>\n",60.03,1,-585559856,0,,-999999,10,60729,t,45317,106046,5/16/2014,15:17:56,,1,Session1,SessionsList,,,,,,,,,,1,1,1,4,,571773,,,4,1,4,,,,Cued2,MiniBlocks1,,,,,9,1,b,-999999,13,700059,b,390,700449,White,Incongruent,b,Red,0,,0,2,690048,,0,0,,,,9,1,9,,,,,,,Pictures\red.bmp,9000,10000,Pictures\left.bmp,,,,,,,,,,,,,StimulusPr,Pictures\black.bmp,CuedStim2,Left
POP_2,16052,1,"<?xml version=""1.0""?>\n<Clock xmlns:dt=""urn:schemas-microsoft-com:datatypes""><Description dt:dt=""string"">E-Prime Primary Realtime Clock</Description><StartTime><Timestamp dt:dt=""int"">0</Timestamp><DateUtc dt:dt=""string"">2014-05-16T22:17:56Z</DateUtc></StartTime><FrequencyChanges><FrequencyChange><Frequency dt:dt=""r8"">2793030000</Frequency><Timestamp dt:dt=""r8"">2.21137872553098E+15</Timestamp><Current dt:dt=""r8"">0</Current><DateUtc dt:dt=""string"">2014-05-16T22:17:56Z</DateUtc></FrequencyChange></FrequencyChanges></Clock>\n",60.03,1,-585559856,0,,-999999,10,60729,t,45317,106046,5/16/2014,15:17:56,,1,Session1,SessionsList,,,,,,,,,,1,1,1,4,,571773,,,4,1,4,,,,Cued2,MiniBlocks1,,,,,10,1,r,-999999,2,722048,r,454,722502,White,Congruent,r,Green,0,,0,8,712053,,0,0,,,,10,1,10,,,,,,,Pictures\green.bmp,9000,10000,Pictures\left.bmp,,,,,,,,,,,,,StimulusPr,Pictures\black.bmp,CuedStim2,Left
POP_2,16052,1,"<?xml version=""1.0""?>\n<Clock xmlns:dt=""urn:schemas-microsoft-com:datatypes""><Description dt:dt=""string"">E-Prime Primary Realtime Clock</Description><StartTime><Timestamp dt:dt=""int"">0</Timestamp><DateUtc dt:dt=""string"">2014-05-16T22:17:56Z</DateUtc></StartTime><FrequencyChanges><FrequencyChange><Frequency dt:dt=""r8"">2793030000</Frequency><Timestamp dt:dt=""r8"">2.21137872553098E+15</Timestamp><Current dt:dt=""r8"">0</Current><DateUtc dt:dt=""string"">2014-05-16T22:17:56Z</DateUtc></FrequencyChange></FrequencyChanges></Clock>\n",60.03,1,-585559856,0,,-999999,10,60729,t,45317,106046,5/16/2014,15:17:56,,2,Session2,SessionsList,0,,-999999,11,747869,t,37879,785748,732527,2,1,2,1,,,,,,,,1,1,1,NonCued3,MiniBlocks2,,,785750,,1,1,b,-999999,7,805740,b,437,806177,Green,Congruent,b,White,0,,0,14,795762,,0,0,,,,,,,,,,,,,Pictures\white.bmp,9000,10000,Pictures\black.bmp,,,,,,,1,1,1,,,,StimulusPr,Pictures\GreenRight.bmp,NonCuedStim3,Right
POP_2,16052,1,"<?xml version=""1.0""?>\n<Clock xmlns:dt=""urn:schemas-microsoft-com:datatypes""><Description dt:dt=""string"">E-Prime Primary Realtime Clock</Description><StartTime><Timestamp dt:dt=""int"">0</Timestamp><DateUtc dt:dt=""string"">2014-05-16T22:17:56Z</DateUtc></StartTime><FrequencyChanges><FrequencyChange><Frequency dt:dt=""r8"">2793030000</Frequency><Timestamp dt:dt=""r8"">2.21137872553098E+15</Timestamp><Current dt:dt=""r8"">0</Current><DateUtc dt:dt=""string"">2014-05-16T22:17:56Z</DateUtc></FrequencyChange></FrequencyChanges></Clock>\n",60.03,1,-585559856,0,,-999999,10,60729,t,45317,106046,5/16/2014,15:17:56,,2,Session2,SessionsList,0,,-999999,11,747869,t,37879,785748,732527,2,1,2,1,,,,,,,,1,1,1,NonCued3,MiniBlocks2,,,785750,,2,1,r,-999999,14,827762,r,610,828372,Red,Incongruent,r,White,0,,0,15,817751,,0,0,,,,,,,,,,,,,Pictures\white.bmp,9000,10000,Pictures\black.bmp,,,,,,,2,1,2,,,,StimulusPr,Pictures\RedRight.bmp,NonCuedStim3,Right
POP_2,16052,1,"<?xml version=""1.0""?>\n<Clock xmlns:dt=""urn:schemas-microsoft-com:datatypes""><Description dt:dt=""string"">E-Prime Primary Realtime Clock</Description><StartTime><Timestamp dt:dt=""int"">0</Timestamp><DateUtc dt:dt=""string"">2014-05-16T22:17:56Z</DateUtc></StartTime><FrequencyChanges><FrequencyChange><Frequency dt:dt=""r8"">2793030000</Frequency><Timestamp dt:dt=""r8"">2.21137872553098E+15</Timestamp><Current dt:dt=""r8"">0</Current><DateUtc dt:dt=""string"">2014-05-16T22:17:56Z</DateUtc></FrequencyChange></FrequencyChanges></Clock>\n",60.03,1,-585559856,0,,-999999,10,60729,t,45317,106046,5/16/2014,15:17:56,,2,Session2,SessionsList,0,,-999999,11,747869,t,37879,785748,732527,2,1,2,1,,,,,,,,1,1,1,NonCued3,MiniBlocks2,,,785750,,3,1,r,-999999,6,844754,r,525,845279,Green,Congruent,r,White,0,,0,8,839756,,0,0,,,,,,,,,,,,,Pictures\white.bmp,4000,4000,Pictures\GreenLeft.bmp,,,,,,,3,1,3,,,,StimulusPr,Pictures\black.bmp,NonCuedStim3,Left
POP_2,16052,1,"<?xml version=""1.0""?>\n<Clock xmlns:dt=""urn:schemas-microsoft-com:datatypes""><Description dt:dt=""string"">E-Prime Primary Realtime Clock</Description><StartTime><Timestamp dt:dt=""int"">0</Timestamp><DateUtc dt:dt=""string"">2014-05-16T22:17:56Z</DateUtc></StartTime><FrequencyChanges><FrequencyChange><Frequency dt:dt=""r8"">2793030000</Frequency><Timestamp dt:dt=""r8"">2.21137872553098E+15</Timestamp><Current dt:dt=""r8"">0</Current><DateUtc dt:dt=""string"">2014-05-16T22:17:56Z</DateUtc></FrequencyChange></FrequencyChanges></Clock>\n",60.03,1,-585559856,0,,-999999,10,60729,t,45317,106046,5/16/2014,15:17:56,,2,Session2,SessionsList,0,,-999999,11,747869,t,37879,785748,732527,2,1,2,1,,,,,,,,1,1,1,NonCued3,MiniBlocks2,,,785750,,4,1,b,-999999,16,857764,b,514,858278,Red,Incongruent,b,White,0,,0,3,850751,,0,0,,,,,,,,,,,,,Pictures\white.bmp,6000,4000,Pictures\RedLeft.bmp,,,,,,,4,1,4,,,,StimulusPr,Pictures\black.bmp,NonCuedStim3,Left
POP_2,16052,1,"<?xml version=""1.0""?>\n<Clock xmlns:dt=""urn:schemas-microsoft-com:datatypes""><Description dt:dt=""string"">E-Prime Primary Realtime Clock</Description><StartTime><Timestamp dt:dt=""int"">0</Timestamp><DateUtc dt:dt=""string"">2014-05-16T22:17:56Z</DateUtc></StartTime><FrequencyChanges><FrequencyChange><Frequency dt:dt=""r8"">2793030000</Frequency><Timestamp dt:dt=""r8"">2.21137872553098E+15</Timestamp><Current dt:dt=""r8"">0</Current><DateUtc dt:dt=""string"">2014-05-16T22:17:56Z</DateUtc></FrequencyChange></FrequencyChanges></Clock>\n",60.03,1,-585559856,0,,-999999,10,60729,t,45317,106046,5/16/2014,15:17:56,,2,Session2,SessionsList,0,,-999999,11,747869,t,37879,785748,732527,2,1,2,1,,,,,,,,1,1,1,NonCued3,MiniBlocks2,,,785750,,5,1,b,-999999,11,867759,b,375,868134,Green,Congruent,b,White,0,,0,13,863761,,0,0,,,,,,,,,,,,,Pictures\white.bmp,3000,2000,Pictures\black.bmp,,,,,,,5,1,5,,,,StimulusPr,Pictures\GreenRight.bmp,NonCuedStim3,Right
POP_2,16052,1,"<?xml version=""1.0""?>\n<Clock xmlns:dt=""urn:schemas-microsoft-com:datatypes""><Description dt:dt=""string"">E-Prime Primary Realtime Clock</Description><StartTime><Timestamp dt:dt=""int"">0</Timestamp><DateUtc dt:dt=""string"">2014-05-16T22:17:56Z</DateUtc></StartTime><FrequencyChanges><FrequencyChange><Frequency dt:dt=""r8"">2793030000</Frequency><Timestamp dt:dt=""r8"">2.21137872553098E+15</Timestamp><Current dt:dt=""r8"">0</Current><DateUtc dt:dt=""string"">2014-05-16T22:17:56Z</DateUtc></FrequencyChange></FrequencyChanges></Clock>\n",60.03,1,-585559856,0,,-999999,10,60729,t,45317,106046,5/16/2014,15:17:56,,2,Session2,SessionsList,0,,-999999,11,747869,t,37879,785748,732527,2,1,2,1,,,,,,,,1,1,1,NonCued3,MiniBlocks2,,,785750,,6,1,r,-999999,10,875755,r,485,876240,Green,Congruent,r,White,0,,0,9,871757,,0,0,,,,,,,,,,,,,Pictures\white.bmp,3000,2000,Pictures\GreenLeft.bmp,,,,,,,6,1,6,,,,StimulusPr,Pictures\black.bmp,NonCuedStim3,Left
POP_2,16052,1,"<?xml version=""1.0""?>\n<Clock xmlns:dt=""urn:schemas-microsoft-com:datatypes""><Description dt:dt=""string"">E-Prime Primary Realtime Clock</Description><StartTime><Timestamp dt:dt=""int"">0</Timestamp><DateUtc dt:dt=""string"">2014-05-16T22:17:56Z</DateUtc></StartTime><FrequencyChanges><FrequencyChange><Frequency dt:dt=""r8"">2793030000</Frequency><Timestamp dt:dt=""r8"">2.21137872553098E+15</Timestamp><Current dt:dt=""r8"">0</Current><DateUtc dt:dt=""string"">2014-05-16T22:17:56Z</DateUtc></FrequencyChange></FrequencyChanges></Clock>\n",60.03,1,-585559856,0,,-999999,10,60729,t,45317,106046,5/16/2014,15:17:56,,2,Session2,SessionsList,0,,-999999,11,747869,t,37879,785748,732527,2,1,2,1,,,,,,,,1,1,1,NonCued3,MiniBlocks2,,,785750,,7,1,b,-999999,18,886766,b,528,887294,Green,Congruent,b,White,0,,0,5,879753,,0,0,,,,,,,,,,,,,Pictures\white.bmp,6000,16000,Pictures\black.bmp,,,,,,,7,1,7,,,,StimulusPr,Pictures\GreenRight.bmp,NonCuedStim3,Right
POP_2,16052,1,"<?xml version=""1.0""?>\n<Clock xmlns:dt=""urn:schemas-microsoft-com:datatypes""><Description dt:dt=""string"">E-Prime Primary Realtime Clock</Description><StartTime><Timestamp dt:dt=""int"">0</Timestamp><DateUtc dt:dt=""string"">2014-05-16T22:17:56Z</DateUtc></StartTime><FrequencyChanges><FrequencyChange><Frequency dt:dt=""r8"">2793030000</Frequency><Timestamp dt:dt=""r8"">2.21137872553098E+15</Timestamp><Current dt:dt=""r8"">0</Current><DateUtc dt:dt=""string"">2014-05-16T22:17:56Z</DateUtc></FrequencyChange></FrequencyChanges></Clock>\n",60.03,1,-585559856,0,,-999999,10,60729,t,45317,106046,5/16/2014,15:17:56,,2,Session2,SessionsList,0,,-999999,11,747869,t,37879,785748,732527,2,1,2,1,,,,,,,,1,1,1,NonCued3,MiniBlocks2,,,785750,,8,1,r,-999999,7,908755,r,636,909391,Red,Incongruent,r,White,0,,0,9,904757,,0,0,,,,,,,,,,,,,Pictures\white.bmp,3000,2000,Pictures\black.bmp,,,,,,,8,1,8,,,,StimulusPr,Pictures\RedRight.bmp,NonCuedStim3,Right
POP_2,16052,1,"<?xml version=""1.0""?>\n<Clock xmlns:dt=""urn:schemas-microsoft-com:datatypes""><Description dt:dt=""string"">E-Prime Primary Realtime Clock</Description><StartTime><Timestamp dt:dt=""int"">0</Timestamp><DateUtc dt:dt=""string"">2014-05-16T22:17:56Z</DateUtc></StartTime><FrequencyChanges><FrequencyChange><Frequency dt:dt=""r8"">2793030000</Frequency><Timestamp dt:dt=""r8"">2.21137872553098E+15</Timestamp><Current dt:dt=""r8"">0</Current><DateUtc dt:dt=""string"">2014-05-16T22:17:56Z</DateUtc></FrequencyChange></FrequencyChanges></Clock>\n",60.03,1,-585559856,0,,-999999,10,60729,t,45317,106046,5/16/2014,15:17:56,,2,Session2,SessionsList,0,,-999999,11,747869,t,37879,785748,732527,2,1,2,1,,,,,,,,1,1,1,NonCued3,MiniBlocks2,,,785750,,9,1,r,-999999,17,922765,r,381,923146,Green,Congruent,r,White,0,,0,5,912737,,0,0,,,,,,,,,,,,,Pictures\white.bmp,9000,10000,Pictures\GreenLeft.bmp,,,,,,,9,1,9,,,,StimulusPr,Pictures\black.bmp,NonCuedStim3,Left
POP_2,16052,1,"<?xml version=""1.0""?>\n<Clock xmlns:dt=""urn:schemas-microsoft-com:datatypes""><Description dt:dt=""string"">E-Prime Primary Realtime Clock</Description><StartTime><Timestamp dt:dt=""int"">0</Timestamp><DateUtc dt:dt=""string"">2014-05-16T22:17:56Z</DateUtc></StartTime><FrequencyChanges><FrequencyChange><Frequency dt:dt=""r8"">2793030000</Frequency><Timestamp dt:dt=""r8"">2.21137872553098E+15</Timestamp><Current dt:dt=""r8"">0</Current><DateUtc dt:dt=""string"">2014-05-16T22:17:56Z</DateUtc></FrequencyChange></FrequencyChanges></Clock>\n",60.03,1,-585559856,0,,-999999,10,60729,t,45317,106046,5/16/2014,15:17:56,,2,Session2,SessionsList,0,,-999999,11,747869,t,37879,785748,732527,2,1,2,1,,,,,,,,1,1,1,NonCued3,MiniBlocks2,,,785750,,10,1,r,-999999,7,941755,r,611,942366,Green,Congruent,r,White,0,,0,10,934742,,0,0,,,,,,,,,,,,,Pictures\white.bmp,6000,4000,Pictures\GreenLeft.bmp,,,,,,,10,1,10,,,,StimulusPr,Pictures\black.bmp,NonCuedStim3,Left
POP_2,16052,1,"<?xml version=""1.0""?>\n<Clock xmlns:dt=""urn:schemas-microsoft-com:datatypes""><Description dt:dt=""string"">E-Prime Primary Realtime Clock</Description><StartTime><Timestamp dt:dt=""int"">0</Timestamp><DateUtc dt:dt=""string"">2014-05-16T22:17:56Z</DateUtc></StartTime><FrequencyChanges><FrequencyChange><Frequency dt:dt=""r8"">2793030000</Frequency><Timestamp dt:dt=""r8"">2.21137872553098E+15</Timestamp><Current dt:dt=""r8"">0</Current><DateUtc dt:dt=""string"">2014-05-16T22:17:56Z</DateUtc></FrequencyChange></FrequencyChanges></Clock>\n",60.03,1,-585559856,0,,-999999,10,60729,t,45317,106046,5/16/2014,15:17:56,,2,Session2,SessionsList,0,,-999999,11,747869,t,37879,785748,732527,2,1,2,2,,,946386,,,,,2,1,2,Cued3,MiniBlocks2,,,,,1,1,b,-999999,14,960746,b,358,961104,White,Congruent,b,Green,0,,0,17,956765,,0,0,,,,,,,1,1,1,,,,Pictures\green.bmp,3000,2000,Pictures\black.bmp,,,,,,,,,,,,,StimulusPr,Pictures\right.bmp,CuedStim3,Right
POP_2,16052,1,"<?xml version=""1.0""?>\n<Clock xmlns:dt=""urn:schemas-microsoft-com:datatypes""><Description dt:dt=""string"">E-Prime Primary Realtime Clock</Description><StartTime><Timestamp dt:dt=""int"">0</Timestamp><DateUtc dt:dt=""string"">2014-05-16T22:17:56Z</DateUtc></StartTime><FrequencyChanges><FrequencyChange><Frequency dt:dt=""r8"">2793030000</Frequency><Timestamp dt:dt=""r8"">2.21137872553098E+15</Timestamp><Current dt:dt=""r8"">0</Current><DateUtc dt:dt=""string"">2014-05-16T22:17:56Z</DateUtc></FrequencyChange></FrequencyChanges></Clock>\n",60.03,1,-585559856,0,,-999999,10,60729,t,45317,106046,5/16/2014,15:17:56,,2,Session2,SessionsList,0,,-999999,11,747869,t,37879,785748,732527,2,1,2,2,,,946386,,,,,2,1,2,Cued3,MiniBlocks2,,,,,2,1,b,-999999,10,968742,b,470,969212,White,Congruent,b,Green,0,,0,13,964761,,0,0,,,,,,,2,1,2,,,,Pictures\green.bmp,3000,10000,Pictures\black.bmp,,,,,,,,,,,,,StimulusPr,Pictures\right.bmp,CuedStim3,Right
POP_2,16052,1,"<?xml version=""1.0""?>\n<Clock xmlns:dt=""urn:schemas-microsoft-com:datatypes""><Description dt:dt=""string"">E-Prime Primary Realtime Clock</Description><StartTime><Timestamp dt:dt=""int"">0</Timestamp><DateUtc dt:dt=""string"">2014-05-16T22:17:56Z</DateUtc></StartTime><FrequencyChanges><FrequencyChange><Frequency dt:dt=""r8"">2793030000</Frequency><Timestamp dt:dt=""r8"">2.21137872553098E+15</Timestamp><Current dt:dt=""r8"">0</Current><DateUtc dt:dt=""string"">2014-05-16T22:17:56Z</DateUtc></FrequencyChange></FrequencyChanges></Clock>\n",60.03,1,-585559856,0,,-999999,10,60729,t,45317,106046,5/16/2014,15:17:56,,2,Session2,SessionsList,0,,-999999,11,747869,t,37879,785748,732527,2,1,2,2,,,946386,,,,,2,1,2,Cued3,MiniBlocks2,,,,,3,1,r,-999999,16,990764,r,333,991097,White,Congruent,r,Green,0,,0,4,980736,,0,0,,,,,,,3,1,3,,,,Pictures\green.bmp,9000,2000,Pictures\left.bmp,,,,,,,,,,,,,StimulusPr,Pictures\black.bmp,CuedStim3,Left
POP_2,16052,1,"<?xml version=""1.0""?>\n<Clock xmlns:dt=""urn:schemas-microsoft-com:datatypes""><Description dt:dt=""string"">E-Prime Primary Realtime Clock</Description><StartTime><Timestamp dt:dt=""int"">0</Timestamp><DateUtc dt:dt=""string"">2014-05-16T22:17:56Z</DateUtc></StartTime><FrequencyChanges><FrequencyChange><Frequency dt:dt=""r8"">2793030000</Frequency><Timestamp dt:dt=""r8"">2.21137872553098E+15</Timestamp><Current dt:dt=""r8"">0</Current><DateUtc dt:dt=""string"">2014-05-16T22:17:56Z</DateUtc></FrequencyChange></FrequencyChanges></Clock>\n",60.03,1,-585559856,0,,-999999,10,60729,t,45317,106046,5/16/2014,15:17:56,,2,Session2,SessionsList,0,,-999999,11,747869,t,37879,785748,732527,2,1,2,2,,,946386,,,,,2,1,2,Cued3,MiniBlocks2,,,,,4,1,r,-999999,11,999743,r,775,1000518,White,Congruent,r,Green,0,,0,14,994762,,0,0,,,,,,,4,1,4,,,,Pictures\green.bmp,4000,16000,Pictures\left.bmp,,,,,,,,,,,,,StimulusPr,Pictures\black.bmp,CuedStim3,Left
POP_2,16052,1,"<?xml version=""1.0""?>\n<Clock xmlns:dt=""urn:schemas-microsoft-com:datatypes""><Description dt:dt=""string"">E-Prime Primary Realtime Clock</Description><StartTime><Timestamp dt:dt=""int"">0</Timestamp><DateUtc dt:dt=""string"">2014-05-16T22:17:56Z</DateUtc></StartTime><FrequencyChanges><FrequencyChange><Frequency dt:dt=""r8"">2793030000</Frequency><Timestamp dt:dt=""r8"">2.21137872553098E+15</Timestamp><Current dt:dt=""r8"">0</Current><DateUtc dt:dt=""string"">2014-05-16T22:17:56Z</DateUtc></FrequencyChange></FrequencyChanges></Clock>\n",60.03,1,-585559856,0,,-999999,10,60729,t,45317,106046,5/16/2014,15:17:56,,2,Session2,SessionsList,0,,-999999,11,747869,t,37879,785748,732527,2,1,2,2,,,946386,,,,,2,1,2,Cued3,MiniBlocks2,,,,,5,1,r,-999999,17,1021765,r,402,1022167,White,Incongruent,r,Red,0,,0,3,1017751,,0,0,,,,,,,5,1,5,,,,Pictures\red.bmp,3000,4000,Pictures\black.bmp,,,,,,,,,,,,,StimulusPr,Pictures\right.bmp,CuedStim3,Right
POP_2,16052,1,"<?xml version=""1.0""?>\n<Clock xmlns:dt=""urn:schemas-microsoft-com:datatypes""><Description dt:dt=""string"">E-Prime Primary Realtime Clock</Description><StartTime><Timestamp dt:dt=""int"">0</Timestamp><DateUtc dt:dt=""string"">2014-05-16T22:17:56Z</DateUtc></StartTime><FrequencyChanges><FrequencyChange><Frequency dt:dt=""r8"">2793030000</Frequency><Timestamp dt:dt=""r8"">2.21137872553098E+15</Timestamp><Current dt:dt=""r8"">0</Current><DateUtc dt:dt=""string"">2014-05-16T22:17:56Z</DateUtc></FrequencyChange></FrequencyChanges></Clock>\n",60.03,1,-585559856,0,,-999999,10,60729,t,45317,106046,5/16/2014,15:17:56,,2,Session2,SessionsList,0,,-999999,11,747869,t,37879,785748,732527,2,1,2,2,,,946386,,,,,2,1,2,Cued3,MiniBlocks2,,,,,6,1,b,-999999,11,1034759,b,288,1035047,White,Congruent,b,Green,0,,0,14,1027762,,0,0,,,,,,,6,1,6,,,,Pictures\green.bmp,6000,4000,Pictures\black.bmp,,,,,,,,,,,,,StimulusPr,Pictures\right.bmp,CuedStim3,Right
POP_2,16052,1,"<?xml version=""1.0""?>\n<Clock xmlns:dt=""urn:schemas-microsoft-com:datatypes""><Description dt:dt=""string"">E-Prime Primary Realtime Clock</Description><StartTime><Timestamp dt:dt=""int"">0</Timestamp><DateUtc dt:dt=""string"">2014-05-16T22:17:56Z</DateUtc></StartTime><FrequencyChanges><FrequencyChange><Frequency dt:dt=""r8"">2793030000</Frequency><Timestamp dt:dt=""r8"">2.21137872553098E+15</Timestamp><Current dt:dt=""r8"">0</Current><DateUtc dt:dt=""string"">2014-05-16T22:17:56Z</DateUtc></FrequencyChange></FrequencyChanges></Clock>\n",60.03,1,-585559856,0,,-999999,10,60729,t,45317,106046,5/16/2014,15:17:56,,2,Session2,SessionsList,0,,-999999,11,747869,t,37879,785748,732527,2,1,2,2,,,946386,,,,,2,1,2,Cued3,MiniBlocks2,,,,,7,1,r,-999999,5,1045753,r,315,1046068,White,Congruent,r,Green,0,,0,8,1040756,,0,0,,,,,,,7,1,7,,,,Pictures\green.bmp,4000,16000,Pictures\left.bmp,,,,,,,,,,,,,StimulusPr,Pictures\black.bmp,CuedStim3,Left
POP_2,16052,1,"<?xml version=""1.0""?>\n<Clock xmlns:dt=""urn:schemas-microsoft-com:datatypes""><Description dt:dt=""string"">E-Prime Primary Realtime Clock</Description><StartTime><Timestamp dt:dt=""int"">0</Timestamp><DateUtc dt:dt=""string"">2014-05-16T22:17:56Z</DateUtc></StartTime><FrequencyChanges><FrequencyChange><Frequency dt:dt=""r8"">2793030000</Frequency><Timestamp dt:dt=""r8"">2.21137872553098E+15</Timestamp><Current dt:dt=""r8"">0</Current><DateUtc dt:dt=""string"">2014-05-16T22:17:56Z</DateUtc></FrequencyChange></FrequencyChanges></Clock>\n",60.03,1,-585559856,0,,-999999,10,60729,t,45317,106046,5/16/2014,15:17:56,,2,Session2,SessionsList,0,,-999999,11,747869,t,37879,785748,732527,2,1,2,2,,,946386,,,,,2,1,2,Cued3,MiniBlocks2,,,,,8,1,b,-999999,11,1067759,b,676,1068435,White,Incongruent,b,Red,0,,0,12,1063744,,0,0,,,,,,,8,1,8,,,,Pictures\red.bmp,3000,2000,Pictures\left.bmp,,,,,,,,,,,,,StimulusPr,Pictures\black.bmp,CuedStim3,Left
POP_2,16052,1,"<?xml version=""1.0""?>\n<Clock xmlns:dt=""urn:schemas-microsoft-com:datatypes""><Description dt:dt=""string"">E-Prime Primary Realtime Clock</Description><StartTime><Timestamp dt:dt=""int"">0</Timestamp><DateUtc dt:dt=""string"">2014-05-16T22:17:56Z</DateUtc></StartTime><FrequencyChanges><FrequencyChange><Frequency dt:dt=""r8"">2793030000</Frequency><Timestamp dt:dt=""r8"">2.21137872553098E+15</Timestamp><Current dt:dt=""r8"">0</Current><DateUtc dt:dt=""string"">2014-05-16T22:17:56Z</DateUtc></FrequencyChange></FrequencyChanges></Clock>\n",60.03,1,-585559856,0,,-999999,10,60729,t,45317,106046,5/16/2014,15:17:56,,2,Session2,SessionsList,0,,-999999,11,747869,t,37879,785748,732527,2,1,2,2,,,946386,,,,,2,1,2,Cued3,MiniBlocks2,,,,,9,1,r,-999999,7,1075755,r,893,1076648,White,Congruent,r,Green,0,,0,9,1071757,,0,0,,,,,,,9,1,9,,,,Pictures\green.bmp,3000,2000,Pictures\left.bmp,,,,,,,,,,,,,StimulusPr,Pictures\black.bmp,CuedStim3,Left
POP_2,16052,1,"<?xml version=""1.0""?>\n<Clock xmlns:dt=""urn:schemas-microsoft-com:datatypes""><Description dt:dt=""string"">E-Prime Primary Realtime Clock</Description><StartTime><Timestamp dt:dt=""int"">0</Timestamp><DateUtc dt:dt=""string"">2014-05-16T22:17:56Z</DateUtc></StartTime><FrequencyChanges><FrequencyChange><Frequency dt:dt=""r8"">2793030000</Frequency><Timestamp dt:dt=""r8"">2.21137872553098E+15</Timestamp><Current dt:dt=""r8"">0</Current><DateUtc dt:dt=""string"">2014-05-16T22:17:56Z</DateUtc></FrequencyChange></FrequencyChanges></Clock>\n",60.03,1,-585559856,0,,-999999,10,60729,t,45317,106046,5/16/2014,15:17:56,,2,Session2,SessionsList,0,,-999999,11,747869,t,37879,785748,732527,2,1,2,2,,,946386,,,,,2,1,2,Cued3,MiniBlocks2,,,,,10,1,b,-999999,17,1089765,b,302,1090067,White,Congruent,b,Green,0,,0,12,1079753,,0,0,,,,,,,10,1,10,,,,Pictures\green.bmp,9000,10000,Pictures\black.bmp,,,,,,,,,,,,,StimulusPr,Pictures\right.bmp,CuedStim3,Right
POP_2,16052,1,"<?xml version=""1.0""?>\n<Clock xmlns:dt=""urn:schemas-microsoft-com:datatypes""><Description dt:dt=""string"">E-Prime Primary Realtime Clock</Description><StartTime><Timestamp dt:dt=""int"">0</Timestamp><DateUtc dt:dt=""string"">2014-05-16T22:17:56Z</DateUtc></StartTime><FrequencyChanges><FrequencyChange><Frequency dt:dt=""r8"">2793030000</Frequency><Timestamp dt:dt=""r8"">2.21137872553098E+15</Timestamp><Current dt:dt=""r8"">0</Current><DateUtc dt:dt=""string"">2014-05-16T22:17:56Z</DateUtc></FrequencyChange></FrequencyChanges></Clock>\n",60.03,1,-585559856,0,,-999999,10,60729,t,45317,106046,5/16/2014,15:17:56,,2,Session2,SessionsList,0,,-999999,11,747869,t,37879,785748,732527,2,1,2,3,,,,1100093,,,,3,1,3,Cued4,MiniBlocks2,,,,,1,1,b,-999999,10,1116751,b,443,1117194,White,Congruent,b,Green,0,,0,7,1109755,,0,0,,,,,,,,,,1,1,1,Pictures\green.bmp,6000,2000,Pictures\black.bmp,,,,,,,,,,,,,StimulusPr,Pictures\right.bmp,CuedStim4,Right
POP_2,16052,1,"<?xml version=""1.0""?>\n<Clock xmlns:dt=""urn:schemas-microsoft-com:datatypes""><Description dt:dt=""string"">E-Prime Primary Realtime Clock</Description><StartTime><Timestamp dt:dt=""int"">0</Timestamp><DateUtc dt:dt=""string"">2014-05-16T22:17:56Z</DateUtc></StartTime><FrequencyChanges><FrequencyChange><Frequency dt:dt=""r8"">2793030000</Frequency><Timestamp dt:dt=""r8"">2.21137872553098E+15</Timestamp><Current dt:dt=""r8"">0</Current><DateUtc dt:dt=""string"">2014-05-16T22:17:56Z</DateUtc></FrequencyChange></FrequencyChanges></Clock>\n",60.03,1,-585559856,0,,-999999,10,60729,t,45317,106046,5/16/2014,15:17:56,,2,Session2,SessionsList,0,,-999999,11,747869,t,37879,785748,732527,2,1,2,3,,,,1100093,,,,3,1,3,Cued4,MiniBlocks2,,,,,2,1,r,-999999,12,1130744,r,347,1131091,White,Incongruent,r,Red,0,,0,3,1120749,,0,0,,,,,,,,,,2,1,2,Pictures\red.bmp,9000,2000,Pictures\black.bmp,,,,,,,,,,,,,StimulusPr,Pictures\right.bmp,CuedStim4,Right
POP_2,16052,1,"<?xml version=""1.0""?>\n<Clock xmlns:dt=""urn:schemas-microsoft-com:datatypes""><Description dt:dt=""string"">E-Prime Primary Realtime Clock</Description><StartTime><Timestamp dt:dt=""int"">0</Timestamp><DateUtc dt:dt=""string"">2014-05-16T22:17:56Z</DateUtc></StartTime><FrequencyChanges><FrequencyChange><Frequency dt:dt=""r8"">2793030000</Frequency><Timestamp dt:dt=""r8"">2.21137872553098E+15</Timestamp><Current dt:dt=""r8"">0</Current><DateUtc dt:dt=""string"">2014-05-16T22:17:56Z</DateUtc></FrequencyChange></FrequencyChanges></Clock>\n",60.03,1,-585559856,0,,-999999,10,60729,t,45317,106046,5/16/2014,15:17:56,,2,Session2,SessionsList,0,,-999999,11,747869,t,37879,785748,732527,2,1,2,3,,,,1100093,,,,3,1,3,Cued4,MiniBlocks2,,,,,3,1,b,-999999,9,1138757,b,503,1139260,White,Congruent,b,Green,0,,0,11,1134759,,0,0,,,,,,,,,,3,1,3,Pictures\green.bmp,3000,4000,Pictures\black.bmp,,,,,,,,,,,,,StimulusPr,Pictures\right.bmp,CuedStim4,Right
POP_2,16052,1,"<?xml version=""1.0""?>\n<Clock xmlns:dt=""urn:schemas-microsoft-com:datatypes""><Description dt:dt=""string"">E-Prime Primary Realtime Clock</Description><StartTime><Timestamp dt:dt=""int"">0</Timestamp><DateUtc dt:dt=""string"">2014-05-16T22:17:56Z</DateUtc></StartTime><FrequencyChanges><FrequencyChange><Frequency dt:dt=""r8"">2793030000</Frequency><Timestamp dt:dt=""r8"">2.21137872553098E+15</Timestamp><Current dt:dt=""r8"">0</Current><DateUtc dt:dt=""string"">2014-05-16T22:17:56Z</DateUtc></FrequencyChange></FrequencyChanges></Clock>\n",60.03,1,-585559856,0,,-999999,10,60729,t,45317,106046,5/16/2014,15:17:56,,2,Session2,SessionsList,0,,-999999,11,747869,t,37879,785748,732527,2,1,2,3,,,,1100093,,,,3,1,3,Cued4,MiniBlocks2,,,,,4,1,r,-999999,4,1148752,r,428,1149180,White,Congruent,r,Green,0,,0,6,1144754,,0,0,,,,,,,,,,4,1,4,Pictures\green.bmp,3000,4000,Pictures\left.bmp,,,,,,,,,,,,,StimulusPr,Pictures\black.bmp,CuedStim4,Left
POP_2,16052,1,"<?xml version=""1.0""?>\n<Clock xmlns:dt=""urn:schemas-microsoft-com:datatypes""><Description dt:dt=""string"">E-Prime Primary Realtime Clock</Description><StartTime><Timestamp dt:dt=""int"">0</Timestamp><DateUtc dt:dt=""string"">2014-05-16T22:17:56Z</DateUtc></StartTime><FrequencyChanges><FrequencyChange><Frequency dt:dt=""r8"">2793030000</Frequency><Timestamp dt:dt=""r8"">2.21137872553098E+15</Timestamp><Current dt:dt=""r8"">0</Current><DateUtc dt:dt=""string"">2014-05-16T22:17:56Z</DateUtc></FrequencyChange></FrequencyChanges></Clock>\n",60.03,1,-585559856,0,,-999999,10,60729,t,45317,106046,5/16/2014,15:17:56,,2,Session2,SessionsList,0,,-999999,11,747869,t,37879,785748,732527,2,1,2,3,,,,1100093,,,,3,1,3,Cued4,MiniBlocks2,,,,,5,1,b,-999999,15,1159763,b,372,1160135,White,Incongruent,b,Red,0,,0,2,1154750,,0,0,,,,,,,,,,5,1,5,Pictures\red.bmp,4000,16000,Pictures\left.bmp,,,,,,,,,,,,,StimulusPr,Pictures\black.bmp,CuedStim4,Left
POP_2,16052,1,"<?xml version=""1.0""?>\n<Clock xmlns:dt=""urn:schemas-microsoft-com:datatypes""><Description dt:dt=""string"">E-Prime Primary Realtime Clock</Description><StartTime><Timestamp dt:dt=""int"">0</Timestamp><DateUtc dt:dt=""string"">2014-05-16T22:17:56Z</DateUtc></StartTime><FrequencyChanges><FrequencyChange><Frequency dt:dt=""r8"">2793030000</Frequency><Timestamp dt:dt=""r8"">2.21137872553098E+15</Timestamp><Current dt:dt=""r8"">0</Current><DateUtc dt:dt=""string"">2014-05-16T22:17:56Z</DateUtc></FrequencyChange></FrequencyChanges></Clock>\n",60.03,1,-585559856,0,,-999999,10,60729,t,45317,106046,5/16/2014,15:17:56,,2,Session2,SessionsList,0,,-999999,11,747869,t,37879,785748,732527,2,1,2,3,,,,1100093,,,,3,1,3,Cued4,MiniBlocks2,,,,,6,1,b,-999999,4,1181752,b,593,1182345,White,Congruent,b,Green,0,,0,6,1177738,,0,0,,,,,,,,,,6,1,6,Pictures\green.bmp,3000,2000,Pictures\black.bmp,,,,,,,,,,,,,StimulusPr,Pictures\right.bmp,CuedStim4,Right
POP_2,16052,1,"<?xml version=""1.0""?>\n<Clock xmlns:dt=""urn:schemas-microsoft-com:datatypes""><Description dt:dt=""string"">E-Prime Primary Realtime Clock</Description><StartTime><Timestamp dt:dt=""int"">0</Timestamp><DateUtc dt:dt=""string"">2014-05-16T22:17:56Z</DateUtc></StartTime><FrequencyChanges><FrequencyChange><Frequency dt:dt=""r8"">2793030000</Frequency><Timestamp dt:dt=""r8"">2.21137872553098E+15</Timestamp><Current dt:dt=""r8"">0</Current><DateUtc dt:dt=""string"">2014-05-16T22:17:56Z</DateUtc></FrequencyChange></FrequencyChanges></Clock>\n",60.03,1,-585559856,0,,-999999,10,60729,t,45317,106046,5/16/2014,15:17:56,,2,Session2,SessionsList,0,,-999999,11,747869,t,37879,785748,732527,2,1,2,3,,,,1100093,,,,3,1,3,Cued4,MiniBlocks2,,,,,7,1,b,-999999,12,1195745,b,481,1196226,White,Congruent,b,Green,0,,0,2,1185750,,0,0,,,,,,,,,,7,1,7,Pictures\green.bmp,9000,10000,Pictures\black.bmp,,,,,,,,,,,,,StimulusPr,Pictures\right.bmp,CuedStim4,Right
POP_2,16052,1,"<?xml version=""1.0""?>\n<Clock xmlns:dt=""urn:schemas-microsoft-com:datatypes""><Description dt:dt=""string"">E-Prime Primary Realtime Clock</Description><StartTime><Timestamp dt:dt=""int"">0</Timestamp><DateUtc dt:dt=""string"">2014-05-16T22:17:56Z</DateUtc></StartTime><FrequencyChanges><FrequencyChange><Frequency dt:dt=""r8"">2793030000</Frequency><Timestamp dt:dt=""r8"">2.21137872553098E+15</Timestamp><Current dt:dt=""r8"">0</Current><DateUtc dt:dt=""string"">2014-05-16T22:17:56Z</DateUtc></FrequencyChange></FrequencyChanges></Clock>\n",60.03,1,-585559856,0,,-999999,10,60729,t,45317,106046,5/16/2014,15:17:56,,2,Session2,SessionsList,0,,-999999,11,747869,t,37879,785748,732527,2,1,2,3,,,,1100093,,,,3,1,3,Cued4,MiniBlocks2,,,,,8,1,b,-999999,4,1214752,b,388,1215140,White,Incongruent,b,Red,0,,0,8,1207756,,0,0,,,,,,,,,,8,1,8,Pictures\red.bmp,6000,10000,Pictures\left.bmp,,,,,,,,,,,,,StimulusPr,Pictures\black.bmp,CuedStim4,Left
POP_2,16052,1,"<?xml version=""1.0""?>\n<Clock xmlns:dt=""urn:schemas-microsoft-com:datatypes""><Description dt:dt=""string"">E-Prime Primary Realtime Clock</Description><StartTime><Timestamp dt:dt=""int"">0</Timestamp><DateUtc dt:dt=""string"">2014-05-16T22:17:56Z</DateUtc></StartTime><FrequencyChanges><FrequencyChange><Frequency dt:dt=""r8"">2793030000</Frequency><Timestamp dt:dt=""r8"">2.21137872553098E+15</Timestamp><Current dt:dt=""r8"">0</Current><DateUtc dt:dt=""string"">2014-05-16T22:17:56Z</DateUtc></FrequencyChange></FrequencyChanges></Clock>\n",60.03,1,-585559856,0,,-999999,10,60729,t,45317,106046,5/16/2014,15:17:56,,2,Session2,SessionsList,0,,-999999,11,747869,t,37879,785748,732527,2,1,2,3,,,,1100093,,,,3,1,3,Cued4,MiniBlocks2,,,,,9,1,r,-999999,12,1233760,r,533,1234293,White,Congruent,r,Green,0,,0,15,1226763,,0,0,,,,,,,,,,9,1,9,Pictures\green.bmp,6000,16000,Pictures\left.bmp,,,,,,,,,,,,,StimulusPr,Pictures\black.bmp,CuedStim4,Left
POP_2,16052,1,"<?xml version=""1.0""?>\n<Clock xmlns:dt=""urn:schemas-microsoft-com:datatypes""><Description dt:dt=""string"">E-Prime Primary Realtime Clock</Description><StartTime><Timestamp dt:dt=""int"">0</Timestamp><DateUtc dt:dt=""string"">2014-05-16T22:17:56Z</DateUtc></StartTime><FrequencyChanges><FrequencyChange><Frequency dt:dt=""r8"">2793030000</Frequency><Timestamp dt:dt=""r8"">2.21137872553098E+15</Timestamp><Current dt:dt=""r8"">0</Current><DateUtc dt:dt=""string"">2014-05-16T22:17:56Z</DateUtc></FrequencyChange></FrequencyChanges></Clock>\n",60.03,1,-585559856,0,,-999999,10,60729,t,45317,106046,5/16/2014,15:17:56,,2,Session2,SessionsList,0,,-999999,11,747869,t,37879,785748,732527,2,1,2,3,,,,1100093,,,,3,1,3,Cued4,MiniBlocks2,,,,,10,1,r,-999999,17,1256765,r,466,1257231,White,Congruent,r,Green,0,,0,3,1251751,,0,0,,,,,,,,,,10,1,10,Pictures\green.bmp,4000,2000,Pictures\left.bmp,,,,,,,,,,,,,StimulusPr,Pictures\black.bmp,CuedStim4,Left
POP_2,16052,1,"<?xml version=""1.0""?>\n<Clock xmlns:dt=""urn:schemas-microsoft-com:datatypes""><Description dt:dt=""string"">E-Prime Primary Realtime Clock</Description><StartTime><Timestamp dt:dt=""int"">0</Timestamp><DateUtc dt:dt=""string"">2014-05-16T22:17:56Z</DateUtc></StartTime><FrequencyChanges><FrequencyChange><Frequency dt:dt=""r8"">2793030000</Frequency><Timestamp dt:dt=""r8"">2.21137872553098E+15</Timestamp><Current dt:dt=""r8"">0</Current><DateUtc dt:dt=""string"">2014-05-16T22:17:56Z</DateUtc></FrequencyChange></FrequencyChanges></Clock>\n",60.03,1,-585559856,0,,-999999,10,60729,t,45317,106046,5/16/2014,15:17:56,,2,Session2,SessionsList,0,,-999999,11,747869,t,37879,785748,732527,2,1,2,4,,,,,,,,4,1,4,NonCued4,MiniBlocks2,,,,1259247,1,1,r,-999999,8,1273756,r,492,1274248,Green,Congruent,r,White,0,,0,10,1269758,,0,0,,,,,,,,,,,,,Pictures\white.bmp,3000,2000,Pictures\GreenLeft.bmp,,,,,,,,,,1,1,1,StimulusPr,Pictures\black.bmp,NonCuedStim4,Left
POP_2,16052,1,"<?xml version=""1.0""?>\n<Clock xmlns:dt=""urn:schemas-microsoft-com:datatypes""><Description dt:dt=""string"">E-Prime Primary Realtime Clock</Description><StartTime><Timestamp dt:dt=""int"">0</Timestamp><DateUtc dt:dt=""string"">2014-05-16T22:17:56Z</DateUtc></StartTime><FrequencyChanges><FrequencyChange><Frequency dt:dt=""r8"">2793030000</Frequency><Timestamp dt:dt=""r8"">2.21137872553098E+15</Timestamp><Current dt:dt=""r8"">0</Current><DateUtc dt:dt=""string"">2014-05-16T22:17:56Z</DateUtc></FrequencyChange></FrequencyChanges></Clock>\n",60.03,1,-585559856,0,,-999999,10,60729,t,45317,106046,5/16/2014,15:17:56,,2,Session2,SessionsList,0,,-999999,11,747869,t,37879,785748,732527,2,1,2,4,,,,,,,,4,1,4,NonCued4,MiniBlocks2,,,,1259247,2,1,r,-999999,4,1282752,r,394,1283146,Green,Congruent,r,White,0,,0,6,1277754,,0,0,,,,,,,,,,,,,Pictures\white.bmp,4000,2000,Pictures\GreenLeft.bmp,,,,,,,,,,2,1,2,StimulusPr,Pictures\black.bmp,NonCuedStim4,Left
POP_2,16052,1,"<?xml version=""1.0""?>\n<Clock xmlns:dt=""urn:schemas-microsoft-com:datatypes""><Description dt:dt=""string"">E-Prime Primary Realtime Clock</Description><StartTime><Timestamp dt:dt=""int"">0</Timestamp><DateUtc dt:dt=""string"">2014-05-16T22:17:56Z</DateUtc></StartTime><FrequencyChanges><FrequencyChange><Frequency dt:dt=""r8"">2793030000</Frequency><Timestamp dt:dt=""r8"">2.21137872553098E+15</Timestamp><Current dt:dt=""r8"">0</Current><DateUtc dt:dt=""string"">2014-05-16T22:17:56Z</DateUtc></FrequencyChange></FrequencyChanges></Clock>\n",60.03,1,-585559856,0,,-999999,10,60729,t,45317,106046,5/16/2014,15:17:56,,2,Session2,SessionsList,0,,-999999,11,747869,t,37879,785748,732527,2,1,2,4,,,,,,,,4,1,4,NonCued4,MiniBlocks2,,,,1259247,3,1,r,-999999,16,1291764,r,687,1292451,Red,Incongruent,r,White,0,,0,2,1286750,,0,0,,,,,,,,,,,,,Pictures\white.bmp,4000,2000,Pictures\black.bmp,,,,,,,,,,3,1,3,StimulusPr,Pictures\RedRight.bmp,NonCuedStim4,Right
POP_2,16052,1,"<?xml version=""1.0""?>\n<Clock xmlns:dt=""urn:schemas-microsoft-com:datatypes""><Description dt:dt=""string"">E-Prime Primary Realtime Clock</Description><StartTime><Timestamp dt:dt=""int"">0</Timestamp><DateUtc dt:dt=""string"">2014-05-16T22:17:56Z</DateUtc></StartTime><FrequencyChanges><FrequencyChange><Frequency dt:dt=""r8"">2793030000</Frequency><Timestamp dt:dt=""r8"">2.21137872553098E+15</Timestamp><Current dt:dt=""r8"">0</Current><DateUtc dt:dt=""string"">2014-05-16T22:17:56Z</DateUtc></FrequencyChange></FrequencyChanges></Clock>\n",60.03,1,-585559856,0,,-999999,10,60729,t,45317,106046,5/16/2014,15:17:56,,2,Session2,SessionsList,0,,-999999,11,747869,t,37879,785748,732527,2,1,2,4,,,,,,,,4,1,4,NonCued4,MiniBlocks2,,,,1259247,4,1,b,-999999,12,1299760,b,680,1300440,Green,Congruent,b,White,0,,0,14,1295762,,0,0,,,,,,,,,,,,,Pictures\white.bmp,3000,16000,Pictures\black.bmp,,,,,,,,,,4,1,4,StimulusPr,Pictures\GreenRight.bmp,NonCuedStim4,Right
POP_2,16052,1,"<?xml version=""1.0""?>\n<Clock xmlns:dt=""urn:schemas-microsoft-com:datatypes""><Description dt:dt=""string"">E-Prime Primary Realtime Clock</Description><StartTime><Timestamp dt:dt=""int"">0</Timestamp><DateUtc dt:dt=""string"">2014-05-16T22:17:56Z</DateUtc></StartTime><FrequencyChanges><FrequencyChange><Frequency dt:dt=""r8"">2793030000</Frequency><Timestamp dt:dt=""r8"">2.21137872553098E+15</Timestamp><Current dt:dt=""r8"">0</Current><DateUtc dt:dt=""string"">2014-05-16T22:17:56Z</DateUtc></FrequencyChange></FrequencyChanges></Clock>\n",60.03,1,-585559856,0,,-999999,10,60729,t,45317,106046,5/16/2014,15:17:56,,2,Session2,SessionsList,0,,-999999,11,747869,t,37879,785748,732527,2,1,2,4,,,,,,,,4,1,4,NonCued4,MiniBlocks2,,,,1259247,5,1,r,-999999,15,1327763,r,359,1328122,Green,Congruent,r,White,0,,0,2,1317734,,0,0,,,,,,,,,,,,,Pictures\white.bmp,9000,10000,Pictures\GreenLeft.bmp,,,,,,,,,,5,1,5,StimulusPr,Pictures\black.bmp,NonCuedStim4,Left
POP_2,16052,1,"<?xml version=""1.0""?>\n<Clock xmlns:dt=""urn:schemas-microsoft-com:datatypes""><Description dt:dt=""string"">E-Prime Primary Realtime Clock</Description><StartTime><Timestamp dt:dt=""int"">0</Timestamp><DateUtc dt:dt=""string"">2014-05-16T22:17:56Z</DateUtc></StartTime><FrequencyChanges><FrequencyChange><Frequency dt:dt=""r8"">2793030000</Frequency><Timestamp dt:dt=""r8"">2.21137872553098E+15</Timestamp><Current dt:dt=""r8"">0</Current><DateUtc dt:dt=""string"">2014-05-16T22:17:56Z</DateUtc></FrequencyChange></FrequencyChanges></Clock>\n",60.03,1,-585559856,0,,-999999,10,60729,t,45317,106046,5/16/2014,15:17:56,,2,Session2,SessionsList,0,,-999999,11,747869,t,37879,785748,732527,2,1,2,4,,,,,,,,4,1,4,NonCued4,MiniBlocks2,,,,1259247,6,1,b,-999999,7,1343755,b,352,1344107,Green,Congruent,b,White,0,,0,9,1339757,,0,0,,,,,,,,,,,,,Pictures\white.bmp,3000,16000,Pictures\black.bmp,,,,,,,,,,6,1,6,StimulusPr,Pictures\GreenRight.bmp,NonCuedStim4,Right
POP_2,16052,1,"<?xml version=""1.0""?>\n<Clock xmlns:dt=""urn:schemas-microsoft-com:datatypes""><Description dt:dt=""string"">E-Prime Primary Realtime Clock</Description><StartTime><Timestamp dt:dt=""int"">0</Timestamp><DateUtc dt:dt=""string"">2014-05-16T22:17:56Z</DateUtc></StartTime><FrequencyChanges><FrequencyChange><Frequency dt:dt=""r8"">2793030000</Frequency><Timestamp dt:dt=""r8"">2.21137872553098E+15</Timestamp><Current dt:dt=""r8"">0</Current><DateUtc dt:dt=""string"">2014-05-16T22:17:56Z</DateUtc></FrequencyChange></FrequencyChanges></Clock>\n",60.03,1,-585559856,0,,-999999,10,60729,t,45317,106046,5/16/2014,15:17:56,,2,Session2,SessionsList,0,,-999999,11,747869,t,37879,785748,732527,2,1,2,4,,,,,,,,4,1,4,NonCued4,MiniBlocks2,,,,1259247,7,1,b,-999999,12,1365760,b,466,1366226,Red,Incongruent,b,White,0,,0,14,1361762,,0,0,,,,,,,,,,,,,Pictures\white.bmp,3000,16000,Pictures\RedLeft.bmp,,,,,,,,,,7,1,7,StimulusPr,Pictures\black.bmp,NonCuedStim4,Left
POP_2,16052,1,"<?xml version=""1.0""?>\n<Clock xmlns:dt=""urn:schemas-microsoft-com:datatypes""><Description dt:dt=""string"">E-Prime Primary Realtime Clock</Description><StartTime><Timestamp dt:dt=""int"">0</Timestamp><DateUtc dt:dt=""string"">2014-05-16T22:17:56Z</DateUtc></StartTime><FrequencyChanges><FrequencyChange><Frequency dt:dt=""r8"">2793030000</Frequency><Timestamp dt:dt=""r8"">2.21137872553098E+15</Timestamp><Current dt:dt=""r8"">0</Current><DateUtc dt:dt=""string"">2014-05-16T22:17:56Z</DateUtc></FrequencyChange></FrequencyChanges></Clock>\n",60.03,1,-585559856,0,,-999999,10,60729,t,45317,106046,5/16/2014,15:17:56,,2,Session2,SessionsList,0,,-999999,11,747869,t,37879,785748,732527,2,1,2,4,,,,,,,,4,1,4,NonCued4,MiniBlocks2,,,,1259247,8,1,r,-999999,9,1387749,r,545,1388294,Green,Congruent,r,White,0,,0,3,1383751,,0,0,,,,,,,,,,,,,Pictures\white.bmp,3000,2000,Pictures\GreenLeft.bmp,,,,,,,,,,8,1,8,StimulusPr,Pictures\black.bmp,NonCuedStim4,Left
POP_2,16052,1,"<?xml version=""1.0""?>\n<Clock xmlns:dt=""urn:schemas-microsoft-com:datatypes""><Description dt:dt=""string"">E-Prime Primary Realtime Clock</Description><StartTime><Timestamp dt:dt=""int"">0</Timestamp><DateUtc dt:dt=""string"">2014-05-16T22:17:56Z</DateUtc></StartTime><FrequencyChanges><FrequencyChange><Frequency dt:dt=""r8"">2793030000</Frequency><Timestamp dt:dt=""r8"">2.21137872553098E+15</Timestamp><Current dt:dt=""r8"">0</Current><DateUtc dt:dt=""string"">2014-05-16T22:17:56Z</DateUtc></FrequencyChange></FrequencyChanges></Clock>\n",60.03,1,-585559856,0,,-999999,10,60729,t,45317,106046,5/16/2014,15:17:56,,2,Session2,SessionsList,0,,-999999,11,747869,t,37879,785748,732527,2,1,2,4,,,,,,,,4,1,4,NonCued4,MiniBlocks2,,,,1259247,9,1,b,-999999,13,1398761,b,321,1399082,Green,Congruent,b,White,0,,0,16,1391764,,0,0,,,,,,,,,,,,,Pictures\white.bmp,6000,2000,Pictures\black.bmp,,,,,,,,,,9,1,9,StimulusPr,Pictures\GreenRight.bmp,NonCuedStim4,Right
POP_2,16052,1,"<?xml version=""1.0""?>\n<Clock xmlns:dt=""urn:schemas-microsoft-com:datatypes""><Description dt:dt=""string"">E-Prime Primary Realtime Clock</Description><StartTime><Timestamp dt:dt=""int"">0</Timestamp><DateUtc dt:dt=""string"">2014-05-16T22:17:56Z</DateUtc></StartTime><FrequencyChanges><FrequencyChange><Frequency dt:dt=""r8"">2793030000</Frequency><Timestamp dt:dt=""r8"">2.21137872553098E+15</Timestamp><Current dt:dt=""r8"">0</Current><DateUtc dt:dt=""string"">2014-05-16T22:17:56Z</DateUtc></FrequencyChange></FrequencyChanges></Clock>\n",60.03,1,-585559856,0,,-999999,10,60729,t,45317,106046,5/16/2014,15:17:56,,2,Session2,SessionsList,0,,-999999,11,747869,t,37879,785748,732527,2,1,2,4,,,,,,,,4,1,4,NonCued4,MiniBlocks2,,,,1259247,10,1,b,-999999,8,1407756,b,386,1408142,Green,Congruent,b,White,0,,0,11,1402759,,0,0,,,,,,,,,,,,,Pictures\white.bmp,4000,4000,Pictures\black.bmp,,,,,,,,,,10,1,10,StimulusPr,Pictures\GreenRight.bmp,NonCuedStim4,Right
