ExperimentName,Subject,Session,Clock.Information,Display.RefreshRate,Group,RandomSeed,Session1Onset.ACC,Session1Onset.CRESP,Session1Onset.DurationError,Session1Onset.OnsetDelay,Session1Onset.OnsetTime,Session1Onset.RESP,Session1Onset.RT,Session1Onset.RTTime,SessionDate,SessionTime,SessionTimeUtc,Block,Procedure[Block],Running[Block],Session2Onset.ACC,Session2Onset.CRESP,Session2Onset.DurationError,Session2Onset.OnsetDelay,Session2Onset.OnsetTime,Session2Onset.RESP,Session2Onset.RT,Session2Onset.RTTime,SessionBreak.OnsetTime,SessionsList,SessionsList.Cycle,SessionsList.Sample,Trial,CuedPrompt1.OnsetTime,CuedPrompt2.OnsetTime,CuedPrompt3.OnsetTime,CuedPrompt4.OnsetTime,MiniBlocks1,MiniBlocks1.Cycle,MiniBlocks1.Sample,MiniBlocks2,MiniBlocks2.Cycle,MiniBlocks2.Sample,Procedure[Trial],Running[Trial],UncuedPrompt1.OnsetTime,UncuedPrompt2.OnsetTime,UncuedPrompt3.OnsetTime,UncuedPrompt4.OnsetTime,SubTrial,Arrow1.ACC,Arrow1.CRESP,Arrow1.DurationError,Arrow1.OnsetDelay,Arrow1.OnsetTime,Arrow1.RESP,Arrow1.RT,Arrow1.RTTime,ArrowColor,Congruence,CorrectResp,Cue,Cue.ACC,Cue.CRESP,Cue.DurationError,Cue.OnsetDelay,Cue.OnsetTime,Cue.RESP,Cue.RT,Cue.RTTime,CuedStim1,CuedStim1.Cycle,CuedStim1.Sample,CuedStim2,CuedStim2.Cycle,CuedStim2.Sample,CuedStim3,CuedStim3.Cycle,CuedStim3.Sample,CuedStim4,CuedStim4.Cycle,CuedStim4.Sample,CueImage,JitterCue,JitterTrial,LeftImage,NonCuedStim1,NonCuedStim1.Cycle,NonCuedStim1.Sample,NonCuedStim2,NonCuedStim2.Cycle,NonCuedStim2.Sample,NonCuedStim3,NonCuedStim3.Cycle,NonCuedStim3.Sample,NonCuedStim4,NonCuedStim4.Cycle,NonCuedStim4.Sample,Procedure[SubTrial],RightImage,Running[SubTrial],Stimulus
POP_2,27004,1,"<?xml version=""1.0""?>\n<Clock xmlns:dt=""urn:schemas-microsoft-com:datatypes""><Description dt:dt=""string"">E-Prime Primary Realtime Clock</Description><StartTime><Timestamp dt:dt=""int"">0</Timestamp><DateUtc dt:dt=""string"">2014-05-13T22:21:45Z</DateUtc></StartTime><FrequencyChanges><FrequencyChange><Frequency dt:dt=""r8"">2793030000</Frequency><Timestamp dt:dt=""r8"">1.48806436186037E+15</Timestamp><Current dt:dt=""r8"">0</Current><DateUtc dt:dt=""string"">2014-05-13T22:21:45Z</DateUtc></FrequencyChange></FrequencyChanges></Clock>\n",60.036,1,457063633,0,,-999999,9,24170,t,35985,60155,5/13/2014,15:21:45,,1,Session1,SessionsList,,,,,,,,,,1,1,1,1,60169,,,,1,1,1,,,,Cued1,MiniBlocks1,,,,,1,1,r,-999999,3,74145,r,537,74682,White,Congruent,r,Green,0,,0,9,69148,,0,0,1,1,1,,,,,,,,,,Pictures\green.bmp,4000,4000,Pictures\left.bmp,,,,,,,,,,,,,StimulusPr,Pictures\black.bmp,CuedStim1,Left
POP_2,27004,1,"<?xml version=""1.0""?>\n<Clock xmlns:dt=""urn:schemas-microsoft-com:datatypes""><Description dt:dt=""string"">E-Prime Primary Realtime Clock</Description><StartTime><Timestamp dt:dt=""int"">0</Timestamp><DateUtc dt:dt=""string"">2014-05-13T22:21:45Z</DateUtc></StartTime><FrequencyChanges><FrequencyChange><Frequency dt:dt=""r8"">2793030000</Frequency><Timestamp dt:dt=""r8"">1.48806436186037E+15</Timestamp><Current dt:dt=""r8"">0</Current><DateUtc dt:dt=""string"">2014-05-13T22:21:45Z</DateUtc></FrequencyChange></FrequencyChanges></Clock>\n",60.036,1,457063633,0,,-999999,9,24170,t,35985,60155,5/13/2014,15:21:45,,1,Session1,SessionsList,,,,,,,,,,1,1,1,1,60169,,,,1,1,1,,,,Cued1,MiniBlocks1,,,,,2,1,b,-999999,6,87156,b,406,87562,White,Congruent,b,Green,0,,0,4,80159,,0,0,2,1,2,,,,,,,,,,Pictures\green.bmp,6000,2000,Pictures\black.bmp,,,,,,,,,,,,,StimulusPr,Pictures\right.bmp,CuedStim1,Right
POP_2,27004,1,"<?xml version=""1.0""?>\n<Clock xmlns:dt=""urn:schemas-microsoft-com:datatypes""><Description dt:dt=""string"">E-Prime Primary Realtime Clock</Description><StartTime><Timestamp dt:dt=""int"">0</Timestamp><DateUtc dt:dt=""string"">2014-05-13T22:21:45Z</DateUtc></StartTime><FrequencyChanges><FrequencyChange><Frequency dt:dt=""r8"">2793030000</Frequency><Timestamp dt:dt=""r8"">1.48806436186037E+15</Timestamp><Current dt:dt=""r8"">0</Current><DateUtc dt:dt=""string"">2014-05-13T22:21:45Z</DateUtc></FrequencyChange></FrequencyChanges></Clock>\n",60.036,1,457063633,0,,-999999,9,24170,t,35985,60155,5/13/2014,15:21:45,,1,Session1,SessionsList,,,,,,,,,,1,1,1,1,60169,,,,1,1,1,,,,Cued1,MiniBlocks1,,,,,3,1,b,-999999,17,95168,b,456,95624,White,Congruent,b,Green,0,,0,15,91170,,0,0,3,1,3,,,,,,,,,,Pictures\green.bmp,3000,2000,Pictures\black.bmp,,,,,,,,,,,,,StimulusPr,Pictures\right.bmp,CuedStim1,Right
POP_2,27004,1,"<?xml version=""1.0""?>\n<Clock xmlns:dt=""urn:schemas-microsoft-com:datatypes""><Description dt:dt=""string"">E-Prime Primary Realtime Clock</Description><StartTime><Timestamp dt:dt=""int"">0</Timestamp><DateUtc dt:dt=""string"">2014-05-13T22:21:45Z</DateUtc></StartTime><FrequencyChanges><FrequencyChange><Frequency dt:dt=""r8"">2793030000</Frequency><Timestamp dt:dt=""r8"">1.48806436186037E+15</Timestamp><Current dt:dt=""r8"">0</Current><DateUtc dt:dt=""string"">2014-05-13T22:21:45Z</DateUtc></FrequencyChange></FrequencyChanges></Clock>\n",60.036,1,457063633,0,,-999999,9,24170,t,35985,60155,5/13/2014,15:21:45,,1,Session1,SessionsList,,,,,,,,,,1,1,1,1,60169,,,,1,1,1,,,,Cued1,MiniBlocks1,,,,,4,1,b,-999999,9,103164,b,434,103598,White,Incongruent,b,Red,0,,0,11,99166,,0,0,4,1,4,,,,,,,,,,Pictures\red.bmp,3000,16000,Pictures\left.bmp,,,,,,,,,,,,,StimulusPr,Pictures\black.bmp,CuedStim1,Left
POP_2,27004,1,"<?xml version=""1.0""?>\n<Clock xmlns:dt=""urn:schemas-microsoft-com:datatypes""><Description dt:dt=""string"">E-Prime Primary Realtime Clock</Description><StartTime><Timestamp dt:dt=""int"">0</Timestamp><DateUtc dt:dt=""string"">2014-05-13T22:21:45Z</DateUtc></StartTime><FrequencyChanges><FrequencyChange><Frequency dt:dt=""r8"">2793030000</Frequency><Timestamp dt:dt=""r8"">1.48806436186037E+15</Timestamp><Current dt:dt=""r8"">0</Current><DateUtc dt:dt=""string"">2014-05-13T22:21:45Z</DateUtc></FrequencyChange></FrequencyChanges></Clock>\n",60.036,1,457063633,0,,-999999,9,24170,t,35985,60155,5/13/2014,15:21:45,,1,Session1,SessionsList,,,,,,,,,,1,1,1,1,60169,,,,1,1,1,,,,Cued1,MiniBlocks1,,,,,5,1,r,-999999,7,125153,r,465,125618,White,Congruent,r,Green,0,,0,17,121172,,0,0,5,1,5,,,,,,,,,,Pictures\green.bmp,3000,16000,Pictures\left.bmp,,,,,,,,,,,,,StimulusPr,Pictures\black.bmp,CuedStim1,Left
POP_2,27004,1,"<?xml version=""1.0""?>\n<Clock xmlns:dt=""urn:schemas-microsoft-com:datatypes""><Description dt:dt=""string"">E-Prime Primary Realtime Clock</Description><StartTime><Timestamp dt:dt=""int"">0</Timestamp><DateUtc dt:dt=""string"">2014-05-13T22:21:45Z</DateUtc></StartTime><FrequencyChanges><FrequencyChange><Frequency dt:dt=""r8"">2793030000</Frequency><Timestamp dt:dt=""r8"">1.48806436186037E+15</Timestamp><Current dt:dt=""r8"">0</Current><DateUtc dt:dt=""string"">2014-05-13T22:21:45Z</DateUtc></FrequencyChange></FrequencyChanges></Clock>\n",60.036,1,457063633,0,,-999999,9,24170,t,35985,60155,5/13/2014,15:21:45,,1,Session1,SessionsList,,,,,,,,,,1,1,1,1,60169,,,,1,1,1,,,,Cued1,MiniBlocks1,,,,,6,1,r,-999999,18,153173,r,387,153560,White,Congruent,r,Green,0,,0,6,143161,,0,0,6,1,6,,,,,,,,,,Pictures\green.bmp,9000,10000,Pictures\left.bmp,,,,,,,,,,,,,StimulusPr,Pictures\black.bmp,CuedStim1,Left
POP_2,27004,1,"<?xml version=""1.0""?>\n<Clock xmlns:dt=""urn:schemas-microsoft-com:datatypes""><Description dt:dt=""string"">E-Prime Primary Realtime Clock</Description><StartTime><Timestamp dt:dt=""int"">0</Timestamp><DateUtc dt:dt=""string"">2014-05-13T22:21:45Z</DateUtc></StartTime><FrequencyChanges><FrequencyChange><Frequency dt:dt=""r8"">2793030000</Frequency><Timestamp dt:dt=""r8"">1.48806436186037E+15</Timestamp><Current dt:dt=""r8"">0</Current><DateUtc dt:dt=""string"">2014-05-13T22:21:45Z</DateUtc></FrequencyChange></FrequencyChanges></Clock>\n",60.036,1,457063633,0,,-999999,9,24170,t,35985,60155,5/13/2014,15:21:45,,1,Session1,SessionsList,,,,,,,,,,1,1,1,1,60169,,,,1,1,1,,,,Cued1,MiniBlocks1,,,,,7,1,b,-999999,10,169165,b,350,169515,White,Congruent,b,Green,0,,0,12,165150,,0,0,7,1,7,,,,,,,,,,Pictures\green.bmp,3000,16000,Pictures\black.bmp,,,,,,,,,,,,,StimulusPr,Pictures\right.bmp,CuedStim1,Right
POP_2,27004,1,"<?xml version=""1.0""?>\n<Clock xmlns:dt=""urn:schemas-microsoft-com:datatypes""><Description dt:dt=""string"">E-Prime Primary Realtime Clock</Description><StartTime><Timestamp dt:dt=""int"">0</Timestamp><DateUtc dt:dt=""string"">2014-05-13T22:21:45Z</DateUtc></StartTime><FrequencyChanges><FrequencyChange><Frequency dt:dt=""r8"">2793030000</Frequency><Timestamp dt:dt=""r8"">1.48806436186037E+15</Timestamp><Current dt:dt=""r8"">0</Current><DateUtc dt:dt=""string"">2014-05-13T22:21:45Z</DateUtc></FrequencyChange></FrequencyChanges></Clock>\n",60.036,1,457063633,0,,-999999,9,24170,t,35985,60155,5/13/2014,15:21:45,,1,Session1,SessionsList,,,,,,,,,,1,1,1,1,60169,,,,1,1,1,,,,Cued1,MiniBlocks1,,,,,8,1,r,-999999,15,192170,r,409,192579,White,Incongruent,r,Red,0,,0,14,187156,,0,0,8,1,8,,,,,,,,,,Pictures\red.bmp,4000,2000,Pictures\black.bmp,,,,,,,,,,,,,StimulusPr,Pictures\right.bmp,CuedStim1,Right
POP_2,27004,1,"<?xml version=""1.0""?>\n<Clock xmlns:dt=""urn:schemas-microsoft-com:datatypes""><Description dt:dt=""string"">E-Prime Primary Realtime Clock</Description><StartTime><Timestamp dt:dt=""int"">0</Timestamp><DateUtc dt:dt=""string"">2014-05-13T22:21:45Z</DateUtc></StartTime><FrequencyChanges><FrequencyChange><Frequency dt:dt=""r8"">2793030000</Frequency><Timestamp dt:dt=""r8"">1.48806436186037E+15</Timestamp><Current dt:dt=""r8"">0</Current><DateUtc dt:dt=""string"">2014-05-13T22:21:45Z</DateUtc></FrequencyChange></FrequencyChanges></Clock>\n",60.036,1,457063633,0,,-999999,9,24170,t,35985,60155,5/13/2014,15:21:45,,1,Session1,SessionsList,,,,,,,,,,1,1,1,1,60169,,,,1,1,1,,,,Cued1,MiniBlocks1,,,,,9,1,b,-999999,7,201149,b,468,201617,White,Congruent,b,Green,0,,0,13,196168,,0,0,9,1,9,,,,,,,,,,Pictures\green.bmp,4000,2000,Pictures\black.bmp,,,,,,,,,,,,,StimulusPr,Pictures\right.bmp,CuedStim1,Right
POP_2,27004,1,"<?xml version=""1.0""?>\n<Clock xmlns:dt=""urn:schemas-microsoft-com:datatypes""><Description dt:dt=""string"">E-Prime Primary Realtime Clock</Description><StartTime><Timestamp dt:dt=""int"">0</Timestamp><DateUtc dt:dt=""string"">2014-05-13T22:21:45Z</DateUtc></StartTime><FrequencyChanges><FrequencyChange><Frequency dt:dt=""r8"">2793030000</Frequency><Timestamp dt:dt=""r8"">1.48806436186037E+15</Timestamp><Current dt:dt=""r8"">0</Current><DateUtc dt:dt=""string"">2014-05-13T22:21:45Z</DateUtc></FrequencyChange></FrequencyChanges></Clock>\n",60.036,1,457063633,0,,-999999,9,24170,t,35985,60155,5/13/2014,15:21:45,,1,Session1,SessionsList,,,,,,,,,,1,1,1,1,60169,,,,1,1,1,,,,Cued1,MiniBlocks1,,,,,10,1,r,-999999,6,209161,r,366,209527,White,Congruent,r,Green,0,,0,7,205163,,0,0,10,1,10,,,,,,,,,,Pictures\green.bmp,3000,2000,Pictures\left.bmp,,,,,,,,,,,,,StimulusPr,Pictures\black.bmp,CuedStim1,Left
POP_2,27004,1,"<?xml version=""1.0""?>\n<Clock xmlns:dt=""urn:schemas-microsoft-com:datatypes""><Description dt:dt=""string"">E-Prime Primary Realtime Clock</Description><StartTime><Timestamp dt:dt=""int"">0</Timestamp><DateUtc dt:dt=""string"">2014-05-13T22:21:45Z</DateUtc></StartTime><FrequencyChanges><FrequencyChange><Frequency dt:dt=""r8"">2793030000</Frequency><Timestamp dt:dt=""r8"">1.48806436186037E+15</Timestamp><Current dt:dt=""r8"">0</Current><DateUtc dt:dt=""string"">2014-05-13T22:21:45Z</DateUtc></FrequencyChange></FrequencyChanges></Clock>\n",60.036,1,457063633,0,,-999999,9,24170,t,35985,60155,5/13/2014,15:21:45,,1,Session1,SessionsList,,,,,,,,,,1,1,1,2,,,,,2,1,2,,,,NonCued1,MiniBlocks1,211544,,,,1,1,r,-999999,11,226153,r,325,226478,Green,Congruent,r,White,0,,0,17,221172,,0,0,,,,,,,,,,,,,Pictures\white.bmp,4000,2000,Pictures\GreenLeft.bmp,1,1,1,,,,,,,,,,StimulusPr,Pictures\black.bmp,NonCuedStim1,Left
POP_2,27004,1,"<?xml version=""1.0""?>\n<Clock xmlns:dt=""urn:schemas-microsoft-com:datatypes""><Description dt:dt=""string"">E-Prime Primary Realtime Clock</Description><StartTime><Timestamp dt:dt=""int"">0</Timestamp><DateUtc dt:dt=""string"">2014-05-13T22:21:45Z</DateUtc></StartTime><FrequencyChanges><FrequencyChange><Frequency dt:dt=""r8"">2793030000</Frequency><Timestamp dt:dt=""r8"">1.48806436186037E+15</Timestamp><Current dt:dt=""r8"">0</Current><DateUtc dt:dt=""string"">2014-05-13T22:21:45Z</DateUtc></FrequencyChange></FrequencyChanges></Clock>\n",60.036,1,457063633,0,,-999999,9,24170,t,35985,60155,5/13/2014,15:21:45,,1,Session1,SessionsList,,,,,,,,,,1,1,1,2,,,,,2,1,2,,,,NonCued1,MiniBlocks1,211544,,,,2,1,b,-999999,5,237147,b,466,237613,Green,Congruent,b,White,0,,0,13,230168,,0,0,,,,,,,,,,,,,Pictures\white.bmp,6000,16000,Pictures\black.bmp,2,1,2,,,,,,,,,,StimulusPr,Pictures\GreenRight.bmp,NonCuedStim1,Right
POP_2,27004,1,"<?xml version=""1.0""?>\n<Clock xmlns:dt=""urn:schemas-microsoft-com:datatypes""><Description dt:dt=""string"">E-Prime Primary Realtime Clock</Description><StartTime><Timestamp dt:dt=""int"">0</Timestamp><DateUtc dt:dt=""string"">2014-05-13T22:21:45Z</DateUtc></StartTime><FrequencyChanges><FrequencyChange><Frequency dt:dt=""r8"">2793030000</Frequency><Timestamp dt:dt=""r8"">1.48806436186037E+15</Timestamp><Current dt:dt=""r8"">0</Current><DateUtc dt:dt=""string"">2014-05-13T22:21:45Z</DateUtc></FrequencyChange></FrequencyChanges></Clock>\n",60.036,1,457063633,0,,-999999,9,24170,t,35985,60155,5/13/2014,15:21:45,,1,Session1,SessionsList,,,,,,,,,,1,1,1,2,,,,,2,1,2,,,,NonCued1,MiniBlocks1,211544,,,,3,1,r,-999999,11,262152,r,626,262778,Red,Incongruent,r,White,0,,0,12,255155,,0,0,,,,,,,,,,,,,Pictures\white.bmp,6000,10000,Pictures\black.bmp,3,1,3,,,,,,,,,,StimulusPr,Pictures\RedRight.bmp,NonCuedStim1,Right
POP_2,27004,1,"<?xml version=""1.0""?>\n<Clock xmlns:dt=""urn:schemas-microsoft-com:datatypes""><Description dt:dt=""string"">E-Prime Primary Realtime Clock</Description><StartTime><Timestamp dt:dt=""int"">0</Timestamp><DateUtc dt:dt=""string"">2014-05-13T22:21:45Z</DateUtc></StartTime><FrequencyChanges><FrequencyChange><Frequency dt:dt=""r8"">2793030000</Frequency><Timestamp dt:dt=""r8"">1.48806436186037E+15</Timestamp><Current dt:dt=""r8"">0</Current><DateUtc dt:dt=""string"">2014-05-13T22:21:45Z</DateUtc></FrequencyChange></FrequencyChanges></Clock>\n",60.036,1,457063633,0,,-999999,9,24170,t,35985,60155,5/13/2014,15:21:45,,1,Session1,SessionsList,,,,,,,,,,1,1,1,2,,,,,2,1,2,,,,NonCued1,MiniBlocks1,211544,,,,4,1,r,-999999,15,284157,r,452,284609,Green,Congruent,r,White,0,,0,4,274146,,0,0,,,,,,,,,,,,,Pictures\white.bmp,9000,10000,Pictures\GreenLeft.bmp,4,1,4,,,,,,,,,,StimulusPr,Pictures\black.bmp,NonCuedStim1,Left
POP_2,27004,1,"<?xml version=""1.0""?>\n<Clock xmlns:dt=""urn:schemas-microsoft-com:datatypes""><Description dt:dt=""string"">E-Prime Primary Realtime Clock</Description><StartTime><Timestamp dt:dt=""int"">0</Timestamp><DateUtc dt:dt=""string"">2014-05-13T22:21:45Z</DateUtc></StartTime><FrequencyChanges><FrequencyChange><Frequency dt:dt=""r8"">2793030000</Frequency><Timestamp dt:dt=""r8"">1.48806436186037E+15</Timestamp><Current dt:dt=""r8"">0</Current><DateUtc dt:dt=""string"">2014-05-13T22:21:45Z</DateUtc></FrequencyChange></FrequencyChanges></Clock>\n",60.036,1,457063633,0,,-999999,9,24170,t,35985,60155,5/13/2014,15:21:45,,1,Session1,SessionsList,,,,,,,,,,1,1,1,2,,,,,2,1,2,,,,NonCued1,MiniBlocks1,211544,,,,5,1,b,-999999,7,300149,b,352,300501,Green,Congruent,b,White,0,,0,12,296151,,0,0,,,,,,,,,,,,,Pictures\white.bmp,3000,2000,Pictures\black.bmp,5,1,5,,,,,,,,,,StimulusPr,Pictures\GreenRight.bmp,NonCuedStim1,Right
POP_2,27004,1,"<?xml version=""1.0""?>\n<Clock xmlns:dt=""urn:schemas-microsoft-com:datatypes""><Description dt:dt=""string"">E-Prime Primary Realtime Clock</Description><StartTime><Timestamp dt:dt=""int"">0</Timestamp><DateUtc dt:dt=""string"">2014-05-13T22:21:45Z</DateUtc></StartTime><FrequencyChanges><FrequencyChange><Frequency dt:dt=""r8"">2793030000</Frequency><Timestamp dt:dt=""r8"">1.48806436186037E+15</Timestamp><Current dt:dt=""r8"">0</Current><DateUtc dt:dt=""string"">2014-05-13T22:21:45Z</DateUtc></FrequencyChange></FrequencyChanges></Clock>\n",60.036,1,457063633,0,,-999999,9,24170,t,35985,60155,5/13/2014,15:21:45,,1,Session1,SessionsList,,,,,,,,,,1,1,1,2,,,,,2,1,2,,,,NonCued1,MiniBlocks1,211544,,,,6,0,b,-999999,10,309161,r,373,309534,Red,Incongruent,b,White,0,,0,5,304147,,0,0,,,,,,,,,,,,,Pictures\white.bmp,4000,16000,Pictures\RedLeft.bmp,6,1,6,,,,,,,,,,StimulusPr,Pictures\black.bmp,NonCuedStim1,Left
POP_2,27004,1,"<?xml version=""1.0""?>\n<Clock xmlns:dt=""urn:schemas-microsoft-com:datatypes""><Description dt:dt=""string"">E-Prime Primary Realtime Clock</Description><StartTime><Timestamp dt:dt=""int"">0</Timestamp><DateUtc dt:dt=""string"">2014-05-13T22:21:45Z</DateUtc></StartTime><FrequencyChanges><FrequencyChange><Frequency dt:dt=""r8"">2793030000</Frequency><Timestamp dt:dt=""r8"">1.48806436186037E+15</Timestamp><Current dt:dt=""r8"">0</Current><DateUtc dt:dt=""string"">2014-05-13T22:21:45Z</DateUtc></FrequencyChange></FrequencyChanges></Clock>\n",60.036,1,457063633,0,,-999999,9,24170,t,35985,60155,5/13/2014,15:21:45,,1,Session1,SessionsList,,,,,,,,,,1,1,1,2,,,,,2,1,2,,,,NonCued1,MiniBlocks1,211544,,,,7,1,b,-999999,9,331151,b,390,331541,Green,Congruent,b,White,0,,0,14,327169,,0,0,,,,,,,,,,,,,Pictures\white.bmp,3000,4000,Pictures\black.bmp,7,1,7,,,,,,,,,,StimulusPr,Pictures\GreenRight.bmp,NonCuedStim1,Right
POP_2,27004,1,"<?xml version=""1.0""?>\n<Clock xmlns:dt=""urn:schemas-microsoft-com:datatypes""><Description dt:dt=""string"">E-Prime Primary Realtime Clock</Description><StartTime><Timestamp dt:dt=""int"">0</Timestamp><DateUtc dt:dt=""string"">2014-05-13T22:21:45Z</DateUtc></StartTime><FrequencyChanges><FrequencyChange><Frequency dt:dt=""r8"">2793030000</Frequency><Timestamp dt:dt=""r8"">1.48806436186037E+15</Timestamp><Current dt:dt=""r8"">0</Current><DateUtc dt:dt=""string"">2014-05-13T22:21:45Z</DateUtc></FrequencyChange></FrequencyChanges></Clock>\n",60.036,1,457063633,0,,-999999,9,24170,t,35985,60155,5/13/2014,15:21:45,,1,Session1,SessionsList,,,,,,,,,,1,1,1,2,,,,,2,1,2,,,,NonCued1,MiniBlocks1,211544,,,,8,1,b,-999999,7,341162,b,427,341589,Green,Congruent,b,White,0,,0,5,337147,,0,0,,,,,,,,,,,,,Pictures\white.bmp,3000,4000,Pictures\black.bmp,8,1,8,,,,,,,,,,StimulusPr,Pictures\GreenRight.bmp,NonCuedStim1,Right
POP_2,27004,1,"<?xml version=""1.0""?>\n<Clock xmlns:dt=""urn:schemas-microsoft-com:datatypes""><Description dt:dt=""string"">E-Prime Primary Realtime Clock</Description><StartTime><Timestamp dt:dt=""int"">0</Timestamp><DateUtc dt:dt=""string"">2014-05-13T22:21:45Z</DateUtc></StartTime><FrequencyChanges><FrequencyChange><Frequency dt:dt=""r8"">2793030000</Frequency><Timestamp dt:dt=""r8"">1.48806436186037E+15</Timestamp><Current dt:dt=""r8"">0</Current><DateUtc dt:dt=""string"">2014-05-13T22:21:45Z</DateUtc></FrequencyChange></FrequencyChanges></Clock>\n",60.036,1,457063633,0,,-999999,9,24170,t,35985,60155,5/13/2014,15:21:45,,1,Session1,SessionsList,,,,,,,,,,1,1,1,2,,,,,2,1,2,,,,NonCued1,MiniBlocks1,211544,,,,9,1,b,-999999,12,357154,b,480,357634,Red,Incongruent,b,White,0,,0,6,347142,,0,0,,,,,,,,,,,,,Pictures\white.bmp,9000,2000,Pictures\RedLeft.bmp,9,1,9,,,,,,,,,,StimulusPr,Pictures\black.bmp,NonCuedStim1,Left
POP_2,27004,1,"<?xml version=""1.0""?>\n<Clock xmlns:dt=""urn:schemas-microsoft-com:datatypes""><Description dt:dt=""string"">E-Prime Primary Realtime Clock</Description><StartTime><Timestamp dt:dt=""int"">0</Timestamp><DateUtc dt:dt=""string"">2014-05-13T22:21:45Z</DateUtc></StartTime><FrequencyChanges><FrequencyChange><Frequency dt:dt=""r8"">2793030000</Frequency><Timestamp dt:dt=""r8"">1.48806436186037E+15</Timestamp><Current dt:dt=""r8"">0</Current><DateUtc dt:dt=""string"">2014-05-13T22:21:45Z</DateUtc></FrequencyChange></FrequencyChanges></Clock>\n",60.036,1,457063633,0,,-999999,9,24170,t,35985,60155,5/13/2014,15:21:45,,1,Session1,SessionsList,,,,,,,,,,1,1,1,2,,,,,2,1,2,,,,NonCued1,MiniBlocks1,211544,,,,10,1,r,-999999,5,368149,r,588,368737,Green,Congruent,r,White,0,,0,7,361152,,0,0,,,,,,,,,,,,,Pictures\white.bmp,6000,2000,Pictures\GreenLeft.bmp,10,1,10,,,,,,,,,,StimulusPr,Pictures\black.bmp,NonCuedStim1,Left
POP_2,27004,1,"<?xml version=""1.0""?>\n<Clock xmlns:dt=""urn:schemas-microsoft-com:datatypes""><Description dt:dt=""string"">E-Prime Primary Realtime Clock</Description><StartTime><Timestamp dt:dt=""int"">0</Timestamp><DateUtc dt:dt=""string"">2014-05-13T22:21:45Z</DateUtc></StartTime><FrequencyChanges><FrequencyChange><Frequency dt:dt=""r8"">2793030000</Frequency><Timestamp dt:dt=""r8"">1.48806436186037E+15</Timestamp><Current dt:dt=""r8"">0</Current><DateUtc dt:dt=""string"">2014-05-13T22:21:45Z</DateUtc></FrequencyChange></FrequencyChanges></Clock>\n",60.036,1,457063633,0,,-999999,9,24170,t,35985,60155,5/13/2014,15:21:45,,1,Session1,SessionsList,,,,,,,,,,1,1,1,3,,,,,3,1,3,,,,NonCued2,MiniBlocks1,,370764,,,1,1,b,-999999,8,391154,b,342,391496,Green,Congruent,b,White,0,,0,13,381159,,0,0,,,,,,,,,,,,,Pictures\white.bmp,9000,10000,Pictures\black.bmp,,,,1,1,1,,,,,,,StimulusPr,Pictures\GreenRight.bmp,NonCuedStim2,Right
POP_2,27004,1,"<?xml version=""1.0""?>\n<Clock xmlns:dt=""urn:schemas-microsoft-com:datatypes""><Description dt:dt=""string"">E-Prime Primary Realtime Clock</Description><StartTime><Timestamp dt:dt=""int"">0</Timestamp><DateUtc dt:dt=""string"">2014-05-13T22:21:45Z</DateUtc></StartTime><FrequencyChanges><FrequencyChange><Frequency dt:dt=""r8"">2793030000</Frequency><Timestamp dt:dt=""r8"">1.48806436186037E+15</Timestamp><Current dt:dt=""r8"">0</Current><DateUtc dt:dt=""string"">2014-05-13T22:21:45Z</DateUtc></FrequencyChange></FrequencyChanges></Clock>\n",60.036,1,457063633,0,,-999999,9,24170,t,35985,60155,5/13/2014,15:21:45,,1,Session1,SessionsList,,,,,,,,,,1,1,1,3,,,,,3,1,3,,,,NonCued2,MiniBlocks1,,370764,,,2,1,r,-999999,7,407163,r,419,407582,Green,Congruent,r,White,0,,0,10,403165,,0,0,,,,,,,,,,,,,Pictures\white.bmp,3000,2000,Pictures\GreenLeft.bmp,,,,2,1,2,,,,,,,StimulusPr,Pictures\black.bmp,NonCuedStim2,Left
POP_2,27004,1,"<?xml version=""1.0""?>\n<Clock xmlns:dt=""urn:schemas-microsoft-com:datatypes""><Description dt:dt=""string"">E-Prime Primary Realtime Clock</Description><StartTime><Timestamp dt:dt=""int"">0</Timestamp><DateUtc dt:dt=""string"">2014-05-13T22:21:45Z</DateUtc></StartTime><FrequencyChanges><FrequencyChange><Frequency dt:dt=""r8"">2793030000</Frequency><Timestamp dt:dt=""r8"">1.48806436186037E+15</Timestamp><Current dt:dt=""r8"">0</Current><DateUtc dt:dt=""string"">2014-05-13T22:21:45Z</DateUtc></FrequencyChange></FrequencyChanges></Clock>\n",60.036,1,457063633,0,,-999999,9,24170,t,35985,60155,5/13/2014,15:21:45,,1,Session1,SessionsList,,,,,,,,,,1,1,1,3,,,,,3,1,3,,,,NonCued2,MiniBlocks1,,370764,,,3,1,r,-999999,4,415159,r,538,415697,Red,Incongruent,r,White,0,,0,9,411161,,0,0,,,,,,,,,,,,,Pictures\white.bmp,3000,2000,Pictures\black.bmp,,,,3,1,3,,,,,,,StimulusPr,Pictures\RedRight.bmp,NonCuedStim2,Right
POP_2,27004,1,"<?xml version=""1.0""?>\n<Clock xmlns:dt=""urn:schemas-microsoft-com:datatypes""><Description dt:dt=""string"">E-Prime Primary Realtime Clock</Description><StartTime><Timestamp dt:dt=""int"">0</Timestamp><DateUtc dt:dt=""string"">2014-05-13T22:21:45Z</DateUtc></StartTime><FrequencyChanges><FrequencyChange><Frequency dt:dt=""r8"">2793030000</Frequency><Timestamp dt:dt=""r8"">1.48806436186037E+15</Timestamp><Current dt:dt=""r8"">0</Current><DateUtc dt:dt=""string"">2014-05-13T22:21:45Z</DateUtc></FrequencyChange></FrequencyChanges></Clock>\n",60.036,1,457063633,0,,-999999,9,24170,t,35985,60155,5/13/2014,15:21:45,,1,Session1,SessionsList,,,,,,,,,,1,1,1,3,,,,,3,1,3,,,,NonCued2,MiniBlocks1,,370764,,,4,1,r,-999999,12,424154,r,574,424728,Green,Congruent,r,White,0,,0,15,419157,,0,0,,,,,,,,,,,,,Pictures\white.bmp,4000,16000,Pictures\GreenLeft.bmp,,,,4,1,4,,,,,,,StimulusPr,Pictures\black.bmp,NonCuedStim2,Left
POP_2,27004,1,"<?xml version=""1.0""?>\n<Clock xmlns:dt=""urn:schemas-microsoft-com:datatypes""><Description dt:dt=""string"">E-Prime Primary Realtime Clock</Description><StartTime><Timestamp dt:dt=""int"">0</Timestamp><DateUtc dt:dt=""string"">2014-05-13T22:21:45Z</DateUtc></StartTime><FrequencyChanges><FrequencyChange><Frequency dt:dt=""r8"">2793030000</Frequency><Timestamp dt:dt=""r8"">1.48806436186037E+15</Timestamp><Current dt:dt=""r8"">0</Current><DateUtc dt:dt=""string"">2014-05-13T22:21:45Z</DateUtc></FrequencyChange></FrequencyChanges></Clock>\n",60.036,1,457063633,0,,-999999,9,24170,t,35985,60155,5/13/2014,15:21:45,,1,Session1,SessionsList,,,,,,,,,,1,1,1,3,,,,,3,1,3,,,,NonCued2,MiniBlocks1,,370764,,,5,1,r,-999999,16,449158,r,436,449594,Green,Congruent,r,White,0,,0,7,442162,,0,0,,,,,,,,,,,,,Pictures\white.bmp,6000,4000,Pictures\GreenLeft.bmp,,,,5,1,5,,,,,,,StimulusPr,Pictures\black.bmp,NonCuedStim2,Left
POP_2,27004,1,"<?xml version=""1.0""?>\n<Clock xmlns:dt=""urn:schemas-microsoft-com:datatypes""><Description dt:dt=""string"">E-Prime Primary Realtime Clock</Description><StartTime><Timestamp dt:dt=""int"">0</Timestamp><DateUtc dt:dt=""string"">2014-05-13T22:21:45Z</DateUtc></StartTime><FrequencyChanges><FrequencyChange><Frequency dt:dt=""r8"">2793030000</Frequency><Timestamp dt:dt=""r8"">1.48806436186037E+15</Timestamp><Current dt:dt=""r8"">0</Current><DateUtc dt:dt=""string"">2014-05-13T22:21:45Z</DateUtc></FrequencyChange></FrequencyChanges></Clock>\n",60.036,1,457063633,0,,-999999,9,24170,t,35985,60155,5/13/2014,15:21:45,,1,Session1,SessionsList,,,,,,,,,,1,1,1,3,,,,,3,1,3,,,,NonCued2,MiniBlocks1,,370764,,,6,1,b,-999999,6,459153,b,551,459704,Red,Incongruent,b,White,0,,0,13,455155,,0,0,,,,,,,,,,,,,Pictures\white.bmp,3000,4000,Pictures\RedLeft.bmp,,,,6,1,6,,,,,,,StimulusPr,Pictures\black.bmp,NonCuedStim2,Left
POP_2,27004,1,"<?xml version=""1.0""?>\n<Clock xmlns:dt=""urn:schemas-microsoft-com:datatypes""><Description dt:dt=""string"">E-Prime Primary Realtime Clock</Description><StartTime><Timestamp dt:dt=""int"">0</Timestamp><DateUtc dt:dt=""string"">2014-05-13T22:21:45Z</DateUtc></StartTime><FrequencyChanges><FrequencyChange><Frequency dt:dt=""r8"">2793030000</Frequency><Timestamp dt:dt=""r8"">1.48806436186037E+15</Timestamp><Current dt:dt=""r8"">0</Current><DateUtc dt:dt=""string"">2014-05-13T22:21:45Z</DateUtc></FrequencyChange></FrequencyChanges></Clock>\n",60.036,1,457063633,0,,-999999,9,24170,t,35985,60155,5/13/2014,15:21:45,,1,Session1,SessionsList,,,,,,,,,,1,1,1,3,,,,,3,1,3,,,,NonCued2,MiniBlocks1,,370764,,,7,1,b,-999999,8,470164,b,524,470688,Green,Congruent,b,White,0,,0,12,465167,,0,0,,,,,,,,,,,,,Pictures\white.bmp,4000,16000,Pictures\black.bmp,,,,7,1,7,,,,,,,StimulusPr,Pictures\GreenRight.bmp,NonCuedStim2,Right
POP_2,27004,1,"<?xml version=""1.0""?>\n<Clock xmlns:dt=""urn:schemas-microsoft-com:datatypes""><Description dt:dt=""string"">E-Prime Primary Realtime Clock</Description><StartTime><Timestamp dt:dt=""int"">0</Timestamp><DateUtc dt:dt=""string"">2014-05-13T22:21:45Z</DateUtc></StartTime><FrequencyChanges><FrequencyChange><Frequency dt:dt=""r8"">2793030000</Frequency><Timestamp dt:dt=""r8"">1.48806436186037E+15</Timestamp><Current dt:dt=""r8"">0</Current><DateUtc dt:dt=""string"">2014-05-13T22:21:45Z</DateUtc></FrequencyChange></FrequencyChanges></Clock>\n",60.036,1,457063633,0,,-999999,9,24170,t,35985,60155,5/13/2014,15:21:45,,1,Session1,SessionsList,,,,,,,,,,1,1,1,3,,,,,3,1,3,,,,NonCued2,MiniBlocks1,,370764,,,8,1,r,-999999,12,498167,r,399,498566,Green,Congruent,r,White,0,,0,16,488172,,0,0,,,,,,,,,,,,,Pictures\white.bmp,9000,2000,Pictures\GreenLeft.bmp,,,,8,1,8,,,,,,,StimulusPr,Pictures\black.bmp,NonCuedStim2,Left
POP_2,27004,1,"<?xml version=""1.0""?>\n<Clock xmlns:dt=""urn:schemas-microsoft-com:datatypes""><Description dt:dt=""string"">E-Prime Primary Realtime Clock</Description><StartTime><Timestamp dt:dt=""int"">0</Timestamp><DateUtc dt:dt=""string"">2014-05-13T22:21:45Z</DateUtc></StartTime><FrequencyChanges><FrequencyChange><Frequency dt:dt=""r8"">2793030000</Frequency><Timestamp dt:dt=""r8"">1.48806436186037E+15</Timestamp><Current dt:dt=""r8"">0</Current><DateUtc dt:dt=""string"">2014-05-13T22:21:45Z</DateUtc></FrequencyChange></FrequencyChanges></Clock>\n",60.036,1,457063633,0,,-999999,9,24170,t,35985,60155,5/13/2014,15:21:45,,1,Session1,SessionsList,,,,,,,,,,1,1,1,3,,,,,3,1,3,,,,NonCued2,MiniBlocks1,,370764,,,9,1,b,-999999,3,506147,b,356,506503,Green,Congruent,b,White,0,,0,10,502165,,0,0,,,,,,,,,,,,,Pictures\white.bmp,3000,10000,Pictures\black.bmp,,,,9,1,9,,,,,,,StimulusPr,Pictures\GreenRight.bmp,NonCuedStim2,Right
POP_2,27004,1,"<?xml version=""1.0""?>\n<Clock xmlns:dt=""urn:schemas-microsoft-com:datatypes""><Description dt:dt=""string"">E-Prime Primary Realtime Clock</Description><StartTime><Timestamp dt:dt=""int"">0</Timestamp><DateUtc dt:dt=""string"">2014-05-13T22:21:45Z</DateUtc></StartTime><FrequencyChanges><FrequencyChange><Frequency dt:dt=""r8"">2793030000</Frequency><Timestamp dt:dt=""r8"">1.48806436186037E+15</Timestamp><Current dt:dt=""r8"">0</Current><DateUtc dt:dt=""string"">2014-05-13T22:21:45Z</DateUtc></FrequencyChange></FrequencyChanges></Clock>\n",60.036,1,457063633,0,,-999999,9,24170,t,35985,60155,5/13/2014,15:21:45,,1,Session1,SessionsList,,,,,,,,,,1,1,1,3,,,,,3,1,3,,,,NonCued2,MiniBlocks1,,370764,,,10,1,b,-999999,17,522172,b,388,522560,Green,Congruent,b,White,0,,0,2,518157,,0,0,,,,,,,,,,,,,Pictures\white.bmp,3000,2000,Pictures\black.bmp,,,,10,1,10,,,,,,,StimulusPr,Pictures\GreenRight.bmp,NonCuedStim2,Right
POP_2,27004,1,"<?xml version=""1.0""?>\n<Clock xmlns:dt=""urn:schemas-microsoft-com:datatypes""><Description dt:dt=""string"">E-Prime Primary Realtime Clock</Description><StartTime><Timestamp dt:dt=""int"">0</Timestamp><DateUtc dt:dt=""string"">2014-05-13T22:21:45Z</DateUtc></StartTime><FrequencyChanges><FrequencyChange><Frequency dt:dt=""r8"">2793030000</Frequency><Timestamp dt:dt=""r8"">1.48806436186037E+15</Timestamp><Current dt:dt=""r8"">0</Current><DateUtc dt:dt=""string"">2014-05-13T22:21:45Z</DateUtc></FrequencyChange></FrequencyChanges></Clock>\n",60.036,1,457063633,0,,-999999,9,24170,t,35985,60155,5/13/2014,15:21:45,,1,Session1,SessionsList,,,,,,,,,,1,1,1,4,,524587,,,4,1,4,,,,Cued2,MiniBlocks1,,,,,1,1,b,-999999,7,541162,b,697,541859,White,Congruent,b,Green,0,,0,11,534166,,0,0,,,,1,1,1,,,,,,,Pictures\green.bmp,6000,4000,Pictures\black.bmp,,,,,,,,,,,,,StimulusPr,Pictures\right.bmp,CuedStim2,Right
POP_2,27004,1,"<?xml version=""1.0""?>\n<Clock xmlns:dt=""urn:schemas-microsoft-com:datatypes""><Description dt:dt=""string"">E-Prime Primary Realtime Clock</Description><StartTime><Timestamp dt:dt=""int"">0</Timestamp><DateUtc dt:dt=""string"">2014-05-13T22:21:45Z</DateUtc></StartTime><FrequencyChanges><FrequencyChange><Frequency dt:dt=""r8"">2793030000</Frequency><Timestamp dt:dt=""r8"">1.48806436186037E+15</Timestamp><Current dt:dt=""r8"">0</Current><DateUtc dt:dt=""string"">2014-05-13T22:21:45Z</DateUtc></FrequencyChange></FrequencyChanges></Clock>\n",60.036,1,457063633,0,,-999999,9,24170,t,35985,60155,5/13/2014,15:21:45,,1,Session1,SessionsList,,,,,,,,,,1,1,1,4,,524587,,,4,1,4,,,,Cued2,MiniBlocks1,,,,,2,1,b,-999999,15,557171,b,398,557569,White,Congruent,b,Green,0,,0,4,547159,,0,0,,,,2,1,2,,,,,,,Pictures\green.bmp,9000,10000,Pictures\black.bmp,,,,,,,,,,,,,StimulusPr,Pictures\right.bmp,CuedStim2,Right
POP_2,27004,1,"<?xml version=""1.0""?>\n<Clock xmlns:dt=""urn:schemas-microsoft-com:datatypes""><Description dt:dt=""string"">E-Prime Primary Realtime Clock</Description><StartTime><Timestamp dt:dt=""int"">0</Timestamp><DateUtc dt:dt=""string"">2014-05-13T22:21:45Z</DateUtc></StartTime><FrequencyChanges><FrequencyChange><Frequency dt:dt=""r8"">2793030000</Frequency><Timestamp dt:dt=""r8"">1.48806436186037E+15</Timestamp><Current dt:dt=""r8"">0</Current><DateUtc dt:dt=""string"">2014-05-13T22:21:45Z</DateUtc></FrequencyChange></FrequencyChanges></Clock>\n",60.036,1,457063633,0,,-999999,9,24170,t,35985,60155,5/13/2014,15:21:45,,1,Session1,SessionsList,,,,,,,,,,1,1,1,4,,524587,,,4,1,4,,,,Cued2,MiniBlocks1,,,,,3,1,r,-999999,4,573146,r,495,573641,White,Incongruent,r,Red,0,,0,6,569148,,0,0,,,,3,1,3,,,,,,,Pictures\red.bmp,3000,2000,Pictures\black.bmp,,,,,,,,,,,,,StimulusPr,Pictures\right.bmp,CuedStim2,Right
POP_2,27004,1,"<?xml version=""1.0""?>\n<Clock xmlns:dt=""urn:schemas-microsoft-com:datatypes""><Description dt:dt=""string"">E-Prime Primary Realtime Clock</Description><StartTime><Timestamp dt:dt=""int"">0</Timestamp><DateUtc dt:dt=""string"">2014-05-13T22:21:45Z</DateUtc></StartTime><FrequencyChanges><FrequencyChange><Frequency dt:dt=""r8"">2793030000</Frequency><Timestamp dt:dt=""r8"">1.48806436186037E+15</Timestamp><Current dt:dt=""r8"">0</Current><DateUtc dt:dt=""string"">2014-05-13T22:21:45Z</DateUtc></FrequencyChange></FrequencyChanges></Clock>\n",60.036,1,457063633,0,,-999999,9,24170,t,35985,60155,5/13/2014,15:21:45,,1,Session1,SessionsList,,,,,,,,,,1,1,1,4,,524587,,,4,1,4,,,,Cued2,MiniBlocks1,,,,,4,1,r,-999999,3,584158,r,459,584617,White,Congruent,r,Green,0,,0,6,577161,,0,0,,,,4,1,4,,,,,,,Pictures\green.bmp,6000,16000,Pictures\left.bmp,,,,,,,,,,,,,StimulusPr,Pictures\black.bmp,CuedStim2,Left
POP_2,27004,1,"<?xml version=""1.0""?>\n<Clock xmlns:dt=""urn:schemas-microsoft-com:datatypes""><Description dt:dt=""string"">E-Prime Primary Realtime Clock</Description><StartTime><Timestamp dt:dt=""int"">0</Timestamp><DateUtc dt:dt=""string"">2014-05-13T22:21:45Z</DateUtc></StartTime><FrequencyChanges><FrequencyChange><Frequency dt:dt=""r8"">2793030000</Frequency><Timestamp dt:dt=""r8"">1.48806436186037E+15</Timestamp><Current dt:dt=""r8"">0</Current><DateUtc dt:dt=""string"">2014-05-13T22:21:45Z</DateUtc></FrequencyChange></FrequencyChanges></Clock>\n",60.036,1,457063633,0,,-999999,9,24170,t,35985,60155,5/13/2014,15:21:45,,1,Session1,SessionsList,,,,,,,,,,1,1,1,4,,524587,,,4,1,4,,,,Cued2,MiniBlocks1,,,,,5,1,b,-999999,8,606163,b,445,606608,White,Congruent,b,Green,0,,0,3,602149,,0,0,,,,5,1,5,,,,,,,Pictures\green.bmp,3000,2000,Pictures\black.bmp,,,,,,,,,,,,,StimulusPr,Pictures\right.bmp,CuedStim2,Right
POP_2,27004,1,"<?xml version=""1.0""?>\n<Clock xmlns:dt=""urn:schemas-microsoft-com:datatypes""><Description dt:dt=""string"">E-Prime Primary Realtime Clock</Description><StartTime><Timestamp dt:dt=""int"">0</Timestamp><DateUtc dt:dt=""string"">2014-05-13T22:21:45Z</DateUtc></StartTime><FrequencyChanges><FrequencyChange><Frequency dt:dt=""r8"">2793030000</Frequency><Timestamp dt:dt=""r8"">1.48806436186037E+15</Timestamp><Current dt:dt=""r8"">0</Current><DateUtc dt:dt=""string"">2014-05-13T22:21:45Z</DateUtc></FrequencyChange></FrequencyChanges></Clock>\n",60.036,1,457063633,0,,-999999,9,24170,t,35985,60155,5/13/2014,15:21:45,,1,Session1,SessionsList,,,,,,,,,,1,1,1,4,,524587,,,4,1,4,,,,Cued2,MiniBlocks1,,,,,6,1,r,-999999,4,614159,r,421,614580,White,Congruent,r,Green,0,,0,3,610145,,0,0,,,,6,1,6,,,,,,,Pictures\green.bmp,3000,2000,Pictures\left.bmp,,,,,,,,,,,,,StimulusPr,Pictures\black.bmp,CuedStim2,Left
POP_2,27004,1,"<?xml version=""1.0""?>\n<Clock xmlns:dt=""urn:schemas-microsoft-com:datatypes""><Description dt:dt=""string"">E-Prime Primary Realtime Clock</Description><StartTime><Timestamp dt:dt=""int"">0</Timestamp><DateUtc dt:dt=""string"">2014-05-13T22:21:45Z</DateUtc></StartTime><FrequencyChanges><FrequencyChange><Frequency dt:dt=""r8"">2793030000</Frequency><Timestamp dt:dt=""r8"">1.48806436186037E+15</Timestamp><Current dt:dt=""r8"">0</Current><DateUtc dt:dt=""string"">2014-05-13T22:21:45Z</DateUtc></FrequencyChange></FrequencyChanges></Clock>\n",60.036,1,457063633,0,,-999999,9,24170,t,35985,60155,5/13/2014,15:21:45,,1,Session1,SessionsList,,,,,,,,,,1,1,1,4,,524587,,,4,1,4,,,,Cued2,MiniBlocks1,,,,,7,1,b,-999999,15,625170,b,431,625601,White,Incongruent,b,Red,0,,0,17,618157,,0,0,,,,7,1,7,,,,,,,Pictures\red.bmp,6000,4000,Pictures\left.bmp,,,,,,,,,,,,,StimulusPr,Pictures\black.bmp,CuedStim2,Left
POP_2,27004,1,"<?xml version=""1.0""?>\n<Clock xmlns:dt=""urn:schemas-microsoft-com:datatypes""><Description dt:dt=""string"">E-Prime Primary Realtime Clock</Description><StartTime><Timestamp dt:dt=""int"">0</Timestamp><DateUtc dt:dt=""string"">2014-05-13T22:21:45Z</DateUtc></StartTime><FrequencyChanges><FrequencyChange><Frequency dt:dt=""r8"">2793030000</Frequency><Timestamp dt:dt=""r8"">1.48806436186037E+15</Timestamp><Current dt:dt=""r8"">0</Current><DateUtc dt:dt=""string"">2014-05-13T22:21:45Z</DateUtc></FrequencyChange></FrequencyChanges></Clock>\n",60.036,1,457063633,0,,-999999,9,24170,t,35985,60155,5/13/2014,15:21:45,,1,Session1,SessionsList,,,,,,,,,,1,1,1,4,,524587,,,4,1,4,,,,Cued2,MiniBlocks1,,,,,8,1,b,-999999,6,636148,b,410,636558,White,Congruent,b,Green,0,,0,9,631151,,0,0,,,,8,1,8,,,,,,,Pictures\green.bmp,4000,4000,Pictures\black.bmp,,,,,,,,,,,,,StimulusPr,Pictures\right.bmp,CuedStim2,Right
POP_2,27004,1,"<?xml version=""1.0""?>\n<Clock xmlns:dt=""urn:schemas-microsoft-com:datatypes""><Description dt:dt=""string"">E-Prime Primary Realtime Clock</Description><StartTime><Timestamp dt:dt=""int"">0</Timestamp><DateUtc dt:dt=""string"">2014-05-13T22:21:45Z</DateUtc></StartTime><FrequencyChanges><FrequencyChange><Frequency dt:dt=""r8"">2793030000</Frequency><Timestamp dt:dt=""r8"">1.48806436186037E+15</Timestamp><Current dt:dt=""r8"">0</Current><DateUtc dt:dt=""string"">2014-05-13T22:21:45Z</DateUtc></FrequencyChange></FrequencyChanges></Clock>\n",60.036,1,457063633,0,,-999999,9,24170,t,35985,60155,5/13/2014,15:21:45,,1,Session1,SessionsList,,,,,,,,,,1,1,1,4,,524587,,,4,1,4,,,,Cued2,MiniBlocks1,,,,,9,1,b,-999999,18,652157,b,420,652577,White,Incongruent,b,Red,0,,0,7,642162,,0,0,,,,9,1,9,,,,,,,Pictures\red.bmp,9000,10000,Pictures\left.bmp,,,,,,,,,,,,,StimulusPr,Pictures\black.bmp,CuedStim2,Left
POP_2,27004,1,"<?xml version=""1.0""?>\n<Clock xmlns:dt=""urn:schemas-microsoft-com:datatypes""><Description dt:dt=""string"">E-Prime Primary Realtime Clock</Description><StartTime><Timestamp dt:dt=""int"">0</Timestamp><DateUtc dt:dt=""string"">2014-05-13T22:21:45Z</DateUtc></StartTime><FrequencyChanges><FrequencyChange><Frequency dt:dt=""r8"">2793030000</Frequency><Timestamp dt:dt=""r8"">1.48806436186037E+15</Timestamp><Current dt:dt=""r8"">0</Current><DateUtc dt:dt=""string"">2014-05-13T22:21:45Z</DateUtc></FrequencyChange></FrequencyChanges></Clock>\n",60.036,1,457063633,0,,-999999,9,24170,t,35985,60155,5/13/2014,15:21:45,,1,Session1,SessionsList,,,,,,,,,,1,1,1,4,,524587,,,4,1,4,,,,Cued2,MiniBlocks1,,,,,10,1,r,-999999,8,674163,r,485,674648,White,Congruent,r,Green,0,,0,12,664168,,0,0,,,,10,1,10,,,,,,,Pictures\green.bmp,9000,10000,Pictures\left.bmp,,,,,,,,,,,,,StimulusPr,Pictures\black.bmp,CuedStim2,Left
POP_2,27004,1,"<?xml version=""1.0""?>\n<Clock xmlns:dt=""urn:schemas-microsoft-com:datatypes""><Description dt:dt=""string"">E-Prime Primary Realtime Clock</Description><StartTime><Timestamp dt:dt=""int"">0</Timestamp><DateUtc dt:dt=""string"">2014-05-13T22:21:45Z</DateUtc></StartTime><FrequencyChanges><FrequencyChange><Frequency dt:dt=""r8"">2793030000</Frequency><Timestamp dt:dt=""r8"">1.48806436186037E+15</Timestamp><Current dt:dt=""r8"">0</Current><DateUtc dt:dt=""string"">2014-05-13T22:21:45Z</DateUtc></FrequencyChange></FrequencyChanges></Clock>\n",60.036,1,457063633,0,,-999999,9,24170,t,35985,60155,5/13/2014,15:21:45,,2,Session2,SessionsList,0,,-999999,11,697184,t,34864,732048,684674,2,1,2,1,,,,,,,,1,1,1,NonCued3,MiniBlocks2,,,732050,,1,1,b,-999999,9,752057,b,349,752406,Green,Congruent,b,White,0,,0,14,742062,,0,0,,,,,,,,,,,,,Pictures\white.bmp,9000,10000,Pictures\black.bmp,,,,,,,1,1,1,,,,StimulusPr,Pictures\GreenRight.bmp,NonCuedStim3,Right
POP_2,27004,1,"<?xml version=""1.0""?>\n<Clock xmlns:dt=""urn:schemas-microsoft-com:datatypes""><Description dt:dt=""string"">E-Prime Primary Realtime Clock</Description><StartTime><Timestamp dt:dt=""int"">0</Timestamp><DateUtc dt:dt=""string"">2014-05-13T22:21:45Z</DateUtc></StartTime><FrequencyChanges><FrequencyChange><Frequency dt:dt=""r8"">2793030000</Frequency><Timestamp dt:dt=""r8"">1.48806436186037E+15</Timestamp><Current dt:dt=""r8"">0</Current><DateUtc dt:dt=""string"">2014-05-13T22:21:45Z</DateUtc></FrequencyChange></FrequencyChanges></Clock>\n",60.036,1,457063633,0,,-999999,9,24170,t,35985,60155,5/13/2014,15:21:45,,2,Session2,SessionsList,0,,-999999,11,697184,t,34864,732048,684674,2,1,2,1,,,,,,,,1,1,1,NonCued3,MiniBlocks2,,,732050,,2,0,r,-999999,15,774063,b,422,774485,Red,Incongruent,r,White,0,,0,3,764051,,0,0,,,,,,,,,,,,,Pictures\white.bmp,9000,10000,Pictures\black.bmp,,,,,,,2,1,2,,,,StimulusPr,Pictures\RedRight.bmp,NonCuedStim3,Right
POP_2,27004,1,"<?xml version=""1.0""?>\n<Clock xmlns:dt=""urn:schemas-microsoft-com:datatypes""><Description dt:dt=""string"">E-Prime Primary Realtime Clock</Description><StartTime><Timestamp dt:dt=""int"">0</Timestamp><DateUtc dt:dt=""string"">2014-05-13T22:21:45Z</DateUtc></StartTime><FrequencyChanges><FrequencyChange><Frequency dt:dt=""r8"">2793030000</Frequency><Timestamp dt:dt=""r8"">1.48806436186037E+15</Timestamp><Current dt:dt=""r8"">0</Current><DateUtc dt:dt=""string"">2014-05-13T22:21:45Z</DateUtc></FrequencyChange></FrequencyChanges></Clock>\n",60.036,1,457063633,0,,-999999,9,24170,t,35985,60155,5/13/2014,15:21:45,,2,Session2,SessionsList,0,,-999999,11,697184,t,34864,732048,684674,2,1,2,1,,,,,,,,1,1,1,NonCued3,MiniBlocks2,,,732050,,3,1,r,-999999,6,791054,r,485,791539,Green,Congruent,r,White,0,,0,9,786057,,0,0,,,,,,,,,,,,,Pictures\white.bmp,4000,4000,Pictures\GreenLeft.bmp,,,,,,,3,1,3,,,,StimulusPr,Pictures\black.bmp,NonCuedStim3,Left
POP_2,27004,1,"<?xml version=""1.0""?>\n<Clock xmlns:dt=""urn:schemas-microsoft-com:datatypes""><Description dt:dt=""string"">E-Prime Primary Realtime Clock</Description><StartTime><Timestamp dt:dt=""int"">0</Timestamp><DateUtc dt:dt=""string"">2014-05-13T22:21:45Z</DateUtc></StartTime><FrequencyChanges><FrequencyChange><Frequency dt:dt=""r8"">2793030000</Frequency><Timestamp dt:dt=""r8"">1.48806436186037E+15</Timestamp><Current dt:dt=""r8"">0</Current><DateUtc dt:dt=""string"">2014-05-13T22:21:45Z</DateUtc></FrequencyChange></FrequencyChanges></Clock>\n",60.036,1,457063633,0,,-999999,9,24170,t,35985,60155,5/13/2014,15:21:45,,2,Session2,SessionsList,0,,-999999,11,697184,t,34864,732048,684674,2,1,2,1,,,,,,,,1,1,1,NonCued3,MiniBlocks2,,,732050,,4,1,b,-999999,16,804064,b,491,804555,Red,Incongruent,b,White,0,,0,3,797051,,0,0,,,,,,,,,,,,,Pictures\white.bmp,6000,4000,Pictures\RedLeft.bmp,,,,,,,4,1,4,,,,StimulusPr,Pictures\black.bmp,NonCuedStim3,Left
POP_2,27004,1,"<?xml version=""1.0""?>\n<Clock xmlns:dt=""urn:schemas-microsoft-com:datatypes""><Description dt:dt=""string"">E-Prime Primary Realtime Clock</Description><StartTime><Timestamp dt:dt=""int"">0</Timestamp><DateUtc dt:dt=""string"">2014-05-13T22:21:45Z</DateUtc></StartTime><FrequencyChanges><FrequencyChange><Frequency dt:dt=""r8"">2793030000</Frequency><Timestamp dt:dt=""r8"">1.48806436186037E+15</Timestamp><Current dt:dt=""r8"">0</Current><DateUtc dt:dt=""string"">2014-05-13T22:21:45Z</DateUtc></FrequencyChange></FrequencyChanges></Clock>\n",60.036,1,457063633,0,,-999999,9,24170,t,35985,60155,5/13/2014,15:21:45,,2,Session2,SessionsList,0,,-999999,11,697184,t,34864,732048,684674,2,1,2,1,,,,,,,,1,1,1,NonCued3,MiniBlocks2,,,732050,,5,1,b,-999999,11,814059,b,520,814579,Green,Congruent,b,White,0,,0,13,810061,,0,0,,,,,,,,,,,,,Pictures\white.bmp,3000,2000,Pictures\black.bmp,,,,,,,5,1,5,,,,StimulusPr,Pictures\GreenRight.bmp,NonCuedStim3,Right
POP_2,27004,1,"<?xml version=""1.0""?>\n<Clock xmlns:dt=""urn:schemas-microsoft-com:datatypes""><Description dt:dt=""string"">E-Prime Primary Realtime Clock</Description><StartTime><Timestamp dt:dt=""int"">0</Timestamp><DateUtc dt:dt=""string"">2014-05-13T22:21:45Z</DateUtc></StartTime><FrequencyChanges><FrequencyChange><Frequency dt:dt=""r8"">2793030000</Frequency><Timestamp dt:dt=""r8"">1.48806436186037E+15</Timestamp><Current dt:dt=""r8"">0</Current><DateUtc dt:dt=""string"">2014-05-13T22:21:45Z</DateUtc></FrequencyChange></FrequencyChanges></Clock>\n",60.036,1,457063633,0,,-999999,9,24170,t,35985,60155,5/13/2014,15:21:45,,2,Session2,SessionsList,0,,-999999,11,697184,t,34864,732048,684674,2,1,2,1,,,,,,,,1,1,1,NonCued3,MiniBlocks2,,,732050,,6,1,r,-999999,7,822055,r,422,822477,Green,Congruent,r,White,0,,0,9,818057,,0,0,,,,,,,,,,,,,Pictures\white.bmp,3000,2000,Pictures\GreenLeft.bmp,,,,,,,6,1,6,,,,StimulusPr,Pictures\black.bmp,NonCuedStim3,Left
POP_2,27004,1,"<?xml version=""1.0""?>\n<Clock xmlns:dt=""urn:schemas-microsoft-com:datatypes""><Description dt:dt=""string"">E-Prime Primary Realtime Clock</Description><StartTime><Timestamp dt:dt=""int"">0</Timestamp><DateUtc dt:dt=""string"">2014-05-13T22:21:45Z</DateUtc></StartTime><FrequencyChanges><FrequencyChange><Frequency dt:dt=""r8"">2793030000</Frequency><Timestamp dt:dt=""r8"">1.48806436186037E+15</Timestamp><Current dt:dt=""r8"">0</Current><DateUtc dt:dt=""string"">2014-05-13T22:21:45Z</DateUtc></FrequencyChange></FrequencyChanges></Clock>\n",60.036,1,457063633,0,,-999999,9,24170,t,35985,60155,5/13/2014,15:21:45,,2,Session2,SessionsList,0,,-999999,11,697184,t,34864,732048,684674,2,1,2,1,,,,,,,,1,1,1,NonCued3,MiniBlocks2,,,732050,,7,1,b,-999999,19,833067,b,396,833463,Green,Congruent,b,White,0,,0,5,826053,,0,0,,,,,,,,,,,,,Pictures\white.bmp,6000,16000,Pictures\black.bmp,,,,,,,7,1,7,,,,StimulusPr,Pictures\GreenRight.bmp,NonCuedStim3,Right
POP_2,27004,1,"<?xml version=""1.0""?>\n<Clock xmlns:dt=""urn:schemas-microsoft-com:datatypes""><Description dt:dt=""string"">E-Prime Primary Realtime Clock</Description><StartTime><Timestamp dt:dt=""int"">0</Timestamp><DateUtc dt:dt=""string"">2014-05-13T22:21:45Z</DateUtc></StartTime><FrequencyChanges><FrequencyChange><Frequency dt:dt=""r8"">2793030000</Frequency><Timestamp dt:dt=""r8"">1.48806436186037E+15</Timestamp><Current dt:dt=""r8"">0</Current><DateUtc dt:dt=""string"">2014-05-13T22:21:45Z</DateUtc></FrequencyChange></FrequencyChanges></Clock>\n",60.036,1,457063633,0,,-999999,9,24170,t,35985,60155,5/13/2014,15:21:45,,2,Session2,SessionsList,0,,-999999,11,697184,t,34864,732048,684674,2,1,2,1,,,,,,,,1,1,1,NonCued3,MiniBlocks2,,,732050,,8,1,r,-999999,8,855056,r,485,855541,Red,Incongruent,r,White,0,,0,10,851058,,0,0,,,,,,,,,,,,,Pictures\white.bmp,3000,2000,Pictures\black.bmp,,,,,,,8,1,8,,,,StimulusPr,Pictures\RedRight.bmp,NonCuedStim3,Right
POP_2,27004,1,"<?xml version=""1.0""?>\n<Clock xmlns:dt=""urn:schemas-microsoft-com:datatypes""><Description dt:dt=""string"">E-Prime Primary Realtime Clock</Description><StartTime><Timestamp dt:dt=""int"">0</Timestamp><DateUtc dt:dt=""string"">2014-05-13T22:21:45Z</DateUtc></StartTime><FrequencyChanges><FrequencyChange><Frequency dt:dt=""r8"">2793030000</Frequency><Timestamp dt:dt=""r8"">1.48806436186037E+15</Timestamp><Current dt:dt=""r8"">0</Current><DateUtc dt:dt=""string"">2014-05-13T22:21:45Z</DateUtc></FrequencyChange></FrequencyChanges></Clock>\n",60.036,1,457063633,0,,-999999,9,24170,t,35985,60155,5/13/2014,15:21:45,,2,Session2,SessionsList,0,,-999999,11,697184,t,34864,732048,684674,2,1,2,1,,,,,,,,1,1,1,NonCued3,MiniBlocks2,,,732050,,9,1,r,-999999,17,869065,r,375,869440,Green,Congruent,r,White,0,,0,10,859054,,0,0,,,,,,,,,,,,,Pictures\white.bmp,9000,10000,Pictures\GreenLeft.bmp,,,,,,,9,1,9,,,,StimulusPr,Pictures\black.bmp,NonCuedStim3,Left
POP_2,27004,1,"<?xml version=""1.0""?>\n<Clock xmlns:dt=""urn:schemas-microsoft-com:datatypes""><Description dt:dt=""string"">E-Prime Primary Realtime Clock</Description><StartTime><Timestamp dt:dt=""int"">0</Timestamp><DateUtc dt:dt=""string"">2014-05-13T22:21:45Z</DateUtc></StartTime><FrequencyChanges><FrequencyChange><Frequency dt:dt=""r8"">2793030000</Frequency><Timestamp dt:dt=""r8"">1.48806436186037E+15</Timestamp><Current dt:dt=""r8"">0</Current><DateUtc dt:dt=""string"">2014-05-13T22:21:45Z</DateUtc></FrequencyChange></FrequencyChanges></Clock>\n",60.036,1,457063633,0,,-999999,9,24170,t,35985,60155,5/13/2014,15:21:45,,2,Session2,SessionsList,0,,-999999,11,697184,t,34864,732048,684674,2,1,2,1,,,,,,,,1,1,1,NonCued3,MiniBlocks2,,,732050,,10,1,r,-999999,8,888056,r,418,888474,Green,Congruent,r,White,0,,0,11,881059,,0,0,,,,,,,,,,,,,Pictures\white.bmp,6000,4000,Pictures\GreenLeft.bmp,,,,,,,10,1,10,,,,StimulusPr,Pictures\black.bmp,NonCuedStim3,Left
POP_2,27004,1,"<?xml version=""1.0""?>\n<Clock xmlns:dt=""urn:schemas-microsoft-com:datatypes""><Description dt:dt=""string"">E-Prime Primary Realtime Clock</Description><StartTime><Timestamp dt:dt=""int"">0</Timestamp><DateUtc dt:dt=""string"">2014-05-13T22:21:45Z</DateUtc></StartTime><FrequencyChanges><FrequencyChange><Frequency dt:dt=""r8"">2793030000</Frequency><Timestamp dt:dt=""r8"">1.48806436186037E+15</Timestamp><Current dt:dt=""r8"">0</Current><DateUtc dt:dt=""string"">2014-05-13T22:21:45Z</DateUtc></FrequencyChange></FrequencyChanges></Clock>\n",60.036,1,457063633,0,,-999999,9,24170,t,35985,60155,5/13/2014,15:21:45,,2,Session2,SessionsList,0,,-999999,11,697184,t,34864,732048,684674,2,1,2,2,,,892503,,,,,2,1,2,Cued3,MiniBlocks2,,,,,1,1,b,-999999,15,906063,b,416,906479,White,Congruent,b,Green,0,,0,17,902065,,0,0,,,,,,,1,1,1,,,,Pictures\green.bmp,3000,2000,Pictures\black.bmp,,,,,,,,,,,,,StimulusPr,Pictures\right.bmp,CuedStim3,Right
POP_2,27004,1,"<?xml version=""1.0""?>\n<Clock xmlns:dt=""urn:schemas-microsoft-com:datatypes""><Description dt:dt=""string"">E-Prime Primary Realtime Clock</Description><StartTime><Timestamp dt:dt=""int"">0</Timestamp><DateUtc dt:dt=""string"">2014-05-13T22:21:45Z</DateUtc></StartTime><FrequencyChanges><FrequencyChange><Frequency dt:dt=""r8"">2793030000</Frequency><Timestamp dt:dt=""r8"">1.48806436186037E+15</Timestamp><Current dt:dt=""r8"">0</Current><DateUtc dt:dt=""string"">2014-05-13T22:21:45Z</DateUtc></FrequencyChange></FrequencyChanges></Clock>\n",60.036,1,457063633,0,,-999999,9,24170,t,35985,60155,5/13/2014,15:21:45,,2,Session2,SessionsList,0,,-999999,11,697184,t,34864,732048,684674,2,1,2,2,,,892503,,,,,2,1,2,Cued3,MiniBlocks2,,,,,2,1,b,-999999,11,914059,b,623,914682,White,Congruent,b,Green,0,,0,13,910061,,0,0,,,,,,,2,1,2,,,,Pictures\green.bmp,3000,10000,Pictures\black.bmp,,,,,,,,,,,,,StimulusPr,Pictures\right.bmp,CuedStim3,Right
POP_2,27004,1,"<?xml version=""1.0""?>\n<Clock xmlns:dt=""urn:schemas-microsoft-com:datatypes""><Description dt:dt=""string"">E-Prime Primary Realtime Clock</Description><StartTime><Timestamp dt:dt=""int"">0</Timestamp><DateUtc dt:dt=""string"">2014-05-13T22:21:45Z</DateUtc></StartTime><FrequencyChanges><FrequencyChange><Frequency dt:dt=""r8"">2793030000</Frequency><Timestamp dt:dt=""r8"">1.48806436186037E+15</Timestamp><Current dt:dt=""r8"">0</Current><DateUtc dt:dt=""string"">2014-05-13T22:21:45Z</DateUtc></FrequencyChange></FrequencyChanges></Clock>\n",60.036,1,457063633,0,,-999999,9,24170,t,35985,60155,5/13/2014,15:21:45,,2,Session2,SessionsList,0,,-999999,11,697184,t,34864,732048,684674,2,1,2,2,,,892503,,,,,2,1,2,Cued3,MiniBlocks2,,,,,3,1,r,-999999,17,936065,r,290,936355,White,Congruent,r,Green,0,,0,5,926053,,0,0,,,,,,,3,1,3,,,,Pictures\green.bmp,9000,2000,Pictures\left.bmp,,,,,,,,,,,,,StimulusPr,Pictures\black.bmp,CuedStim3,Left
POP_2,27004,1,"<?xml version=""1.0""?>\n<Clock xmlns:dt=""urn:schemas-microsoft-com:datatypes""><Description dt:dt=""string"">E-Prime Primary Realtime Clock</Description><StartTime><Timestamp dt:dt=""int"">0</Timestamp><DateUtc dt:dt=""string"">2014-05-13T22:21:45Z</DateUtc></StartTime><FrequencyChanges><FrequencyChange><Frequency dt:dt=""r8"">2793030000</Frequency><Timestamp dt:dt=""r8"">1.48806436186037E+15</Timestamp><Current dt:dt=""r8"">0</Current><DateUtc dt:dt=""string"">2014-05-13T22:21:45Z</DateUtc></FrequencyChange></FrequencyChanges></Clock>\n",60.036,1,457063633,0,,-999999,9,24170,t,35985,60155,5/13/2014,15:21:45,,2,Session2,SessionsList,0,,-999999,11,697184,t,34864,732048,684674,2,1,2,2,,,892503,,,,,2,1,2,Cued3,MiniBlocks2,,,,,4,1,r,-999999,13,945061,r,322,945383,White,Congruent,r,Green,0,,0,15,940063,,0,0,,,,,,,4,1,4,,,,Pictures\green.bmp,4000,16000,Pictures\left.bmp,,,,,,,,,,,,,StimulusPr,Pictures\black.bmp,CuedStim3,Left
POP_2,27004,1,"<?xml version=""1.0""?>\n<Clock xmlns:dt=""urn:schemas-microsoft-com:datatypes""><Description dt:dt=""string"">E-Prime Primary Realtime Clock</Description><StartTime><Timestamp dt:dt=""int"">0</Timestamp><DateUtc dt:dt=""string"">2014-05-13T22:21:45Z</DateUtc></StartTime><FrequencyChanges><FrequencyChange><Frequency dt:dt=""r8"">2793030000</Frequency><Timestamp dt:dt=""r8"">1.48806436186037E+15</Timestamp><Current dt:dt=""r8"">0</Current><DateUtc dt:dt=""string"">2014-05-13T22:21:45Z</DateUtc></FrequencyChange></FrequencyChanges></Clock>\n",60.036,1,457063633,0,,-999999,9,24170,t,35985,60155,5/13/2014,15:21:45,,2,Session2,SessionsList,0,,-999999,11,697184,t,34864,732048,684674,2,1,2,2,,,892503,,,,,2,1,2,Cued3,MiniBlocks2,,,,,5,1,r,-999999,18,967066,r,455,967521,White,Incongruent,r,Red,0,,0,4,963052,,0,0,,,,,,,5,1,5,,,,Pictures\red.bmp,3000,4000,Pictures\black.bmp,,,,,,,,,,,,,StimulusPr,Pictures\right.bmp,CuedStim3,Right
POP_2,27004,1,"<?xml version=""1.0""?>\n<Clock xmlns:dt=""urn:schemas-microsoft-com:datatypes""><Description dt:dt=""string"">E-Prime Primary Realtime Clock</Description><StartTime><Timestamp dt:dt=""int"">0</Timestamp><DateUtc dt:dt=""string"">2014-05-13T22:21:45Z</DateUtc></StartTime><FrequencyChanges><FrequencyChange><Frequency dt:dt=""r8"">2793030000</Frequency><Timestamp dt:dt=""r8"">1.48806436186037E+15</Timestamp><Current dt:dt=""r8"">0</Current><DateUtc dt:dt=""string"">2014-05-13T22:21:45Z</DateUtc></FrequencyChange></FrequencyChanges></Clock>\n",60.036,1,457063633,0,,-999999,9,24170,t,35985,60155,5/13/2014,15:21:45,,2,Session2,SessionsList,0,,-999999,11,697184,t,34864,732048,684674,2,1,2,2,,,892503,,,,,2,1,2,Cued3,MiniBlocks2,,,,,6,1,b,-999999,12,980060,b,454,980514,White,Congruent,b,Green,0,,0,15,973063,,0,0,,,,,,,6,1,6,,,,Pictures\green.bmp,6000,4000,Pictures\black.bmp,,,,,,,,,,,,,StimulusPr,Pictures\right.bmp,CuedStim3,Right
POP_2,27004,1,"<?xml version=""1.0""?>\n<Clock xmlns:dt=""urn:schemas-microsoft-com:datatypes""><Description dt:dt=""string"">E-Prime Primary Realtime Clock</Description><StartTime><Timestamp dt:dt=""int"">0</Timestamp><DateUtc dt:dt=""string"">2014-05-13T22:21:45Z</DateUtc></StartTime><FrequencyChanges><FrequencyChange><Frequency dt:dt=""r8"">2793030000</Frequency><Timestamp dt:dt=""r8"">1.48806436186037E+15</Timestamp><Current dt:dt=""r8"">0</Current><DateUtc dt:dt=""string"">2014-05-13T22:21:45Z</DateUtc></FrequencyChange></FrequencyChanges></Clock>\n",60.036,1,457063633,0,,-999999,9,24170,t,35985,60155,5/13/2014,15:21:45,,2,Session2,SessionsList,0,,-999999,11,697184,t,34864,732048,684674,2,1,2,2,,,892503,,,,,2,1,2,Cued3,MiniBlocks2,,,,,7,1,r,-999999,6,991054,r,319,991373,White,Congruent,r,Green,0,,0,13,986057,,0,0,,,,,,,7,1,7,,,,Pictures\green.bmp,4000,16000,Pictures\left.bmp,,,,,,,,,,,,,StimulusPr,Pictures\black.bmp,CuedStim3,Left
POP_2,27004,1,"<?xml version=""1.0""?>\n<Clock xmlns:dt=""urn:schemas-microsoft-com:datatypes""><Description dt:dt=""string"">E-Prime Primary Realtime Clock</Description><StartTime><Timestamp dt:dt=""int"">0</Timestamp><DateUtc dt:dt=""string"">2014-05-13T22:21:45Z</DateUtc></StartTime><FrequencyChanges><FrequencyChange><Frequency dt:dt=""r8"">2793030000</Frequency><Timestamp dt:dt=""r8"">1.48806436186037E+15</Timestamp><Current dt:dt=""r8"">0</Current><DateUtc dt:dt=""string"">2014-05-13T22:21:45Z</DateUtc></FrequencyChange></FrequencyChanges></Clock>\n",60.036,1,457063633,0,,-999999,9,24170,t,35985,60155,5/13/2014,15:21:45,,2,Session2,SessionsList,0,,-999999,11,697184,t,34864,732048,684674,2,1,2,2,,,892503,,,,,2,1,2,Cued3,MiniBlocks2,,,,,8,1,b,-999999,12,1013060,b,372,1013432,White,Incongruent,b,Red,0,,0,14,1009062,,0,0,,,,,,,8,1,8,,,,Pictures\red.bmp,3000,2000,Pictures\left.bmp,,,,,,,,,,,,,StimulusPr,Pictures\black.bmp,CuedStim3,Left
POP_2,27004,1,"<?xml version=""1.0""?>\n<Clock xmlns:dt=""urn:schemas-microsoft-com:datatypes""><Description dt:dt=""string"">E-Prime Primary Realtime Clock</Description><StartTime><Timestamp dt:dt=""int"">0</Timestamp><DateUtc dt:dt=""string"">2014-05-13T22:21:45Z</DateUtc></StartTime><FrequencyChanges><FrequencyChange><Frequency dt:dt=""r8"">2793030000</Frequency><Timestamp dt:dt=""r8"">1.48806436186037E+15</Timestamp><Current dt:dt=""r8"">0</Current><DateUtc dt:dt=""string"">2014-05-13T22:21:45Z</DateUtc></FrequencyChange></FrequencyChanges></Clock>\n",60.036,1,457063633,0,,-999999,9,24170,t,35985,60155,5/13/2014,15:21:45,,2,Session2,SessionsList,0,,-999999,11,697184,t,34864,732048,684674,2,1,2,2,,,892503,,,,,2,1,2,Cued3,MiniBlocks2,,,,,9,1,r,-999999,8,1021056,r,410,1021466,White,Congruent,r,Green,0,,0,10,1017058,,0,0,,,,,,,9,1,9,,,,Pictures\green.bmp,3000,2000,Pictures\left.bmp,,,,,,,,,,,,,StimulusPr,Pictures\black.bmp,CuedStim3,Left
POP_2,27004,1,"<?xml version=""1.0""?>\n<Clock xmlns:dt=""urn:schemas-microsoft-com:datatypes""><Description dt:dt=""string"">E-Prime Primary Realtime Clock</Description><StartTime><Timestamp dt:dt=""int"">0</Timestamp><DateUtc dt:dt=""string"">2014-05-13T22:21:45Z</DateUtc></StartTime><FrequencyChanges><FrequencyChange><Frequency dt:dt=""r8"">2793030000</Frequency><Timestamp dt:dt=""r8"">1.48806436186037E+15</Timestamp><Current dt:dt=""r8"">0</Current><DateUtc dt:dt=""string"">2014-05-13T22:21:45Z</DateUtc></FrequencyChange></FrequencyChanges></Clock>\n",60.036,1,457063633,0,,-999999,9,24170,t,35985,60155,5/13/2014,15:21:45,,2,Session2,SessionsList,0,,-999999,11,697184,t,34864,732048,684674,2,1,2,2,,,892503,,,,,2,1,2,Cued3,MiniBlocks2,,,,,10,1,b,-999999,18,1035066,b,483,1035549,White,Congruent,b,Green,0,,0,6,1025054,,0,0,,,,,,,10,1,10,,,,Pictures\green.bmp,9000,10000,Pictures\black.bmp,,,,,,,,,,,,,StimulusPr,Pictures\right.bmp,CuedStim3,Right
POP_2,27004,1,"<?xml version=""1.0""?>\n<Clock xmlns:dt=""urn:schemas-microsoft-com:datatypes""><Description dt:dt=""string"">E-Prime Primary Realtime Clock</Description><StartTime><Timestamp dt:dt=""int"">0</Timestamp><DateUtc dt:dt=""string"">2014-05-13T22:21:45Z</DateUtc></StartTime><FrequencyChanges><FrequencyChange><Frequency dt:dt=""r8"">2793030000</Frequency><Timestamp dt:dt=""r8"">1.48806436186037E+15</Timestamp><Current dt:dt=""r8"">0</Current><DateUtc dt:dt=""string"">2014-05-13T22:21:45Z</DateUtc></FrequencyChange></FrequencyChanges></Clock>\n",60.036,1,457063633,0,,-999999,9,24170,t,35985,60155,5/13/2014,15:21:45,,2,Session2,SessionsList,0,,-999999,11,697184,t,34864,732048,684674,2,1,2,3,,,,1045577,,,,3,1,3,Cued4,MiniBlocks2,,,,,1,1,b,-999999,4,1063052,b,325,1063377,White,Congruent,b,Green,0,,0,7,1056055,,0,0,,,,,,,,,,1,1,1,Pictures\green.bmp,6000,2000,Pictures\black.bmp,,,,,,,,,,,,,StimulusPr,Pictures\right.bmp,CuedStim4,Right
POP_2,27004,1,"<?xml version=""1.0""?>\n<Clock xmlns:dt=""urn:schemas-microsoft-com:datatypes""><Description dt:dt=""string"">E-Prime Primary Realtime Clock</Description><StartTime><Timestamp dt:dt=""int"">0</Timestamp><DateUtc dt:dt=""string"">2014-05-13T22:21:45Z</DateUtc></StartTime><FrequencyChanges><FrequencyChange><Frequency dt:dt=""r8"">2793030000</Frequency><Timestamp dt:dt=""r8"">1.48806436186037E+15</Timestamp><Current dt:dt=""r8"">0</Current><DateUtc dt:dt=""string"">2014-05-13T22:21:45Z</DateUtc></FrequencyChange></FrequencyChanges></Clock>\n",60.036,1,457063633,0,,-999999,9,24170,t,35985,60155,5/13/2014,15:21:45,,2,Session2,SessionsList,0,,-999999,11,697184,t,34864,732048,684674,2,1,2,3,,,,1045577,,,,3,1,3,Cued4,MiniBlocks2,,,,,2,1,r,-999999,13,1077061,r,364,1077425,White,Incongruent,r,Red,0,,0,2,1067050,,0,0,,,,,,,,,,2,1,2,Pictures\red.bmp,9000,2000,Pictures\black.bmp,,,,,,,,,,,,,StimulusPr,Pictures\right.bmp,CuedStim4,Right
POP_2,27004,1,"<?xml version=""1.0""?>\n<Clock xmlns:dt=""urn:schemas-microsoft-com:datatypes""><Description dt:dt=""string"">E-Prime Primary Realtime Clock</Description><StartTime><Timestamp dt:dt=""int"">0</Timestamp><DateUtc dt:dt=""string"">2014-05-13T22:21:45Z</DateUtc></StartTime><FrequencyChanges><FrequencyChange><Frequency dt:dt=""r8"">2793030000</Frequency><Timestamp dt:dt=""r8"">1.48806436186037E+15</Timestamp><Current dt:dt=""r8"">0</Current><DateUtc dt:dt=""string"">2014-05-13T22:21:45Z</DateUtc></FrequencyChange></FrequencyChanges></Clock>\n",60.036,1,457063633,0,,-999999,9,24170,t,35985,60155,5/13/2014,15:21:45,,2,Session2,SessionsList,0,,-999999,11,697184,t,34864,732048,684674,2,1,2,3,,,,1045577,,,,3,1,3,Cued4,MiniBlocks2,,,,,3,1,b,-999999,9,1085057,b,489,1085546,White,Congruent,b,Green,0,,0,11,1081059,,0,0,,,,,,,,,,3,1,3,Pictures\green.bmp,3000,4000,Pictures\black.bmp,,,,,,,,,,,,,StimulusPr,Pictures\right.bmp,CuedStim4,Right
POP_2,27004,1,"<?xml version=""1.0""?>\n<Clock xmlns:dt=""urn:schemas-microsoft-com:datatypes""><Description dt:dt=""string"">E-Prime Primary Realtime Clock</Description><StartTime><Timestamp dt:dt=""int"">0</Timestamp><DateUtc dt:dt=""string"">2014-05-13T22:21:45Z</DateUtc></StartTime><FrequencyChanges><FrequencyChange><Frequency dt:dt=""r8"">2793030000</Frequency><Timestamp dt:dt=""r8"">1.48806436186037E+15</Timestamp><Current dt:dt=""r8"">0</Current><DateUtc dt:dt=""string"">2014-05-13T22:21:45Z</DateUtc></FrequencyChange></FrequencyChanges></Clock>\n",60.036,1,457063633,0,,-999999,9,24170,t,35985,60155,5/13/2014,15:21:45,,2,Session2,SessionsList,0,,-999999,11,697184,t,34864,732048,684674,2,1,2,3,,,,1045577,,,,3,1,3,Cued4,MiniBlocks2,,,,,4,1,r,-999999,4,1095052,r,343,1095395,White,Congruent,r,Green,0,,0,6,1091054,,0,0,,,,,,,,,,4,1,4,Pictures\green.bmp,3000,4000,Pictures\left.bmp,,,,,,,,,,,,,StimulusPr,Pictures\black.bmp,CuedStim4,Left
POP_2,27004,1,"<?xml version=""1.0""?>\n<Clock xmlns:dt=""urn:schemas-microsoft-com:datatypes""><Description dt:dt=""string"">E-Prime Primary Realtime Clock</Description><StartTime><Timestamp dt:dt=""int"">0</Timestamp><DateUtc dt:dt=""string"">2014-05-13T22:21:45Z</DateUtc></StartTime><FrequencyChanges><FrequencyChange><Frequency dt:dt=""r8"">2793030000</Frequency><Timestamp dt:dt=""r8"">1.48806436186037E+15</Timestamp><Current dt:dt=""r8"">0</Current><DateUtc dt:dt=""string"">2014-05-13T22:21:45Z</DateUtc></FrequencyChange></FrequencyChanges></Clock>\n",60.036,1,457063633,0,,-999999,9,24170,t,35985,60155,5/13/2014,15:21:45,,2,Session2,SessionsList,0,,-999999,11,697184,t,34864,732048,684674,2,1,2,3,,,,1045577,,,,3,1,3,Cued4,MiniBlocks2,,,,,5,1,b,-999999,16,1106064,b,702,1106766,White,Incongruent,b,Red,0,,0,2,1101050,,0,0,,,,,,,,,,5,1,5,Pictures\red.bmp,4000,16000,Pictures\left.bmp,,,,,,,,,,,,,StimulusPr,Pictures\black.bmp,CuedStim4,Left
POP_2,27004,1,"<?xml version=""1.0""?>\n<Clock xmlns:dt=""urn:schemas-microsoft-com:datatypes""><Description dt:dt=""string"">E-Prime Primary Realtime Clock</Description><StartTime><Timestamp dt:dt=""int"">0</Timestamp><DateUtc dt:dt=""string"">2014-05-13T22:21:45Z</DateUtc></StartTime><FrequencyChanges><FrequencyChange><Frequency dt:dt=""r8"">2793030000</Frequency><Timestamp dt:dt=""r8"">1.48806436186037E+15</Timestamp><Current dt:dt=""r8"">0</Current><DateUtc dt:dt=""string"">2014-05-13T22:21:45Z</DateUtc></FrequencyChange></FrequencyChanges></Clock>\n",60.036,1,457063633,0,,-999999,9,24170,t,35985,60155,5/13/2014,15:21:45,,2,Session2,SessionsList,0,,-999999,11,697184,t,34864,732048,684674,2,1,2,3,,,,1045577,,,,3,1,3,Cued4,MiniBlocks2,,,,,6,1,b,-999999,5,1128053,b,620,1128673,White,Congruent,b,Green,0,,0,7,1124055,,0,0,,,,,,,,,,6,1,6,Pictures\green.bmp,3000,2000,Pictures\black.bmp,,,,,,,,,,,,,StimulusPr,Pictures\right.bmp,CuedStim4,Right
POP_2,27004,1,"<?xml version=""1.0""?>\n<Clock xmlns:dt=""urn:schemas-microsoft-com:datatypes""><Description dt:dt=""string"">E-Prime Primary Realtime Clock</Description><StartTime><Timestamp dt:dt=""int"">0</Timestamp><DateUtc dt:dt=""string"">2014-05-13T22:21:45Z</DateUtc></StartTime><FrequencyChanges><FrequencyChange><Frequency dt:dt=""r8"">2793030000</Frequency><Timestamp dt:dt=""r8"">1.48806436186037E+15</Timestamp><Current dt:dt=""r8"">0</Current><DateUtc dt:dt=""string"">2014-05-13T22:21:45Z</DateUtc></FrequencyChange></FrequencyChanges></Clock>\n",60.036,1,457063633,0,,-999999,9,24170,t,35985,60155,5/13/2014,15:21:45,,2,Session2,SessionsList,0,,-999999,11,697184,t,34864,732048,684674,2,1,2,3,,,,1045577,,,,3,1,3,Cued4,MiniBlocks2,,,,,7,1,b,-999999,14,1142062,b,435,1142497,White,Congruent,b,Green,0,,0,3,1132051,,0,0,,,,,,,,,,7,1,7,Pictures\green.bmp,9000,10000,Pictures\black.bmp,,,,,,,,,,,,,StimulusPr,Pictures\right.bmp,CuedStim4,Right
POP_2,27004,1,"<?xml version=""1.0""?>\n<Clock xmlns:dt=""urn:schemas-microsoft-com:datatypes""><Description dt:dt=""string"">E-Prime Primary Realtime Clock</Description><StartTime><Timestamp dt:dt=""int"">0</Timestamp><DateUtc dt:dt=""string"">2014-05-13T22:21:45Z</DateUtc></StartTime><FrequencyChanges><FrequencyChange><Frequency dt:dt=""r8"">2793030000</Frequency><Timestamp dt:dt=""r8"">1.48806436186037E+15</Timestamp><Current dt:dt=""r8"">0</Current><DateUtc dt:dt=""string"">2014-05-13T22:21:45Z</DateUtc></FrequencyChange></FrequencyChanges></Clock>\n",60.036,1,457063633,0,,-999999,9,24170,t,35985,60155,5/13/2014,15:21:45,,2,Session2,SessionsList,0,,-999999,11,697184,t,34864,732048,684674,2,1,2,3,,,,1045577,,,,3,1,3,Cued4,MiniBlocks2,,,,,8,1,b,-999999,5,1161053,b,297,1161350,White,Incongruent,b,Red,0,,0,8,1154056,,0,0,,,,,,,,,,8,1,8,Pictures\red.bmp,6000,10000,Pictures\left.bmp,,,,,,,,,,,,,StimulusPr,Pictures\black.bmp,CuedStim4,Left
POP_2,27004,1,"<?xml version=""1.0""?>\n<Clock xmlns:dt=""urn:schemas-microsoft-com:datatypes""><Description dt:dt=""string"">E-Prime Primary Realtime Clock</Description><StartTime><Timestamp dt:dt=""int"">0</Timestamp><DateUtc dt:dt=""string"">2014-05-13T22:21:45Z</DateUtc></StartTime><FrequencyChanges><FrequencyChange><Frequency dt:dt=""r8"">2793030000</Frequency><Timestamp dt:dt=""r8"">1.48806436186037E+15</Timestamp><Current dt:dt=""r8"">0</Current><DateUtc dt:dt=""string"">2014-05-13T22:21:45Z</DateUtc></FrequencyChange></FrequencyChanges></Clock>\n",60.036,1,457063633,0,,-999999,9,24170,t,35985,60155,5/13/2014,15:21:45,,2,Session2,SessionsList,0,,-999999,11,697184,t,34864,732048,684674,2,1,2,3,,,,1045577,,,,3,1,3,Cued4,MiniBlocks2,,,,,9,1,r,-999999,12,1180060,r,279,1180339,White,Congruent,r,Green,0,,0,15,1173063,,0,0,,,,,,,,,,9,1,9,Pictures\green.bmp,6000,16000,Pictures\left.bmp,,,,,,,,,,,,,StimulusPr,Pictures\black.bmp,CuedStim4,Left
POP_2,27004,1,"<?xml version=""1.0""?>\n<Clock xmlns:dt=""urn:schemas-microsoft-com:datatypes""><Description dt:dt=""string"">E-Prime Primary Realtime Clock</Description><StartTime><Timestamp dt:dt=""int"">0</Timestamp><DateUtc dt:dt=""string"">2014-05-13T22:21:45Z</DateUtc></StartTime><FrequencyChanges><FrequencyChange><Frequency dt:dt=""r8"">2793030000</Frequency><Timestamp dt:dt=""r8"">1.48806436186037E+15</Timestamp><Current dt:dt=""r8"">0</Current><DateUtc dt:dt=""string"">2014-05-13T22:21:45Z</DateUtc></FrequencyChange></FrequencyChanges></Clock>\n",60.036,1,457063633,0,,-999999,9,24170,t,35985,60155,5/13/2014,15:21:45,,2,Session2,SessionsList,0,,-999999,11,697184,t,34864,732048,684674,2,1,2,3,,,,1045577,,,,3,1,3,Cued4,MiniBlocks2,,,,,10,1,r,-999999,17,1203065,r,299,1203364,White,Congruent,r,Green,0,,0,3,1198051,,0,0,,,,,,,,,,10,1,10,Pictures\green.bmp,4000,2000,Pictures\left.bmp,,,,,,,,,,,,,StimulusPr,Pictures\black.bmp,CuedStim4,Left
POP_2,27004,1,"<?xml version=""1.0""?>\n<Clock xmlns:dt=""urn:schemas-microsoft-com:datatypes""><Description dt:dt=""string"">E-Prime Primary Realtime Clock</Description><StartTime><Timestamp dt:dt=""int"">0</Timestamp><DateUtc dt:dt=""string"">2014-05-13T22:21:45Z</DateUtc></StartTime><FrequencyChanges><FrequencyChange><Frequency dt:dt=""r8"">2793030000</Frequency><Timestamp dt:dt=""r8"">1.48806436186037E+15</Timestamp><Current dt:dt=""r8"">0</Current><DateUtc dt:dt=""string"">2014-05-13T22:21:45Z</DateUtc></FrequencyChange></FrequencyChanges></Clock>\n",60.036,1,457063633,0,,-999999,9,24170,t,35985,60155,5/13/2014,15:21:45,,2,Session2,SessionsList,0,,-999999,11,697184,t,34864,732048,684674,2,1,2,4,,,,,,,,4,1,4,NonCued4,MiniBlocks2,,,,1205381,1,1,r,-999999,10,1219057,r,303,1219360,Green,Congruent,r,White,0,,0,11,1215059,,0,0,,,,,,,,,,,,,Pictures\white.bmp,3000,2000,Pictures\GreenLeft.bmp,,,,,,,,,,1,1,1,StimulusPr,Pictures\black.bmp,NonCuedStim4,Left
POP_2,27004,1,"<?xml version=""1.0""?>\n<Clock xmlns:dt=""urn:schemas-microsoft-com:datatypes""><Description dt:dt=""string"">E-Prime Primary Realtime Clock</Description><StartTime><Timestamp dt:dt=""int"">0</Timestamp><DateUtc dt:dt=""string"">2014-05-13T22:21:45Z</DateUtc></StartTime><FrequencyChanges><FrequencyChange><Frequency dt:dt=""r8"">2793030000</Frequency><Timestamp dt:dt=""r8"">1.48806436186037E+15</Timestamp><Current dt:dt=""r8"">0</Current><DateUtc dt:dt=""string"">2014-05-13T22:21:45Z</DateUtc></FrequencyChange></FrequencyChanges></Clock>\n",60.036,1,457063633,0,,-999999,9,24170,t,35985,60155,5/13/2014,15:21:45,,2,Session2,SessionsList,0,,-999999,11,697184,t,34864,732048,684674,2,1,2,4,,,,,,,,4,1,4,NonCued4,MiniBlocks2,,,,1205381,2,1,r,-999999,5,1228053,r,446,1228499,Green,Congruent,r,White,0,,0,7,1223055,,0,0,,,,,,,,,,,,,Pictures\white.bmp,4000,2000,Pictures\GreenLeft.bmp,,,,,,,,,,2,1,2,StimulusPr,Pictures\black.bmp,NonCuedStim4,Left
POP_2,27004,1,"<?xml version=""1.0""?>\n<Clock xmlns:dt=""urn:schemas-microsoft-com:datatypes""><Description dt:dt=""string"">E-Prime Primary Realtime Clock</Description><StartTime><Timestamp dt:dt=""int"">0</Timestamp><DateUtc dt:dt=""string"">2014-05-13T22:21:45Z</DateUtc></StartTime><FrequencyChanges><FrequencyChange><Frequency dt:dt=""r8"">2793030000</Frequency><Timestamp dt:dt=""r8"">1.48806436186037E+15</Timestamp><Current dt:dt=""r8"">0</Current><DateUtc dt:dt=""string"">2014-05-13T22:21:45Z</DateUtc></FrequencyChange></FrequencyChanges></Clock>\n",60.036,1,457063633,0,,-999999,9,24170,t,35985,60155,5/13/2014,15:21:45,,2,Session2,SessionsList,0,,-999999,11,697184,t,34864,732048,684674,2,1,2,4,,,,,,,,4,1,4,NonCued4,MiniBlocks2,,,,1205381,3,1,r,-999999,17,1237065,r,400,1237465,Red,Incongruent,r,White,0,,0,4,1232051,,0,0,,,,,,,,,,,,,Pictures\white.bmp,4000,2000,Pictures\black.bmp,,,,,,,,,,3,1,3,StimulusPr,Pictures\RedRight.bmp,NonCuedStim4,Right
POP_2,27004,1,"<?xml version=""1.0""?>\n<Clock xmlns:dt=""urn:schemas-microsoft-com:datatypes""><Description dt:dt=""string"">E-Prime Primary Realtime Clock</Description><StartTime><Timestamp dt:dt=""int"">0</Timestamp><DateUtc dt:dt=""string"">2014-05-13T22:21:45Z</DateUtc></StartTime><FrequencyChanges><FrequencyChange><Frequency dt:dt=""r8"">2793030000</Frequency><Timestamp dt:dt=""r8"">1.48806436186037E+15</Timestamp><Current dt:dt=""r8"">0</Current><DateUtc dt:dt=""string"">2014-05-13T22:21:45Z</DateUtc></FrequencyChange></FrequencyChanges></Clock>\n",60.036,1,457063633,0,,-999999,9,24170,t,35985,60155,5/13/2014,15:21:45,,2,Session2,SessionsList,0,,-999999,11,697184,t,34864,732048,684674,2,1,2,4,,,,,,,,4,1,4,NonCued4,MiniBlocks2,,,,1205381,4,1,b,-999999,13,1245061,b,324,1245385,Green,Congruent,b,White,0,,0,15,1241063,,0,0,,,,,,,,,,,,,Pictures\white.bmp,3000,16000,Pictures\black.bmp,,,,,,,,,,4,1,4,StimulusPr,Pictures\GreenRight.bmp,NonCuedStim4,Right
POP_2,27004,1,"<?xml version=""1.0""?>\n<Clock xmlns:dt=""urn:schemas-microsoft-com:datatypes""><Description dt:dt=""string"">E-Prime Primary Realtime Clock</Description><StartTime><Timestamp dt:dt=""int"">0</Timestamp><DateUtc dt:dt=""string"">2014-05-13T22:21:45Z</DateUtc></StartTime><FrequencyChanges><FrequencyChange><Frequency dt:dt=""r8"">2793030000</Frequency><Timestamp dt:dt=""r8"">1.48806436186037E+15</Timestamp><Current dt:dt=""r8"">0</Current><DateUtc dt:dt=""string"">2014-05-13T22:21:45Z</DateUtc></FrequencyChange></FrequencyChanges></Clock>\n",60.036,1,457063633,0,,-999999,9,24170,t,35985,60155,5/13/2014,15:21:45,,2,Session2,SessionsList,0,,-999999,11,697184,t,34864,732048,684674,2,1,2,4,,,,,,,,4,1,4,NonCued4,MiniBlocks2,,,,1205381,5,1,r,-999999,15,1273063,r,452,1273515,Green,Congruent,r,White,0,,0,4,1263052,,0,0,,,,,,,,,,,,,Pictures\white.bmp,9000,10000,Pictures\GreenLeft.bmp,,,,,,,,,,5,1,5,StimulusPr,Pictures\black.bmp,NonCuedStim4,Left
POP_2,27004,1,"<?xml version=""1.0""?>\n<Clock xmlns:dt=""urn:schemas-microsoft-com:datatypes""><Description dt:dt=""string"">E-Prime Primary Realtime Clock</Description><StartTime><Timestamp dt:dt=""int"">0</Timestamp><DateUtc dt:dt=""string"">2014-05-13T22:21:45Z</DateUtc></StartTime><FrequencyChanges><FrequencyChange><Frequency dt:dt=""r8"">2793030000</Frequency><Timestamp dt:dt=""r8"">1.48806436186037E+15</Timestamp><Current dt:dt=""r8"">0</Current><DateUtc dt:dt=""string"">2014-05-13T22:21:45Z</DateUtc></FrequencyChange></FrequencyChanges></Clock>\n",60.036,1,457063633,0,,-999999,9,24170,t,35985,60155,5/13/2014,15:21:45,,2,Session2,SessionsList,0,,-999999,11,697184,t,34864,732048,684674,2,1,2,4,,,,,,,,4,1,4,NonCued4,MiniBlocks2,,,,1205381,6,1,b,-999999,7,1289055,b,404,1289459,Green,Congruent,b,White,0,,0,9,1285057,,0,0,,,,,,,,,,,,,Pictures\white.bmp,3000,16000,Pictures\black.bmp,,,,,,,,,,6,1,6,StimulusPr,Pictures\GreenRight.bmp,NonCuedStim4,Right
POP_2,27004,1,"<?xml version=""1.0""?>\n<Clock xmlns:dt=""urn:schemas-microsoft-com:datatypes""><Description dt:dt=""string"">E-Prime Primary Realtime Clock</Description><StartTime><Timestamp dt:dt=""int"">0</Timestamp><DateUtc dt:dt=""string"">2014-05-13T22:21:45Z</DateUtc></StartTime><FrequencyChanges><FrequencyChange><Frequency dt:dt=""r8"">2793030000</Frequency><Timestamp dt:dt=""r8"">1.48806436186037E+15</Timestamp><Current dt:dt=""r8"">0</Current><DateUtc dt:dt=""string"">2014-05-13T22:21:45Z</DateUtc></FrequencyChange></FrequencyChanges></Clock>\n",60.036,1,457063633,0,,-999999,9,24170,t,35985,60155,5/13/2014,15:21:45,,2,Session2,SessionsList,0,,-999999,11,697184,t,34864,732048,684674,2,1,2,4,,,,,,,,4,1,4,NonCued4,MiniBlocks2,,,,1205381,7,1,b,-999999,13,1311061,b,438,1311499,Red,Incongruent,b,White,0,,0,15,1307063,,0,0,,,,,,,,,,,,,Pictures\white.bmp,3000,16000,Pictures\RedLeft.bmp,,,,,,,,,,7,1,7,StimulusPr,Pictures\black.bmp,NonCuedStim4,Left
POP_2,27004,1,"<?xml version=""1.0""?>\n<Clock xmlns:dt=""urn:schemas-microsoft-com:datatypes""><Description dt:dt=""string"">E-Prime Primary Realtime Clock</Description><StartTime><Timestamp dt:dt=""int"">0</Timestamp><DateUtc dt:dt=""string"">2014-05-13T22:21:45Z</DateUtc></StartTime><FrequencyChanges><FrequencyChange><Frequency dt:dt=""r8"">2793030000</Frequency><Timestamp dt:dt=""r8"">1.48806436186037E+15</Timestamp><Current dt:dt=""r8"">0</Current><DateUtc dt:dt=""string"">2014-05-13T22:21:45Z</DateUtc></FrequencyChange></FrequencyChanges></Clock>\n",60.036,1,457063633,0,,-999999,9,24170,t,35985,60155,5/13/2014,15:21:45,,2,Session2,SessionsList,0,,-999999,11,697184,t,34864,732048,684674,2,1,2,4,,,,,,,,4,1,4,NonCued4,MiniBlocks2,,,,1205381,8,1,r,-999999,2,1333050,r,364,1333414,Green,Congruent,r,White,0,,0,7,1329052,,0,0,,,,,,,,,,,,,Pictures\white.bmp,3000,2000,Pictures\GreenLeft.bmp,,,,,,,,,,8,1,8,StimulusPr,Pictures\black.bmp,NonCuedStim4,Left
POP_2,27004,1,"<?xml version=""1.0""?>\n<Clock xmlns:dt=""urn:schemas-microsoft-com:datatypes""><Description dt:dt=""string"">E-Prime Primary Realtime Clock</Description><StartTime><Timestamp dt:dt=""int"">0</Timestamp><DateUtc dt:dt=""string"">2014-05-13T22:21:45Z</DateUtc></StartTime><FrequencyChanges><FrequencyChange><Frequency dt:dt=""r8"">2793030000</Frequency><Timestamp dt:dt=""r8"">1.48806436186037E+15</Timestamp><Current dt:dt=""r8"">0</Current><DateUtc dt:dt=""string"">2014-05-13T22:21:45Z</DateUtc></FrequencyChange></FrequencyChanges></Clock>\n",60.036,1,457063633,0,,-999999,9,24170,t,35985,60155,5/13/2014,15:21:45,,2,Session2,SessionsList,0,,-999999,11,697184,t,34864,732048,684674,2,1,2,4,,,,,,,,4,1,4,NonCued4,MiniBlocks2,,,,1205381,9,1,b,-999999,13,1344061,b,381,1344442,Green,Congruent,b,White,0,,0,17,1337065,,0,0,,,,,,,,,,,,,Pictures\white.bmp,6000,2000,Pictures\black.bmp,,,,,,,,,,9,1,9,StimulusPr,Pictures\GreenRight.bmp,NonCuedStim4,Right
POP_2,27004,1,"<?xml version=""1.0""?>\n<Clock xmlns:dt=""urn:schemas-microsoft-com:datatypes""><Description dt:dt=""string"">E-Prime Primary Realtime Clock</Description><StartTime><Timestamp dt:dt=""int"">0</Timestamp><DateUtc dt:dt=""string"">2014-05-13T22:21:45Z</DateUtc></StartTime><FrequencyChanges><FrequencyChange><Frequency dt:dt=""r8"">2793030000</Frequency><Timestamp dt:dt=""r8"">1.48806436186037E+15</Timestamp><Current dt:dt=""r8"">0</Current><DateUtc dt:dt=""string"">2014-05-13T22:21:45Z</DateUtc></FrequencyChange></FrequencyChanges></Clock>\n",60.036,1,457063633,0,,-999999,9,24170,t,35985,60155,5/13/2014,15:21:45,,2,Session2,SessionsList,0,,-999999,11,697184,t,34864,732048,684674,2,1,2,4,,,,,,,,4,1,4,NonCued4,MiniBlocks2,,,,1205381,10,1,b,-999999,10,1353057,b,390,1353447,Green,Congruent,b,White,0,,0,12,1348059,,0,0,,,,,,,,,,,,,Pictures\white.bmp,4000,4000,Pictures\black.bmp,,,,,,,,,,10,1,10,StimulusPr,Pictures\GreenRight.bmp,NonCuedStim4,Right
