ExperimentName,Subject,Session,Clock.Information,Display.RefreshRate,Group,RandomSeed,Session1Onset.ACC,Session1Onset.CRESP,Session1Onset.DurationError,Session1Onset.OnsetDelay,Session1Onset.OnsetTime,Session1Onset.RESP,Session1Onset.RT,Session1Onset.RTTime,SessionDate,SessionTime,SessionTimeUtc,Block,Procedure[Block],Running[Block],Session2Onset.ACC,Session2Onset.CRESP,Session2Onset.DurationError,Session2Onset.OnsetDelay,Session2Onset.OnsetTime,Session2Onset.RESP,Session2Onset.RT,Session2Onset.RTTime,SessionBreak.OnsetTime,SessionsList,SessionsList.Cycle,SessionsList.Sample,Trial,CuedPrompt1.OnsetTime,CuedPrompt2.OnsetTime,CuedPrompt3.OnsetTime,CuedPrompt4.OnsetTime,MiniBlocks1,MiniBlocks1.Cycle,MiniBlocks1.Sample,MiniBlocks2,MiniBlocks2.Cycle,MiniBlocks2.Sample,Procedure[Trial],Running[Trial],UncuedPrompt1.OnsetTime,UncuedPrompt2.OnsetTime,UncuedPrompt3.OnsetTime,UncuedPrompt4.OnsetTime,SubTrial,Arrow1.ACC,Arrow1.CRESP,Arrow1.DurationError,Arrow1.OnsetDelay,Arrow1.OnsetTime,Arrow1.RESP,Arrow1.RT,Arrow1.RTTime,ArrowColor,Congruence,CorrectResp,Cue,Cue.ACC,Cue.CRESP,Cue.DurationError,Cue.OnsetDelay,Cue.OnsetTime,Cue.RESP,Cue.RT,Cue.RTTime,CuedStim1,CuedStim1.Cycle,CuedStim1.Sample,CuedStim2,CuedStim2.Cycle,CuedStim2.Sample,CuedStim3,CuedStim3.Cycle,CuedStim3.Sample,CuedStim4,CuedStim4.Cycle,CuedStim4.Sample,CueImage,JitterCue,JitterTrial,LeftImage,NonCuedStim1,NonCuedStim1.Cycle,NonCuedStim1.Sample,NonCuedStim2,NonCuedStim2.Cycle,NonCuedStim2.Sample,NonCuedStim3,NonCuedStim3.Cycle,NonCuedStim3.Sample,NonCuedStim4,NonCuedStim4.Cycle,NonCuedStim4.Sample,Procedure[SubTrial],RightImage,Running[SubTrial],Stimulus
POP_2,27007,1,"<?xml version=""1.0""?>\n<Clock xmlns:dt=""urn:schemas-microsoft-com:datatypes""><Description dt:dt=""string"">E-Prime Primary Realtime Clock</Description><StartTime><Timestamp dt:dt=""int"">0</Timestamp><DateUtc dt:dt=""string"">2014-04-29T22:44:16Z</DateUtc></StartTime><FrequencyChanges><FrequencyChange><Frequency dt:dt=""r8"">2793020000</Frequency><Timestamp dt:dt=""r8"">54296872288915</Timestamp><Current dt:dt=""r8"">0</Current><DateUtc dt:dt=""string"">2014-04-29T22:44:16Z</DateUtc></FrequencyChange></FrequencyChanges></Clock>\n",60.031,1,460110136,0,,-999999,10,48806,t,43709,92515,4/29/2014,15:44:17,,1,Session1,SessionsList,,,,,,,,,,1,1,1,1,92517,,,,1,1,1,,,,Cued1,MiniBlocks1,,,,,1,1,r,-999999,12,106527,r,581,107108,White,Congruent,r,Green,0,,0,12,101530,,0,0,1,1,1,,,,,,,,,,Pictures\green.bmp,4000,4000,Pictures\left.bmp,,,,,,,,,,,,,StimulusPr,Pictures\black.bmp,CuedStim1,Left
POP_2,27007,1,"<?xml version=""1.0""?>\n<Clock xmlns:dt=""urn:schemas-microsoft-com:datatypes""><Description dt:dt=""string"">E-Prime Primary Realtime Clock</Description><StartTime><Timestamp dt:dt=""int"">0</Timestamp><DateUtc dt:dt=""string"">2014-04-29T22:44:16Z</DateUtc></StartTime><FrequencyChanges><FrequencyChange><Frequency dt:dt=""r8"">2793020000</Frequency><Timestamp dt:dt=""r8"">54296872288915</Timestamp><Current dt:dt=""r8"">0</Current><DateUtc dt:dt=""string"">2014-04-29T22:44:16Z</DateUtc></FrequencyChange></FrequencyChanges></Clock>\n",60.031,1,460110136,0,,-999999,10,48806,t,43709,92515,4/29/2014,15:44:17,,1,Session1,SessionsList,,,,,,,,,,1,1,1,1,92517,,,,1,1,1,,,,Cued1,MiniBlocks1,,,,,2,1,b,-999999,14,119521,b,523,120044,White,Congruent,b,Green,0,,0,9,112524,,0,0,2,1,2,,,,,,,,,,Pictures\green.bmp,6000,2000,Pictures\black.bmp,,,,,,,,,,,,,StimulusPr,Pictures\right.bmp,CuedStim1,Right
POP_2,27007,1,"<?xml version=""1.0""?>\n<Clock xmlns:dt=""urn:schemas-microsoft-com:datatypes""><Description dt:dt=""string"">E-Prime Primary Realtime Clock</Description><StartTime><Timestamp dt:dt=""int"">0</Timestamp><DateUtc dt:dt=""string"">2014-04-29T22:44:16Z</DateUtc></StartTime><FrequencyChanges><FrequencyChange><Frequency dt:dt=""r8"">2793020000</Frequency><Timestamp dt:dt=""r8"">54296872288915</Timestamp><Current dt:dt=""r8"">0</Current><DateUtc dt:dt=""string"">2014-04-29T22:44:16Z</DateUtc></FrequencyChange></FrequencyChanges></Clock>\n",60.031,1,460110136,0,,-999999,10,48806,t,43709,92515,4/29/2014,15:44:17,,1,Session1,SessionsList,,,,,,,,,,1,1,1,1,92517,,,,1,1,1,,,,Cued1,MiniBlocks1,,,,,3,1,b,-999999,18,127517,b,436,127953,White,Congruent,b,Green,0,,0,4,123519,,0,0,3,1,3,,,,,,,,,,Pictures\green.bmp,3000,2000,Pictures\black.bmp,,,,,,,,,,,,,StimulusPr,Pictures\right.bmp,CuedStim1,Right
POP_2,27007,1,"<?xml version=""1.0""?>\n<Clock xmlns:dt=""urn:schemas-microsoft-com:datatypes""><Description dt:dt=""string"">E-Prime Primary Realtime Clock</Description><StartTime><Timestamp dt:dt=""int"">0</Timestamp><DateUtc dt:dt=""string"">2014-04-29T22:44:16Z</DateUtc></StartTime><FrequencyChanges><FrequencyChange><Frequency dt:dt=""r8"">2793020000</Frequency><Timestamp dt:dt=""r8"">54296872288915</Timestamp><Current dt:dt=""r8"">0</Current><DateUtc dt:dt=""string"">2014-04-29T22:44:16Z</DateUtc></FrequencyChange></FrequencyChanges></Clock>\n",60.031,1,460110136,0,,-999999,10,48806,t,43709,92515,4/29/2014,15:44:17,,1,Session1,SessionsList,,,,,,,,,,1,1,1,1,92517,,,,1,1,1,,,,Cued1,MiniBlocks1,,,,,4,1,b,-999999,14,135529,b,501,136030,White,Incongruent,b,Red,0,,0,16,131531,,0,0,4,1,4,,,,,,,,,,Pictures\red.bmp,3000,16000,Pictures\left.bmp,,,,,,,,,,,,,StimulusPr,Pictures\black.bmp,CuedStim1,Left
POP_2,27007,1,"<?xml version=""1.0""?>\n<Clock xmlns:dt=""urn:schemas-microsoft-com:datatypes""><Description dt:dt=""string"">E-Prime Primary Realtime Clock</Description><StartTime><Timestamp dt:dt=""int"">0</Timestamp><DateUtc dt:dt=""string"">2014-04-29T22:44:16Z</DateUtc></StartTime><FrequencyChanges><FrequencyChange><Frequency dt:dt=""r8"">2793020000</Frequency><Timestamp dt:dt=""r8"">54296872288915</Timestamp><Current dt:dt=""r8"">0</Current><DateUtc dt:dt=""string"">2014-04-29T22:44:16Z</DateUtc></FrequencyChange></FrequencyChanges></Clock>\n",60.031,1,460110136,0,,-999999,10,48806,t,43709,92515,4/29/2014,15:44:17,,1,Session1,SessionsList,,,,,,,,,,1,1,1,1,92517,,,,1,1,1,,,,Cued1,MiniBlocks1,,,,,5,1,r,-999999,4,157519,r,559,158078,White,Congruent,r,Green,0,,0,7,153521,,0,0,5,1,5,,,,,,,,,,Pictures\green.bmp,3000,16000,Pictures\left.bmp,,,,,,,,,,,,,StimulusPr,Pictures\black.bmp,CuedStim1,Left
POP_2,27007,1,"<?xml version=""1.0""?>\n<Clock xmlns:dt=""urn:schemas-microsoft-com:datatypes""><Description dt:dt=""string"">E-Prime Primary Realtime Clock</Description><StartTime><Timestamp dt:dt=""int"">0</Timestamp><DateUtc dt:dt=""string"">2014-04-29T22:44:16Z</DateUtc></StartTime><FrequencyChanges><FrequencyChange><Frequency dt:dt=""r8"">2793020000</Frequency><Timestamp dt:dt=""r8"">54296872288915</Timestamp><Current dt:dt=""r8"">0</Current><DateUtc dt:dt=""string"">2014-04-29T22:44:16Z</DateUtc></FrequencyChange></FrequencyChanges></Clock>\n",60.031,1,460110136,0,,-999999,10,48806,t,43709,92515,4/29/2014,15:44:17,,1,Session1,SessionsList,,,,,,,,,,1,1,1,1,92517,,,,1,1,1,,,,Cued1,MiniBlocks1,,,,,6,1,r,-999999,5,185505,r,448,185953,White,Congruent,r,Green,0,,0,11,175526,,0,0,6,1,6,,,,,,,,,,Pictures\green.bmp,9000,10000,Pictures\left.bmp,,,,,,,,,,,,,StimulusPr,Pictures\black.bmp,CuedStim1,Left
POP_2,27007,1,"<?xml version=""1.0""?>\n<Clock xmlns:dt=""urn:schemas-microsoft-com:datatypes""><Description dt:dt=""string"">E-Prime Primary Realtime Clock</Description><StartTime><Timestamp dt:dt=""int"">0</Timestamp><DateUtc dt:dt=""string"">2014-04-29T22:44:16Z</DateUtc></StartTime><FrequencyChanges><FrequencyChange><Frequency dt:dt=""r8"">2793020000</Frequency><Timestamp dt:dt=""r8"">54296872288915</Timestamp><Current dt:dt=""r8"">0</Current><DateUtc dt:dt=""string"">2014-04-29T22:44:16Z</DateUtc></FrequencyChange></FrequencyChanges></Clock>\n",60.031,1,460110136,0,,-999999,10,48806,t,43709,92515,4/29/2014,15:44:17,,1,Session1,SessionsList,,,,,,,,,,1,1,1,1,92517,,,,1,1,1,,,,Cued1,MiniBlocks1,,,,,7,1,b,-999999,7,201513,b,440,201953,White,Congruent,b,Green,0,,0,17,197532,,0,0,7,1,7,,,,,,,,,,Pictures\green.bmp,3000,16000,Pictures\black.bmp,,,,,,,,,,,,,StimulusPr,Pictures\right.bmp,CuedStim1,Right
POP_2,27007,1,"<?xml version=""1.0""?>\n<Clock xmlns:dt=""urn:schemas-microsoft-com:datatypes""><Description dt:dt=""string"">E-Prime Primary Realtime Clock</Description><StartTime><Timestamp dt:dt=""int"">0</Timestamp><DateUtc dt:dt=""string"">2014-04-29T22:44:16Z</DateUtc></StartTime><FrequencyChanges><FrequencyChange><Frequency dt:dt=""r8"">2793020000</Frequency><Timestamp dt:dt=""r8"">54296872288915</Timestamp><Current dt:dt=""r8"">0</Current><DateUtc dt:dt=""string"">2014-04-29T22:44:16Z</DateUtc></FrequencyChange></FrequencyChanges></Clock>\n",60.031,1,460110136,0,,-999999,10,48806,t,43709,92515,4/29/2014,15:44:17,,1,Session1,SessionsList,,,,,,,,,,1,1,1,1,92517,,,,1,1,1,,,,Cued1,MiniBlocks1,,,,,8,1,r,-999999,4,224519,r,543,225062,White,Incongruent,r,Red,0,,0,6,219521,,0,0,8,1,8,,,,,,,,,,Pictures\red.bmp,4000,2000,Pictures\black.bmp,,,,,,,,,,,,,StimulusPr,Pictures\right.bmp,CuedStim1,Right
POP_2,27007,1,"<?xml version=""1.0""?>\n<Clock xmlns:dt=""urn:schemas-microsoft-com:datatypes""><Description dt:dt=""string"">E-Prime Primary Realtime Clock</Description><StartTime><Timestamp dt:dt=""int"">0</Timestamp><DateUtc dt:dt=""string"">2014-04-29T22:44:16Z</DateUtc></StartTime><FrequencyChanges><FrequencyChange><Frequency dt:dt=""r8"">2793020000</Frequency><Timestamp dt:dt=""r8"">54296872288915</Timestamp><Current dt:dt=""r8"">0</Current><DateUtc dt:dt=""string"">2014-04-29T22:44:16Z</DateUtc></FrequencyChange></FrequencyChanges></Clock>\n",60.031,1,460110136,0,,-999999,10,48806,t,43709,92515,4/29/2014,15:44:17,,1,Session1,SessionsList,,,,,,,,,,1,1,1,1,92517,,,,1,1,1,,,,Cued1,MiniBlocks1,,,,,9,1,b,-999999,16,233531,b,496,234027,White,Congruent,b,Green,0,,0,2,228517,,0,0,9,1,9,,,,,,,,,,Pictures\green.bmp,4000,2000,Pictures\black.bmp,,,,,,,,,,,,,StimulusPr,Pictures\right.bmp,CuedStim1,Right
POP_2,27007,1,"<?xml version=""1.0""?>\n<Clock xmlns:dt=""urn:schemas-microsoft-com:datatypes""><Description dt:dt=""string"">E-Prime Primary Realtime Clock</Description><StartTime><Timestamp dt:dt=""int"">0</Timestamp><DateUtc dt:dt=""string"">2014-04-29T22:44:16Z</DateUtc></StartTime><FrequencyChanges><FrequencyChange><Frequency dt:dt=""r8"">2793020000</Frequency><Timestamp dt:dt=""r8"">54296872288915</Timestamp><Current dt:dt=""r8"">0</Current><DateUtc dt:dt=""string"">2014-04-29T22:44:16Z</DateUtc></FrequencyChange></FrequencyChanges></Clock>\n",60.031,1,460110136,0,,-999999,10,48806,t,43709,92515,4/29/2014,15:44:17,,1,Session1,SessionsList,,,,,,,,,,1,1,1,1,92517,,,,1,1,1,,,,Cued1,MiniBlocks1,,,,,10,1,r,-999999,9,241510,r,474,241984,White,Congruent,r,Green,0,,0,14,237529,,0,0,10,1,10,,,,,,,,,,Pictures\green.bmp,3000,2000,Pictures\left.bmp,,,,,,,,,,,,,StimulusPr,Pictures\black.bmp,CuedStim1,Left
POP_2,27007,1,"<?xml version=""1.0""?>\n<Clock xmlns:dt=""urn:schemas-microsoft-com:datatypes""><Description dt:dt=""string"">E-Prime Primary Realtime Clock</Description><StartTime><Timestamp dt:dt=""int"">0</Timestamp><DateUtc dt:dt=""string"">2014-04-29T22:44:16Z</DateUtc></StartTime><FrequencyChanges><FrequencyChange><Frequency dt:dt=""r8"">2793020000</Frequency><Timestamp dt:dt=""r8"">54296872288915</Timestamp><Current dt:dt=""r8"">0</Current><DateUtc dt:dt=""string"">2014-04-29T22:44:16Z</DateUtc></FrequencyChange></FrequencyChanges></Clock>\n",60.031,1,460110136,0,,-999999,10,48806,t,43709,92515,4/29/2014,15:44:17,,1,Session1,SessionsList,,,,,,,,,,1,1,1,2,,,,,2,1,2,,,,NonCued1,MiniBlocks1,244009,,,,1,1,r,-999999,3,259518,r,622,260140,Green,Congruent,r,White,0,,0,17,254537,,0,0,,,,,,,,,,,,,Pictures\white.bmp,4000,2000,Pictures\GreenLeft.bmp,1,1,1,,,,,,,,,,StimulusPr,Pictures\black.bmp,NonCuedStim1,Left
POP_2,27007,1,"<?xml version=""1.0""?>\n<Clock xmlns:dt=""urn:schemas-microsoft-com:datatypes""><Description dt:dt=""string"">E-Prime Primary Realtime Clock</Description><StartTime><Timestamp dt:dt=""int"">0</Timestamp><DateUtc dt:dt=""string"">2014-04-29T22:44:16Z</DateUtc></StartTime><FrequencyChanges><FrequencyChange><Frequency dt:dt=""r8"">2793020000</Frequency><Timestamp dt:dt=""r8"">54296872288915</Timestamp><Current dt:dt=""r8"">0</Current><DateUtc dt:dt=""string"">2014-04-29T22:44:16Z</DateUtc></FrequencyChange></FrequencyChanges></Clock>\n",60.031,1,460110136,0,,-999999,10,48806,t,43709,92515,4/29/2014,15:44:17,,1,Session1,SessionsList,,,,,,,,,,1,1,1,2,,,,,2,1,2,,,,NonCued1,MiniBlocks1,244009,,,,2,1,b,-999999,14,270529,b,705,271234,Green,Congruent,b,White,0,,0,13,263533,,0,0,,,,,,,,,,,,,Pictures\white.bmp,6000,16000,Pictures\black.bmp,2,1,2,,,,,,,,,,StimulusPr,Pictures\GreenRight.bmp,NonCuedStim1,Right
POP_2,27007,1,"<?xml version=""1.0""?>\n<Clock xmlns:dt=""urn:schemas-microsoft-com:datatypes""><Description dt:dt=""string"">E-Prime Primary Realtime Clock</Description><StartTime><Timestamp dt:dt=""int"">0</Timestamp><DateUtc dt:dt=""string"">2014-04-29T22:44:16Z</DateUtc></StartTime><FrequencyChanges><FrequencyChange><Frequency dt:dt=""r8"">2793020000</Frequency><Timestamp dt:dt=""r8"">54296872288915</Timestamp><Current dt:dt=""r8"">0</Current><DateUtc dt:dt=""string"">2014-04-29T22:44:16Z</DateUtc></FrequencyChange></FrequencyChanges></Clock>\n",60.031,1,460110136,0,,-999999,10,48806,t,43709,92515,4/29/2014,15:44:17,,1,Session1,SessionsList,,,,,,,,,,1,1,1,2,,,,,2,1,2,,,,NonCued1,MiniBlocks1,244009,,,,3,1,r,-999999,18,295533,r,638,296171,Red,Incongruent,r,White,0,,0,5,288520,,0,0,,,,,,,,,,,,,Pictures\white.bmp,6000,10000,Pictures\black.bmp,3,1,3,,,,,,,,,,StimulusPr,Pictures\RedRight.bmp,NonCuedStim1,Right
POP_2,27007,1,"<?xml version=""1.0""?>\n<Clock xmlns:dt=""urn:schemas-microsoft-com:datatypes""><Description dt:dt=""string"">E-Prime Primary Realtime Clock</Description><StartTime><Timestamp dt:dt=""int"">0</Timestamp><DateUtc dt:dt=""string"">2014-04-29T22:44:16Z</DateUtc></StartTime><FrequencyChanges><FrequencyChange><Frequency dt:dt=""r8"">2793020000</Frequency><Timestamp dt:dt=""r8"">54296872288915</Timestamp><Current dt:dt=""r8"">0</Current><DateUtc dt:dt=""string"">2014-04-29T22:44:16Z</DateUtc></FrequencyChange></FrequencyChanges></Clock>\n",60.031,1,460110136,0,,-999999,10,48806,t,43709,92515,4/29/2014,15:44:17,,1,Session1,SessionsList,,,,,,,,,,1,1,1,2,,,,,2,1,2,,,,NonCued1,MiniBlocks1,244009,,,,4,1,r,-999999,3,317523,r,555,318078,Green,Congruent,r,White,0,,0,13,307528,,0,0,,,,,,,,,,,,,Pictures\white.bmp,9000,10000,Pictures\GreenLeft.bmp,4,1,4,,,,,,,,,,StimulusPr,Pictures\black.bmp,NonCuedStim1,Left
POP_2,27007,1,"<?xml version=""1.0""?>\n<Clock xmlns:dt=""urn:schemas-microsoft-com:datatypes""><Description dt:dt=""string"">E-Prime Primary Realtime Clock</Description><StartTime><Timestamp dt:dt=""int"">0</Timestamp><DateUtc dt:dt=""string"">2014-04-29T22:44:16Z</DateUtc></StartTime><FrequencyChanges><FrequencyChange><Frequency dt:dt=""r8"">2793020000</Frequency><Timestamp dt:dt=""r8"">54296872288915</Timestamp><Current dt:dt=""r8"">0</Current><DateUtc dt:dt=""string"">2014-04-29T22:44:16Z</DateUtc></FrequencyChange></FrequencyChanges></Clock>\n",60.031,1,460110136,0,,-999999,10,48806,t,43709,92515,4/29/2014,15:44:17,,1,Session1,SessionsList,,,,,,,,,,1,1,1,2,,,,,2,1,2,,,,NonCued1,MiniBlocks1,244009,,,,5,1,b,-999999,11,333531,b,578,334109,Green,Congruent,b,White,0,,0,2,329517,,0,0,,,,,,,,,,,,,Pictures\white.bmp,3000,2000,Pictures\black.bmp,5,1,5,,,,,,,,,,StimulusPr,Pictures\GreenRight.bmp,NonCuedStim1,Right
POP_2,27007,1,"<?xml version=""1.0""?>\n<Clock xmlns:dt=""urn:schemas-microsoft-com:datatypes""><Description dt:dt=""string"">E-Prime Primary Realtime Clock</Description><StartTime><Timestamp dt:dt=""int"">0</Timestamp><DateUtc dt:dt=""string"">2014-04-29T22:44:16Z</DateUtc></StartTime><FrequencyChanges><FrequencyChange><Frequency dt:dt=""r8"">2793020000</Frequency><Timestamp dt:dt=""r8"">54296872288915</Timestamp><Current dt:dt=""r8"">0</Current><DateUtc dt:dt=""string"">2014-04-29T22:44:16Z</DateUtc></FrequencyChange></FrequencyChanges></Clock>\n",60.031,1,460110136,0,,-999999,10,48806,t,43709,92515,4/29/2014,15:44:17,,1,Session1,SessionsList,,,,,,,,,,1,1,1,2,,,,,2,1,2,,,,NonCued1,MiniBlocks1,244009,,,,6,1,b,-999999,7,342527,b,592,343119,Red,Incongruent,b,White,0,,0,9,337529,,0,0,,,,,,,,,,,,,Pictures\white.bmp,4000,16000,Pictures\RedLeft.bmp,6,1,6,,,,,,,,,,StimulusPr,Pictures\black.bmp,NonCuedStim1,Left
POP_2,27007,1,"<?xml version=""1.0""?>\n<Clock xmlns:dt=""urn:schemas-microsoft-com:datatypes""><Description dt:dt=""string"">E-Prime Primary Realtime Clock</Description><StartTime><Timestamp dt:dt=""int"">0</Timestamp><DateUtc dt:dt=""string"">2014-04-29T22:44:16Z</DateUtc></StartTime><FrequencyChanges><FrequencyChange><Frequency dt:dt=""r8"">2793020000</Frequency><Timestamp dt:dt=""r8"">54296872288915</Timestamp><Current dt:dt=""r8"">0</Current><DateUtc dt:dt=""string"">2014-04-29T22:44:16Z</DateUtc></FrequencyChange></FrequencyChanges></Clock>\n",60.031,1,460110136,0,,-999999,10,48806,t,43709,92515,4/29/2014,15:44:17,,1,Session1,SessionsList,,,,,,,,,,1,1,1,2,,,,,2,1,2,,,,NonCued1,MiniBlocks1,244009,,,,7,1,b,-999999,13,364533,b,545,365078,Green,Congruent,b,White,0,,0,3,360518,,0,0,,,,,,,,,,,,,Pictures\white.bmp,3000,4000,Pictures\black.bmp,7,1,7,,,,,,,,,,StimulusPr,Pictures\GreenRight.bmp,NonCuedStim1,Right
POP_2,27007,1,"<?xml version=""1.0""?>\n<Clock xmlns:dt=""urn:schemas-microsoft-com:datatypes""><Description dt:dt=""string"">E-Prime Primary Realtime Clock</Description><StartTime><Timestamp dt:dt=""int"">0</Timestamp><DateUtc dt:dt=""string"">2014-04-29T22:44:16Z</DateUtc></StartTime><FrequencyChanges><FrequencyChange><Frequency dt:dt=""r8"">2793020000</Frequency><Timestamp dt:dt=""r8"">54296872288915</Timestamp><Current dt:dt=""r8"">0</Current><DateUtc dt:dt=""string"">2014-04-29T22:44:16Z</DateUtc></FrequencyChange></FrequencyChanges></Clock>\n",60.031,1,460110136,0,,-999999,10,48806,t,43709,92515,4/29/2014,15:44:17,,1,Session1,SessionsList,,,,,,,,,,1,1,1,2,,,,,2,1,2,,,,NonCued1,MiniBlocks1,244009,,,,8,1,b,-999999,8,374528,b,456,374984,Green,Congruent,b,White,0,,0,10,370530,,0,0,,,,,,,,,,,,,Pictures\white.bmp,3000,4000,Pictures\black.bmp,8,1,8,,,,,,,,,,StimulusPr,Pictures\GreenRight.bmp,NonCuedStim1,Right
POP_2,27007,1,"<?xml version=""1.0""?>\n<Clock xmlns:dt=""urn:schemas-microsoft-com:datatypes""><Description dt:dt=""string"">E-Prime Primary Realtime Clock</Description><StartTime><Timestamp dt:dt=""int"">0</Timestamp><DateUtc dt:dt=""string"">2014-04-29T22:44:16Z</DateUtc></StartTime><FrequencyChanges><FrequencyChange><Frequency dt:dt=""r8"">2793020000</Frequency><Timestamp dt:dt=""r8"">54296872288915</Timestamp><Current dt:dt=""r8"">0</Current><DateUtc dt:dt=""string"">2014-04-29T22:44:16Z</DateUtc></FrequencyChange></FrequencyChanges></Clock>\n",60.031,1,460110136,0,,-999999,10,48806,t,43709,92515,4/29/2014,15:44:17,,1,Session1,SessionsList,,,,,,,,,,1,1,1,2,,,,,2,1,2,,,,NonCued1,MiniBlocks1,244009,,,,9,1,b,-999999,5,390520,b,745,391265,Red,Incongruent,b,White,0,,0,10,380525,,0,0,,,,,,,,,,,,,Pictures\white.bmp,9000,2000,Pictures\RedLeft.bmp,9,1,9,,,,,,,,,,StimulusPr,Pictures\black.bmp,NonCuedStim1,Left
POP_2,27007,1,"<?xml version=""1.0""?>\n<Clock xmlns:dt=""urn:schemas-microsoft-com:datatypes""><Description dt:dt=""string"">E-Prime Primary Realtime Clock</Description><StartTime><Timestamp dt:dt=""int"">0</Timestamp><DateUtc dt:dt=""string"">2014-04-29T22:44:16Z</DateUtc></StartTime><FrequencyChanges><FrequencyChange><Frequency dt:dt=""r8"">2793020000</Frequency><Timestamp dt:dt=""r8"">54296872288915</Timestamp><Current dt:dt=""r8"">0</Current><DateUtc dt:dt=""string"">2014-04-29T22:44:16Z</DateUtc></FrequencyChange></FrequencyChanges></Clock>\n",60.031,1,460110136,0,,-999999,10,48806,t,43709,92515,4/29/2014,15:44:17,,1,Session1,SessionsList,,,,,,,,,,1,1,1,2,,,,,2,1,2,,,,NonCued1,MiniBlocks1,244009,,,,10,1,r,-999999,16,401531,r,609,402140,Green,Congruent,r,White,0,,0,3,394518,,0,0,,,,,,,,,,,,,Pictures\white.bmp,6000,2000,Pictures\GreenLeft.bmp,10,1,10,,,,,,,,,,StimulusPr,Pictures\black.bmp,NonCuedStim1,Left
POP_2,27007,1,"<?xml version=""1.0""?>\n<Clock xmlns:dt=""urn:schemas-microsoft-com:datatypes""><Description dt:dt=""string"">E-Prime Primary Realtime Clock</Description><StartTime><Timestamp dt:dt=""int"">0</Timestamp><DateUtc dt:dt=""string"">2014-04-29T22:44:16Z</DateUtc></StartTime><FrequencyChanges><FrequencyChange><Frequency dt:dt=""r8"">2793020000</Frequency><Timestamp dt:dt=""r8"">54296872288915</Timestamp><Current dt:dt=""r8"">0</Current><DateUtc dt:dt=""string"">2014-04-29T22:44:16Z</DateUtc></FrequencyChange></FrequencyChanges></Clock>\n",60.031,1,460110136,0,,-999999,10,48806,t,43709,92515,4/29/2014,15:44:17,,1,Session1,SessionsList,,,,,,,,,,1,1,1,3,,,,,3,1,3,,,,NonCued2,MiniBlocks1,,404163,,,1,1,b,-999999,15,424536,b,542,425078,Green,Congruent,b,White,0,,0,9,414524,,0,0,,,,,,,,,,,,,Pictures\white.bmp,9000,10000,Pictures\black.bmp,,,,1,1,1,,,,,,,StimulusPr,Pictures\GreenRight.bmp,NonCuedStim2,Right
POP_2,27007,1,"<?xml version=""1.0""?>\n<Clock xmlns:dt=""urn:schemas-microsoft-com:datatypes""><Description dt:dt=""string"">E-Prime Primary Realtime Clock</Description><StartTime><Timestamp dt:dt=""int"">0</Timestamp><DateUtc dt:dt=""string"">2014-04-29T22:44:16Z</DateUtc></StartTime><FrequencyChanges><FrequencyChange><Frequency dt:dt=""r8"">2793020000</Frequency><Timestamp dt:dt=""r8"">54296872288915</Timestamp><Current dt:dt=""r8"">0</Current><DateUtc dt:dt=""string"">2014-04-29T22:44:16Z</DateUtc></FrequencyChange></FrequencyChanges></Clock>\n",60.031,1,460110136,0,,-999999,10,48806,t,43709,92515,4/29/2014,15:44:17,,1,Session1,SessionsList,,,,,,,,,,1,1,1,3,,,,,3,1,3,,,,NonCued2,MiniBlocks1,,404163,,,2,1,r,-999999,7,440528,r,456,440984,Green,Congruent,r,White,0,,0,9,436530,,0,0,,,,,,,,,,,,,Pictures\white.bmp,3000,2000,Pictures\GreenLeft.bmp,,,,2,1,2,,,,,,,StimulusPr,Pictures\black.bmp,NonCuedStim2,Left
POP_2,27007,1,"<?xml version=""1.0""?>\n<Clock xmlns:dt=""urn:schemas-microsoft-com:datatypes""><Description dt:dt=""string"">E-Prime Primary Realtime Clock</Description><StartTime><Timestamp dt:dt=""int"">0</Timestamp><DateUtc dt:dt=""string"">2014-04-29T22:44:16Z</DateUtc></StartTime><FrequencyChanges><FrequencyChange><Frequency dt:dt=""r8"">2793020000</Frequency><Timestamp dt:dt=""r8"">54296872288915</Timestamp><Current dt:dt=""r8"">0</Current><DateUtc dt:dt=""string"">2014-04-29T22:44:16Z</DateUtc></FrequencyChange></FrequencyChanges></Clock>\n",60.031,1,460110136,0,,-999999,10,48806,t,43709,92515,4/29/2014,15:44:17,,1,Session1,SessionsList,,,,,,,,,,1,1,1,3,,,,,3,1,3,,,,NonCued2,MiniBlocks1,,404163,,,3,1,r,-999999,6,448524,r,710,449234,Red,Incongruent,r,White,0,,0,6,444526,,0,0,,,,,,,,,,,,,Pictures\white.bmp,3000,2000,Pictures\black.bmp,,,,3,1,3,,,,,,,StimulusPr,Pictures\RedRight.bmp,NonCuedStim2,Right
POP_2,27007,1,"<?xml version=""1.0""?>\n<Clock xmlns:dt=""urn:schemas-microsoft-com:datatypes""><Description dt:dt=""string"">E-Prime Primary Realtime Clock</Description><StartTime><Timestamp dt:dt=""int"">0</Timestamp><DateUtc dt:dt=""string"">2014-04-29T22:44:16Z</DateUtc></StartTime><FrequencyChanges><FrequencyChange><Frequency dt:dt=""r8"">2793020000</Frequency><Timestamp dt:dt=""r8"">54296872288915</Timestamp><Current dt:dt=""r8"">0</Current><DateUtc dt:dt=""string"">2014-04-29T22:44:16Z</DateUtc></FrequencyChange></FrequencyChanges></Clock>\n",60.031,1,460110136,0,,-999999,10,48806,t,43709,92515,4/29/2014,15:44:17,,1,Session1,SessionsList,,,,,,,,,,1,1,1,3,,,,,3,1,3,,,,NonCued2,MiniBlocks1,,404163,,,4,1,r,-999999,16,457536,r,870,458406,Green,Congruent,r,White,0,,0,2,452522,,0,0,,,,,,,,,,,,,Pictures\white.bmp,4000,16000,Pictures\GreenLeft.bmp,,,,4,1,4,,,,,,,StimulusPr,Pictures\black.bmp,NonCuedStim2,Left
POP_2,27007,1,"<?xml version=""1.0""?>\n<Clock xmlns:dt=""urn:schemas-microsoft-com:datatypes""><Description dt:dt=""string"">E-Prime Primary Realtime Clock</Description><StartTime><Timestamp dt:dt=""int"">0</Timestamp><DateUtc dt:dt=""string"">2014-04-29T22:44:16Z</DateUtc></StartTime><FrequencyChanges><FrequencyChange><Frequency dt:dt=""r8"">2793020000</Frequency><Timestamp dt:dt=""r8"">54296872288915</Timestamp><Current dt:dt=""r8"">0</Current><DateUtc dt:dt=""string"">2014-04-29T22:44:16Z</DateUtc></FrequencyChange></FrequencyChanges></Clock>\n",60.031,1,460110136,0,,-999999,10,48806,t,43709,92515,4/29/2014,15:44:17,,1,Session1,SessionsList,,,,,,,,,,1,1,1,3,,,,,3,1,3,,,,NonCued2,MiniBlocks1,,404163,,,5,1,r,-999999,4,482524,r,715,483239,Green,Congruent,r,White,0,,0,8,475528,,0,0,,,,,,,,,,,,,Pictures\white.bmp,6000,4000,Pictures\GreenLeft.bmp,,,,5,1,5,,,,,,,StimulusPr,Pictures\black.bmp,NonCuedStim2,Left
POP_2,27007,1,"<?xml version=""1.0""?>\n<Clock xmlns:dt=""urn:schemas-microsoft-com:datatypes""><Description dt:dt=""string"">E-Prime Primary Realtime Clock</Description><StartTime><Timestamp dt:dt=""int"">0</Timestamp><DateUtc dt:dt=""string"">2014-04-29T22:44:16Z</DateUtc></StartTime><FrequencyChanges><FrequencyChange><Frequency dt:dt=""r8"">2793020000</Frequency><Timestamp dt:dt=""r8"">54296872288915</Timestamp><Current dt:dt=""r8"">0</Current><DateUtc dt:dt=""string"">2014-04-29T22:44:16Z</DateUtc></FrequencyChange></FrequencyChanges></Clock>\n",60.031,1,460110136,0,,-999999,10,48806,t,43709,92515,4/29/2014,15:44:17,,1,Session1,SessionsList,,,,,,,,,,1,1,1,3,,,,,3,1,3,,,,NonCued2,MiniBlocks1,,404163,,,6,1,b,-999999,3,492519,b,637,493156,Red,Incongruent,b,White,0,,0,17,488538,,0,0,,,,,,,,,,,,,Pictures\white.bmp,3000,4000,Pictures\RedLeft.bmp,,,,6,1,6,,,,,,,StimulusPr,Pictures\black.bmp,NonCuedStim2,Left
POP_2,27007,1,"<?xml version=""1.0""?>\n<Clock xmlns:dt=""urn:schemas-microsoft-com:datatypes""><Description dt:dt=""string"">E-Prime Primary Realtime Clock</Description><StartTime><Timestamp dt:dt=""int"">0</Timestamp><DateUtc dt:dt=""string"">2014-04-29T22:44:16Z</DateUtc></StartTime><FrequencyChanges><FrequencyChange><Frequency dt:dt=""r8"">2793020000</Frequency><Timestamp dt:dt=""r8"">54296872288915</Timestamp><Current dt:dt=""r8"">0</Current><DateUtc dt:dt=""string"">2014-04-29T22:44:16Z</DateUtc></FrequencyChange></FrequencyChanges></Clock>\n",60.031,1,460110136,0,,-999999,10,48806,t,43709,92515,4/29/2014,15:44:17,,1,Session1,SessionsList,,,,,,,,,,1,1,1,3,,,,,3,1,3,,,,NonCued2,MiniBlocks1,,404163,,,7,1,b,-999999,10,503530,b,454,503984,Green,Congruent,b,White,0,,0,17,498533,,0,0,,,,,,,,,,,,,Pictures\white.bmp,4000,16000,Pictures\black.bmp,,,,7,1,7,,,,,,,StimulusPr,Pictures\GreenRight.bmp,NonCuedStim2,Right
POP_2,27007,1,"<?xml version=""1.0""?>\n<Clock xmlns:dt=""urn:schemas-microsoft-com:datatypes""><Description dt:dt=""string"">E-Prime Primary Realtime Clock</Description><StartTime><Timestamp dt:dt=""int"">0</Timestamp><DateUtc dt:dt=""string"">2014-04-29T22:44:16Z</DateUtc></StartTime><FrequencyChanges><FrequencyChange><Frequency dt:dt=""r8"">2793020000</Frequency><Timestamp dt:dt=""r8"">54296872288915</Timestamp><Current dt:dt=""r8"">0</Current><DateUtc dt:dt=""string"">2014-04-29T22:44:16Z</DateUtc></FrequencyChange></FrequencyChanges></Clock>\n",60.031,1,460110136,0,,-999999,10,48806,t,43709,92515,4/29/2014,15:44:17,,1,Session1,SessionsList,,,,,,,,,,1,1,1,3,,,,,3,1,3,,,,NonCued2,MiniBlocks1,,404163,,,8,1,r,-999999,8,531516,r,498,532014,Green,Congruent,r,White,0,,0,5,521521,,0,0,,,,,,,,,,,,,Pictures\white.bmp,9000,2000,Pictures\GreenLeft.bmp,,,,8,1,8,,,,,,,StimulusPr,Pictures\black.bmp,NonCuedStim2,Left
POP_2,27007,1,"<?xml version=""1.0""?>\n<Clock xmlns:dt=""urn:schemas-microsoft-com:datatypes""><Description dt:dt=""string"">E-Prime Primary Realtime Clock</Description><StartTime><Timestamp dt:dt=""int"">0</Timestamp><DateUtc dt:dt=""string"">2014-04-29T22:44:16Z</DateUtc></StartTime><FrequencyChanges><FrequencyChange><Frequency dt:dt=""r8"">2793020000</Frequency><Timestamp dt:dt=""r8"">54296872288915</Timestamp><Current dt:dt=""r8"">0</Current><DateUtc dt:dt=""string"">2014-04-29T22:44:16Z</DateUtc></FrequencyChange></FrequencyChanges></Clock>\n",60.031,1,460110136,0,,-999999,10,48806,t,43709,92515,4/29/2014,15:44:17,,1,Session1,SessionsList,,,,,,,,,,1,1,1,3,,,,,3,1,3,,,,NonCued2,MiniBlocks1,,404163,,,9,1,b,-999999,6,539513,b,441,539954,Green,Congruent,b,White,0,,0,10,535531,,0,0,,,,,,,,,,,,,Pictures\white.bmp,3000,10000,Pictures\black.bmp,,,,9,1,9,,,,,,,StimulusPr,Pictures\GreenRight.bmp,NonCuedStim2,Right
POP_2,27007,1,"<?xml version=""1.0""?>\n<Clock xmlns:dt=""urn:schemas-microsoft-com:datatypes""><Description dt:dt=""string"">E-Prime Primary Realtime Clock</Description><StartTime><Timestamp dt:dt=""int"">0</Timestamp><DateUtc dt:dt=""string"">2014-04-29T22:44:16Z</DateUtc></StartTime><FrequencyChanges><FrequencyChange><Frequency dt:dt=""r8"">2793020000</Frequency><Timestamp dt:dt=""r8"">54296872288915</Timestamp><Current dt:dt=""r8"">0</Current><DateUtc dt:dt=""string"">2014-04-29T22:44:16Z</DateUtc></FrequencyChange></FrequencyChanges></Clock>\n",60.031,1,460110136,0,,-999999,10,48806,t,43709,92515,4/29/2014,15:44:17,,1,Session1,SessionsList,,,,,,,,,,1,1,1,3,,,,,3,1,3,,,,NonCued2,MiniBlocks1,,404163,,,10,1,b,-999999,17,555538,b,478,556016,Green,Congruent,b,White,0,,0,13,551523,,0,0,,,,,,,,,,,,,Pictures\white.bmp,3000,2000,Pictures\black.bmp,,,,10,1,10,,,,,,,StimulusPr,Pictures\GreenRight.bmp,NonCuedStim2,Right
POP_2,27007,1,"<?xml version=""1.0""?>\n<Clock xmlns:dt=""urn:schemas-microsoft-com:datatypes""><Description dt:dt=""string"">E-Prime Primary Realtime Clock</Description><StartTime><Timestamp dt:dt=""int"">0</Timestamp><DateUtc dt:dt=""string"">2014-04-29T22:44:16Z</DateUtc></StartTime><FrequencyChanges><FrequencyChange><Frequency dt:dt=""r8"">2793020000</Frequency><Timestamp dt:dt=""r8"">54296872288915</Timestamp><Current dt:dt=""r8"">0</Current><DateUtc dt:dt=""string"">2014-04-29T22:44:16Z</DateUtc></FrequencyChange></FrequencyChanges></Clock>\n",60.031,1,460110136,0,,-999999,10,48806,t,43709,92515,4/29/2014,15:44:17,,1,Session1,SessionsList,,,,,,,,,,1,1,1,4,,558037,,,4,1,4,,,,Cued2,MiniBlocks1,,,,,1,1,b,-999999,7,575528,b,441,575969,White,Congruent,b,Green,0,,0,9,568515,,0,0,,,,1,1,1,,,,,,,Pictures\green.bmp,6000,4000,Pictures\black.bmp,,,,,,,,,,,,,StimulusPr,Pictures\right.bmp,CuedStim2,Right
POP_2,27007,1,"<?xml version=""1.0""?>\n<Clock xmlns:dt=""urn:schemas-microsoft-com:datatypes""><Description dt:dt=""string"">E-Prime Primary Realtime Clock</Description><StartTime><Timestamp dt:dt=""int"">0</Timestamp><DateUtc dt:dt=""string"">2014-04-29T22:44:16Z</DateUtc></StartTime><FrequencyChanges><FrequencyChange><Frequency dt:dt=""r8"">2793020000</Frequency><Timestamp dt:dt=""r8"">54296872288915</Timestamp><Current dt:dt=""r8"">0</Current><DateUtc dt:dt=""string"">2014-04-29T22:44:16Z</DateUtc></FrequencyChange></FrequencyChanges></Clock>\n",60.031,1,460110136,0,,-999999,10,48806,t,43709,92515,4/29/2014,15:44:17,,1,Session1,SessionsList,,,,,,,,,,1,1,1,4,,558037,,,4,1,4,,,,Cued2,MiniBlocks1,,,,,2,1,b,-999999,15,591520,b,402,591922,White,Congruent,b,Green,0,,0,5,581525,,0,0,,,,2,1,2,,,,,,,Pictures\green.bmp,9000,10000,Pictures\black.bmp,,,,,,,,,,,,,StimulusPr,Pictures\right.bmp,CuedStim2,Right
POP_2,27007,1,"<?xml version=""1.0""?>\n<Clock xmlns:dt=""urn:schemas-microsoft-com:datatypes""><Description dt:dt=""string"">E-Prime Primary Realtime Clock</Description><StartTime><Timestamp dt:dt=""int"">0</Timestamp><DateUtc dt:dt=""string"">2014-04-29T22:44:16Z</DateUtc></StartTime><FrequencyChanges><FrequencyChange><Frequency dt:dt=""r8"">2793020000</Frequency><Timestamp dt:dt=""r8"">54296872288915</Timestamp><Current dt:dt=""r8"">0</Current><DateUtc dt:dt=""string"">2014-04-29T22:44:16Z</DateUtc></FrequencyChange></FrequencyChanges></Clock>\n",60.031,1,460110136,0,,-999999,10,48806,t,43709,92515,4/29/2014,15:44:17,,1,Session1,SessionsList,,,,,,,,,,1,1,1,4,,558037,,,4,1,4,,,,Cued2,MiniBlocks1,,,,,3,1,r,-999999,8,607512,r,551,608063,White,Incongruent,r,Red,0,,0,9,603514,,0,0,,,,3,1,3,,,,,,,Pictures\red.bmp,3000,2000,Pictures\black.bmp,,,,,,,,,,,,,StimulusPr,Pictures\right.bmp,CuedStim2,Right
POP_2,27007,1,"<?xml version=""1.0""?>\n<Clock xmlns:dt=""urn:schemas-microsoft-com:datatypes""><Description dt:dt=""string"">E-Prime Primary Realtime Clock</Description><StartTime><Timestamp dt:dt=""int"">0</Timestamp><DateUtc dt:dt=""string"">2014-04-29T22:44:16Z</DateUtc></StartTime><FrequencyChanges><FrequencyChange><Frequency dt:dt=""r8"">2793020000</Frequency><Timestamp dt:dt=""r8"">54296872288915</Timestamp><Current dt:dt=""r8"">0</Current><DateUtc dt:dt=""string"">2014-04-29T22:44:16Z</DateUtc></FrequencyChange></FrequencyChanges></Clock>\n",60.031,1,460110136,0,,-999999,10,48806,t,43709,92515,4/29/2014,15:44:17,,1,Session1,SessionsList,,,,,,,,,,1,1,1,4,,558037,,,4,1,4,,,,Cued2,MiniBlocks1,,,,,4,1,r,-999999,7,618523,r,618,619141,White,Congruent,r,Green,0,,0,11,611527,,0,0,,,,4,1,4,,,,,,,Pictures\green.bmp,6000,16000,Pictures\left.bmp,,,,,,,,,,,,,StimulusPr,Pictures\black.bmp,CuedStim2,Left
POP_2,27007,1,"<?xml version=""1.0""?>\n<Clock xmlns:dt=""urn:schemas-microsoft-com:datatypes""><Description dt:dt=""string"">E-Prime Primary Realtime Clock</Description><StartTime><Timestamp dt:dt=""int"">0</Timestamp><DateUtc dt:dt=""string"">2014-04-29T22:44:16Z</DateUtc></StartTime><FrequencyChanges><FrequencyChange><Frequency dt:dt=""r8"">2793020000</Frequency><Timestamp dt:dt=""r8"">54296872288915</Timestamp><Current dt:dt=""r8"">0</Current><DateUtc dt:dt=""string"">2014-04-29T22:44:16Z</DateUtc></FrequencyChange></FrequencyChanges></Clock>\n",60.031,1,460110136,0,,-999999,10,48806,t,43709,92515,4/29/2014,15:44:17,,1,Session1,SessionsList,,,,,,,,,,1,1,1,4,,558037,,,4,1,4,,,,Cued2,MiniBlocks1,,,,,5,1,b,-999999,8,640529,b,518,641047,White,Congruent,b,Green,0,,0,10,636531,,0,0,,,,5,1,5,,,,,,,Pictures\green.bmp,3000,2000,Pictures\black.bmp,,,,,,,,,,,,,StimulusPr,Pictures\right.bmp,CuedStim2,Right
POP_2,27007,1,"<?xml version=""1.0""?>\n<Clock xmlns:dt=""urn:schemas-microsoft-com:datatypes""><Description dt:dt=""string"">E-Prime Primary Realtime Clock</Description><StartTime><Timestamp dt:dt=""int"">0</Timestamp><DateUtc dt:dt=""string"">2014-04-29T22:44:16Z</DateUtc></StartTime><FrequencyChanges><FrequencyChange><Frequency dt:dt=""r8"">2793020000</Frequency><Timestamp dt:dt=""r8"">54296872288915</Timestamp><Current dt:dt=""r8"">0</Current><DateUtc dt:dt=""string"">2014-04-29T22:44:16Z</DateUtc></FrequencyChange></FrequencyChanges></Clock>\n",60.031,1,460110136,0,,-999999,10,48806,t,43709,92515,4/29/2014,15:44:17,,1,Session1,SessionsList,,,,,,,,,,1,1,1,4,,558037,,,4,1,4,,,,Cued2,MiniBlocks1,,,,,6,1,r,-999999,9,648525,r,896,649421,White,Congruent,r,Green,0,,0,6,644527,,0,0,,,,6,1,6,,,,,,,Pictures\green.bmp,3000,2000,Pictures\left.bmp,,,,,,,,,,,,,StimulusPr,Pictures\black.bmp,CuedStim2,Left
POP_2,27007,1,"<?xml version=""1.0""?>\n<Clock xmlns:dt=""urn:schemas-microsoft-com:datatypes""><Description dt:dt=""string"">E-Prime Primary Realtime Clock</Description><StartTime><Timestamp dt:dt=""int"">0</Timestamp><DateUtc dt:dt=""string"">2014-04-29T22:44:16Z</DateUtc></StartTime><FrequencyChanges><FrequencyChange><Frequency dt:dt=""r8"">2793020000</Frequency><Timestamp dt:dt=""r8"">54296872288915</Timestamp><Current dt:dt=""r8"">0</Current><DateUtc dt:dt=""string"">2014-04-29T22:44:16Z</DateUtc></FrequencyChange></FrequencyChanges></Clock>\n",60.031,1,460110136,0,,-999999,10,48806,t,43709,92515,4/29/2014,15:44:17,,1,Session1,SessionsList,,,,,,,,,,1,1,1,4,,558037,,,4,1,4,,,,Cued2,MiniBlocks1,,,,,7,1,b,-999999,15,659536,b,480,660016,White,Incongruent,b,Red,0,,0,2,652523,,0,0,,,,7,1,7,,,,,,,Pictures\red.bmp,6000,4000,Pictures\left.bmp,,,,,,,,,,,,,StimulusPr,Pictures\black.bmp,CuedStim2,Left
POP_2,27007,1,"<?xml version=""1.0""?>\n<Clock xmlns:dt=""urn:schemas-microsoft-com:datatypes""><Description dt:dt=""string"">E-Prime Primary Realtime Clock</Description><StartTime><Timestamp dt:dt=""int"">0</Timestamp><DateUtc dt:dt=""string"">2014-04-29T22:44:16Z</DateUtc></StartTime><FrequencyChanges><FrequencyChange><Frequency dt:dt=""r8"">2793020000</Frequency><Timestamp dt:dt=""r8"">54296872288915</Timestamp><Current dt:dt=""r8"">0</Current><DateUtc dt:dt=""string"">2014-04-29T22:44:16Z</DateUtc></FrequencyChange></FrequencyChanges></Clock>\n",60.031,1,460110136,0,,-999999,10,48806,t,43709,92515,4/29/2014,15:44:17,,1,Session1,SessionsList,,,,,,,,,,1,1,1,4,,558037,,,4,1,4,,,,Cued2,MiniBlocks1,,,,,8,1,b,-999999,10,670531,b,548,671079,White,Congruent,b,Green,0,,0,7,665517,,0,0,,,,8,1,8,,,,,,,Pictures\green.bmp,4000,4000,Pictures\black.bmp,,,,,,,,,,,,,StimulusPr,Pictures\right.bmp,CuedStim2,Right
POP_2,27007,1,"<?xml version=""1.0""?>\n<Clock xmlns:dt=""urn:schemas-microsoft-com:datatypes""><Description dt:dt=""string"">E-Prime Primary Realtime Clock</Description><StartTime><Timestamp dt:dt=""int"">0</Timestamp><DateUtc dt:dt=""string"">2014-04-29T22:44:16Z</DateUtc></StartTime><FrequencyChanges><FrequencyChange><Frequency dt:dt=""r8"">2793020000</Frequency><Timestamp dt:dt=""r8"">54296872288915</Timestamp><Current dt:dt=""r8"">0</Current><DateUtc dt:dt=""string"">2014-04-29T22:44:16Z</DateUtc></FrequencyChange></FrequencyChanges></Clock>\n",60.031,1,460110136,0,,-999999,10,48806,t,43709,92515,4/29/2014,15:44:17,,1,Session1,SessionsList,,,,,,,,,,1,1,1,4,,558037,,,4,1,4,,,,Cued2,MiniBlocks1,,,,,9,1,b,-999999,10,686523,b,491,687014,White,Incongruent,b,Red,0,,0,7,676528,,0,0,,,,9,1,9,,,,,,,Pictures\red.bmp,9000,10000,Pictures\left.bmp,,,,,,,,,,,,,StimulusPr,Pictures\black.bmp,CuedStim2,Left
POP_2,27007,1,"<?xml version=""1.0""?>\n<Clock xmlns:dt=""urn:schemas-microsoft-com:datatypes""><Description dt:dt=""string"">E-Prime Primary Realtime Clock</Description><StartTime><Timestamp dt:dt=""int"">0</Timestamp><DateUtc dt:dt=""string"">2014-04-29T22:44:16Z</DateUtc></StartTime><FrequencyChanges><FrequencyChange><Frequency dt:dt=""r8"">2793020000</Frequency><Timestamp dt:dt=""r8"">54296872288915</Timestamp><Current dt:dt=""r8"">0</Current><DateUtc dt:dt=""string"">2014-04-29T22:44:16Z</DateUtc></FrequencyChange></FrequencyChanges></Clock>\n",60.031,1,460110136,0,,-999999,10,48806,t,43709,92515,4/29/2014,15:44:17,,1,Session1,SessionsList,,,,,,,,,,1,1,1,4,,558037,,,4,1,4,,,,Cued2,MiniBlocks1,,,,,10,1,r,-999999,13,708529,r,550,709079,White,Congruent,r,Green,0,,0,18,698534,,0,0,,,,10,1,10,,,,,,,Pictures\green.bmp,9000,10000,Pictures\left.bmp,,,,,,,,,,,,,StimulusPr,Pictures\black.bmp,CuedStim2,Left
POP_2,27007,1,"<?xml version=""1.0""?>\n<Clock xmlns:dt=""urn:schemas-microsoft-com:datatypes""><Description dt:dt=""string"">E-Prime Primary Realtime Clock</Description><StartTime><Timestamp dt:dt=""int"">0</Timestamp><DateUtc dt:dt=""string"">2014-04-29T22:44:16Z</DateUtc></StartTime><FrequencyChanges><FrequencyChange><Frequency dt:dt=""r8"">2793020000</Frequency><Timestamp dt:dt=""r8"">54296872288915</Timestamp><Current dt:dt=""r8"">0</Current><DateUtc dt:dt=""string"">2014-04-29T22:44:16Z</DateUtc></FrequencyChange></FrequencyChanges></Clock>\n",60.031,1,460110136,0,,-999999,10,48806,t,43709,92515,4/29/2014,15:44:17,,2,Session2,SessionsList,0,,-999999,6,738897,t,35126,774023,719107,2,1,2,1,,,,,,,,1,1,1,NonCued3,MiniBlocks2,,,774030,,1,1,b,-999999,11,794053,b,698,794751,Green,Congruent,b,White,0,,0,9,784041,,0,0,,,,,,,,,,,,,Pictures\white.bmp,9000,10000,Pictures\black.bmp,,,,,,,1,1,1,,,,StimulusPr,Pictures\GreenRight.bmp,NonCuedStim3,Right
POP_2,27007,1,"<?xml version=""1.0""?>\n<Clock xmlns:dt=""urn:schemas-microsoft-com:datatypes""><Description dt:dt=""string"">E-Prime Primary Realtime Clock</Description><StartTime><Timestamp dt:dt=""int"">0</Timestamp><DateUtc dt:dt=""string"">2014-04-29T22:44:16Z</DateUtc></StartTime><FrequencyChanges><FrequencyChange><Frequency dt:dt=""r8"">2793020000</Frequency><Timestamp dt:dt=""r8"">54296872288915</Timestamp><Current dt:dt=""r8"">0</Current><DateUtc dt:dt=""string"">2014-04-29T22:44:16Z</DateUtc></FrequencyChange></FrequencyChanges></Clock>\n",60.031,1,460110136,0,,-999999,10,48806,t,43709,92515,4/29/2014,15:44:17,,2,Session2,SessionsList,0,,-999999,6,738897,t,35126,774023,719107,2,1,2,1,,,,,,,,1,1,1,NonCued3,MiniBlocks2,,,774030,,2,1,r,-999999,10,816042,r,709,816751,Red,Incongruent,r,White,0,,0,5,806047,,0,0,,,,,,,,,,,,,Pictures\white.bmp,9000,10000,Pictures\black.bmp,,,,,,,2,1,2,,,,StimulusPr,Pictures\RedRight.bmp,NonCuedStim3,Right
POP_2,27007,1,"<?xml version=""1.0""?>\n<Clock xmlns:dt=""urn:schemas-microsoft-com:datatypes""><Description dt:dt=""string"">E-Prime Primary Realtime Clock</Description><StartTime><Timestamp dt:dt=""int"">0</Timestamp><DateUtc dt:dt=""string"">2014-04-29T22:44:16Z</DateUtc></StartTime><FrequencyChanges><FrequencyChange><Frequency dt:dt=""r8"">2793020000</Frequency><Timestamp dt:dt=""r8"">54296872288915</Timestamp><Current dt:dt=""r8"">0</Current><DateUtc dt:dt=""string"">2014-04-29T22:44:16Z</DateUtc></FrequencyChange></FrequencyChanges></Clock>\n",60.031,1,460110136,0,,-999999,10,48806,t,43709,92515,4/29/2014,15:44:17,,2,Session2,SessionsList,0,,-999999,6,738897,t,35126,774023,719107,2,1,2,1,,,,,,,,1,1,1,NonCued3,MiniBlocks2,,,774030,,3,1,r,-999999,7,833050,r,511,833561,Green,Congruent,r,White,0,,0,10,828053,,0,0,,,,,,,,,,,,,Pictures\white.bmp,4000,4000,Pictures\GreenLeft.bmp,,,,,,,3,1,3,,,,StimulusPr,Pictures\black.bmp,NonCuedStim3,Left
POP_2,27007,1,"<?xml version=""1.0""?>\n<Clock xmlns:dt=""urn:schemas-microsoft-com:datatypes""><Description dt:dt=""string"">E-Prime Primary Realtime Clock</Description><StartTime><Timestamp dt:dt=""int"">0</Timestamp><DateUtc dt:dt=""string"">2014-04-29T22:44:16Z</DateUtc></StartTime><FrequencyChanges><FrequencyChange><Frequency dt:dt=""r8"">2793020000</Frequency><Timestamp dt:dt=""r8"">54296872288915</Timestamp><Current dt:dt=""r8"">0</Current><DateUtc dt:dt=""string"">2014-04-29T22:44:16Z</DateUtc></FrequencyChange></FrequencyChanges></Clock>\n",60.031,1,460110136,0,,-999999,10,48806,t,43709,92515,4/29/2014,15:44:17,,2,Session2,SessionsList,0,,-999999,6,738897,t,35126,774023,719107,2,1,2,1,,,,,,,,1,1,1,NonCued3,MiniBlocks2,,,774030,,4,1,b,-999999,19,846061,b,799,846860,Red,Incongruent,b,White,0,,0,17,839047,,0,0,,,,,,,,,,,,,Pictures\white.bmp,6000,4000,Pictures\RedLeft.bmp,,,,,,,4,1,4,,,,StimulusPr,Pictures\black.bmp,NonCuedStim3,Left
POP_2,27007,1,"<?xml version=""1.0""?>\n<Clock xmlns:dt=""urn:schemas-microsoft-com:datatypes""><Description dt:dt=""string"">E-Prime Primary Realtime Clock</Description><StartTime><Timestamp dt:dt=""int"">0</Timestamp><DateUtc dt:dt=""string"">2014-04-29T22:44:16Z</DateUtc></StartTime><FrequencyChanges><FrequencyChange><Frequency dt:dt=""r8"">2793020000</Frequency><Timestamp dt:dt=""r8"">54296872288915</Timestamp><Current dt:dt=""r8"">0</Current><DateUtc dt:dt=""string"">2014-04-29T22:44:16Z</DateUtc></FrequencyChange></FrequencyChanges></Clock>\n",60.031,1,460110136,0,,-999999,10,48806,t,43709,92515,4/29/2014,15:44:17,,2,Session2,SessionsList,0,,-999999,6,738897,t,35126,774023,719107,2,1,2,1,,,,,,,,1,1,1,NonCued3,MiniBlocks2,,,774030,,5,1,b,-999999,14,856039,b,696,856735,Green,Congruent,b,White,0,,0,15,852058,,0,0,,,,,,,,,,,,,Pictures\white.bmp,3000,2000,Pictures\black.bmp,,,,,,,5,1,5,,,,StimulusPr,Pictures\GreenRight.bmp,NonCuedStim3,Right
POP_2,27007,1,"<?xml version=""1.0""?>\n<Clock xmlns:dt=""urn:schemas-microsoft-com:datatypes""><Description dt:dt=""string"">E-Prime Primary Realtime Clock</Description><StartTime><Timestamp dt:dt=""int"">0</Timestamp><DateUtc dt:dt=""string"">2014-04-29T22:44:16Z</DateUtc></StartTime><FrequencyChanges><FrequencyChange><Frequency dt:dt=""r8"">2793020000</Frequency><Timestamp dt:dt=""r8"">54296872288915</Timestamp><Current dt:dt=""r8"">0</Current><DateUtc dt:dt=""string"">2014-04-29T22:44:16Z</DateUtc></FrequencyChange></FrequencyChanges></Clock>\n",60.031,1,460110136,0,,-999999,10,48806,t,43709,92515,4/29/2014,15:44:17,,2,Session2,SessionsList,0,,-999999,6,738897,t,35126,774023,719107,2,1,2,1,,,,,,,,1,1,1,NonCued3,MiniBlocks2,,,774030,,6,1,r,-999999,9,864052,r,465,864517,Green,Congruent,r,White,0,,0,15,860054,,0,0,,,,,,,,,,,,,Pictures\white.bmp,3000,2000,Pictures\GreenLeft.bmp,,,,,,,6,1,6,,,,StimulusPr,Pictures\black.bmp,NonCuedStim3,Left
POP_2,27007,1,"<?xml version=""1.0""?>\n<Clock xmlns:dt=""urn:schemas-microsoft-com:datatypes""><Description dt:dt=""string"">E-Prime Primary Realtime Clock</Description><StartTime><Timestamp dt:dt=""int"">0</Timestamp><DateUtc dt:dt=""string"">2014-04-29T22:44:16Z</DateUtc></StartTime><FrequencyChanges><FrequencyChange><Frequency dt:dt=""r8"">2793020000</Frequency><Timestamp dt:dt=""r8"">54296872288915</Timestamp><Current dt:dt=""r8"">0</Current><DateUtc dt:dt=""string"">2014-04-29T22:44:16Z</DateUtc></FrequencyChange></FrequencyChanges></Clock>\n",60.031,1,460110136,0,,-999999,10,48806,t,43709,92515,4/29/2014,15:44:17,,2,Session2,SessionsList,0,,-999999,6,738897,t,35126,774023,719107,2,1,2,1,,,,,,,,1,1,1,NonCued3,MiniBlocks2,,,774030,,7,1,b,-999999,3,875046,b,517,875563,Green,Congruent,b,White,0,,0,18,868050,,0,0,,,,,,,,,,,,,Pictures\white.bmp,6000,16000,Pictures\black.bmp,,,,,,,7,1,7,,,,StimulusPr,Pictures\GreenRight.bmp,NonCuedStim3,Right
POP_2,27007,1,"<?xml version=""1.0""?>\n<Clock xmlns:dt=""urn:schemas-microsoft-com:datatypes""><Description dt:dt=""string"">E-Prime Primary Realtime Clock</Description><StartTime><Timestamp dt:dt=""int"">0</Timestamp><DateUtc dt:dt=""string"">2014-04-29T22:44:16Z</DateUtc></StartTime><FrequencyChanges><FrequencyChange><Frequency dt:dt=""r8"">2793020000</Frequency><Timestamp dt:dt=""r8"">54296872288915</Timestamp><Current dt:dt=""r8"">0</Current><DateUtc dt:dt=""string"">2014-04-29T22:44:16Z</DateUtc></FrequencyChange></FrequencyChanges></Clock>\n",60.031,1,460110136,0,,-999999,10,48806,t,43709,92515,4/29/2014,15:44:17,,2,Session2,SessionsList,0,,-999999,6,738897,t,35126,774023,719107,2,1,2,1,,,,,,,,1,1,1,NonCued3,MiniBlocks2,,,774030,,8,1,r,-999999,10,897052,r,558,897610,Red,Incongruent,r,White,0,,0,12,893054,,0,0,,,,,,,,,,,,,Pictures\white.bmp,3000,2000,Pictures\black.bmp,,,,,,,8,1,8,,,,StimulusPr,Pictures\RedRight.bmp,NonCuedStim3,Right
POP_2,27007,1,"<?xml version=""1.0""?>\n<Clock xmlns:dt=""urn:schemas-microsoft-com:datatypes""><Description dt:dt=""string"">E-Prime Primary Realtime Clock</Description><StartTime><Timestamp dt:dt=""int"">0</Timestamp><DateUtc dt:dt=""string"">2014-04-29T22:44:16Z</DateUtc></StartTime><FrequencyChanges><FrequencyChange><Frequency dt:dt=""r8"">2793020000</Frequency><Timestamp dt:dt=""r8"">54296872288915</Timestamp><Current dt:dt=""r8"">0</Current><DateUtc dt:dt=""string"">2014-04-29T22:44:16Z</DateUtc></FrequencyChange></FrequencyChanges></Clock>\n",60.031,1,460110136,0,,-999999,10,48806,t,43709,92515,4/29/2014,15:44:17,,2,Session2,SessionsList,0,,-999999,6,738897,t,35126,774023,719107,2,1,2,1,,,,,,,,1,1,1,NonCued3,MiniBlocks2,,,774030,,9,1,r,-999999,13,911045,r,688,911733,Green,Congruent,r,White,0,,0,4,901033,,0,0,,,,,,,,,,,,,Pictures\white.bmp,9000,10000,Pictures\GreenLeft.bmp,,,,,,,9,1,9,,,,StimulusPr,Pictures\black.bmp,NonCuedStim3,Left
POP_2,27007,1,"<?xml version=""1.0""?>\n<Clock xmlns:dt=""urn:schemas-microsoft-com:datatypes""><Description dt:dt=""string"">E-Prime Primary Realtime Clock</Description><StartTime><Timestamp dt:dt=""int"">0</Timestamp><DateUtc dt:dt=""string"">2014-04-29T22:44:16Z</DateUtc></StartTime><FrequencyChanges><FrequencyChange><Frequency dt:dt=""r8"">2793020000</Frequency><Timestamp dt:dt=""r8"">54296872288915</Timestamp><Current dt:dt=""r8"">0</Current><DateUtc dt:dt=""string"">2014-04-29T22:44:16Z</DateUtc></FrequencyChange></FrequencyChanges></Clock>\n",60.031,1,460110136,0,,-999999,10,48806,t,43709,92515,4/29/2014,15:44:17,,2,Session2,SessionsList,0,,-999999,6,738897,t,35126,774023,719107,2,1,2,1,,,,,,,,1,1,1,NonCued3,MiniBlocks2,,,774030,,10,1,r,-999999,13,930052,r,652,930704,Green,Congruent,r,White,0,,0,13,923056,,0,0,,,,,,,,,,,,,Pictures\white.bmp,6000,4000,Pictures\GreenLeft.bmp,,,,,,,10,1,10,,,,StimulusPr,Pictures\black.bmp,NonCuedStim3,Left
POP_2,27007,1,"<?xml version=""1.0""?>\n<Clock xmlns:dt=""urn:schemas-microsoft-com:datatypes""><Description dt:dt=""string"">E-Prime Primary Realtime Clock</Description><StartTime><Timestamp dt:dt=""int"">0</Timestamp><DateUtc dt:dt=""string"">2014-04-29T22:44:16Z</DateUtc></StartTime><FrequencyChanges><FrequencyChange><Frequency dt:dt=""r8"">2793020000</Frequency><Timestamp dt:dt=""r8"">54296872288915</Timestamp><Current dt:dt=""r8"">0</Current><DateUtc dt:dt=""string"">2014-04-29T22:44:16Z</DateUtc></FrequencyChange></FrequencyChanges></Clock>\n",60.031,1,460110136,0,,-999999,10,48806,t,43709,92515,4/29/2014,15:44:17,,2,Session2,SessionsList,0,,-999999,6,738897,t,35126,774023,719107,2,1,2,2,,,934733,,,,,2,1,2,Cued3,MiniBlocks2,,,,,1,1,b,-999999,16,949059,b,395,949454,White,Congruent,b,Green,0,,0,2,945045,,0,0,,,,,,,1,1,1,,,,Pictures\green.bmp,3000,2000,Pictures\black.bmp,,,,,,,,,,,,,StimulusPr,Pictures\right.bmp,CuedStim3,Right
POP_2,27007,1,"<?xml version=""1.0""?>\n<Clock xmlns:dt=""urn:schemas-microsoft-com:datatypes""><Description dt:dt=""string"">E-Prime Primary Realtime Clock</Description><StartTime><Timestamp dt:dt=""int"">0</Timestamp><DateUtc dt:dt=""string"">2014-04-29T22:44:16Z</DateUtc></StartTime><FrequencyChanges><FrequencyChange><Frequency dt:dt=""r8"">2793020000</Frequency><Timestamp dt:dt=""r8"">54296872288915</Timestamp><Current dt:dt=""r8"">0</Current><DateUtc dt:dt=""string"">2014-04-29T22:44:16Z</DateUtc></FrequencyChange></FrequencyChanges></Clock>\n",60.031,1,460110136,0,,-999999,10,48806,t,43709,92515,4/29/2014,15:44:17,,2,Session2,SessionsList,0,,-999999,6,738897,t,35126,774023,719107,2,1,2,2,,,934733,,,,,2,1,2,Cued3,MiniBlocks2,,,,,2,1,b,-999999,13,957056,b,292,957348,White,Congruent,b,Green,0,,0,14,953057,,0,0,,,,,,,2,1,2,,,,Pictures\green.bmp,3000,10000,Pictures\black.bmp,,,,,,,,,,,,,StimulusPr,Pictures\right.bmp,CuedStim3,Right
POP_2,27007,1,"<?xml version=""1.0""?>\n<Clock xmlns:dt=""urn:schemas-microsoft-com:datatypes""><Description dt:dt=""string"">E-Prime Primary Realtime Clock</Description><StartTime><Timestamp dt:dt=""int"">0</Timestamp><DateUtc dt:dt=""string"">2014-04-29T22:44:16Z</DateUtc></StartTime><FrequencyChanges><FrequencyChange><Frequency dt:dt=""r8"">2793020000</Frequency><Timestamp dt:dt=""r8"">54296872288915</Timestamp><Current dt:dt=""r8"">0</Current><DateUtc dt:dt=""string"">2014-04-29T22:44:16Z</DateUtc></FrequencyChange></FrequencyChanges></Clock>\n",60.031,1,460110136,0,,-999999,10,48806,t,43709,92515,4/29/2014,15:44:17,,2,Session2,SessionsList,0,,-999999,6,738897,t,35126,774023,719107,2,1,2,2,,,934733,,,,,2,1,2,Cued3,MiniBlocks2,,,,,3,1,r,-999999,18,979061,r,409,979470,White,Congruent,r,Green,0,,0,7,969050,,0,0,,,,,,,3,1,3,,,,Pictures\green.bmp,9000,2000,Pictures\left.bmp,,,,,,,,,,,,,StimulusPr,Pictures\black.bmp,CuedStim3,Left
POP_2,27007,1,"<?xml version=""1.0""?>\n<Clock xmlns:dt=""urn:schemas-microsoft-com:datatypes""><Description dt:dt=""string"">E-Prime Primary Realtime Clock</Description><StartTime><Timestamp dt:dt=""int"">0</Timestamp><DateUtc dt:dt=""string"">2014-04-29T22:44:16Z</DateUtc></StartTime><FrequencyChanges><FrequencyChange><Frequency dt:dt=""r8"">2793020000</Frequency><Timestamp dt:dt=""r8"">54296872288915</Timestamp><Current dt:dt=""r8"">0</Current><DateUtc dt:dt=""string"">2014-04-29T22:44:16Z</DateUtc></FrequencyChange></FrequencyChanges></Clock>\n",60.031,1,460110136,0,,-999999,10,48806,t,43709,92515,4/29/2014,15:44:17,,2,Session2,SessionsList,0,,-999999,6,738897,t,35126,774023,719107,2,1,2,2,,,934733,,,,,2,1,2,Cued3,MiniBlocks2,,,,,4,1,r,-999999,14,988057,r,460,988517,White,Congruent,r,Green,0,,0,11,983043,,0,0,,,,,,,4,1,4,,,,Pictures\green.bmp,4000,16000,Pictures\left.bmp,,,,,,,,,,,,,StimulusPr,Pictures\black.bmp,CuedStim3,Left
POP_2,27007,1,"<?xml version=""1.0""?>\n<Clock xmlns:dt=""urn:schemas-microsoft-com:datatypes""><Description dt:dt=""string"">E-Prime Primary Realtime Clock</Description><StartTime><Timestamp dt:dt=""int"">0</Timestamp><DateUtc dt:dt=""string"">2014-04-29T22:44:16Z</DateUtc></StartTime><FrequencyChanges><FrequencyChange><Frequency dt:dt=""r8"">2793020000</Frequency><Timestamp dt:dt=""r8"">54296872288915</Timestamp><Current dt:dt=""r8"">0</Current><DateUtc dt:dt=""string"">2014-04-29T22:44:16Z</DateUtc></FrequencyChange></FrequencyChanges></Clock>\n",60.031,1,460110136,0,,-999999,10,48806,t,43709,92515,4/29/2014,15:44:17,,2,Session2,SessionsList,0,,-999999,6,738897,t,35126,774023,719107,2,1,2,2,,,934733,,,,,2,1,2,Cued3,MiniBlocks2,,,,,5,1,r,-999999,2,1010046,r,420,1010466,White,Incongruent,r,Red,0,,0,17,1006048,,0,0,,,,,,,5,1,5,,,,Pictures\red.bmp,3000,4000,Pictures\black.bmp,,,,,,,,,,,,,StimulusPr,Pictures\right.bmp,CuedStim3,Right
POP_2,27007,1,"<?xml version=""1.0""?>\n<Clock xmlns:dt=""urn:schemas-microsoft-com:datatypes""><Description dt:dt=""string"">E-Prime Primary Realtime Clock</Description><StartTime><Timestamp dt:dt=""int"">0</Timestamp><DateUtc dt:dt=""string"">2014-04-29T22:44:16Z</DateUtc></StartTime><FrequencyChanges><FrequencyChange><Frequency dt:dt=""r8"">2793020000</Frequency><Timestamp dt:dt=""r8"">54296872288915</Timestamp><Current dt:dt=""r8"">0</Current><DateUtc dt:dt=""string"">2014-04-29T22:44:16Z</DateUtc></FrequencyChange></FrequencyChanges></Clock>\n",60.031,1,460110136,0,,-999999,10,48806,t,43709,92515,4/29/2014,15:44:17,,2,Session2,SessionsList,0,,-999999,6,738897,t,35126,774023,719107,2,1,2,2,,,934733,,,,,2,1,2,Cued3,MiniBlocks2,,,,,6,1,b,-999999,12,1023056,b,664,1023720,White,Congruent,b,Green,0,,0,17,1016060,,0,0,,,,,,,6,1,6,,,,Pictures\green.bmp,6000,4000,Pictures\black.bmp,,,,,,,,,,,,,StimulusPr,Pictures\right.bmp,CuedStim3,Right
POP_2,27007,1,"<?xml version=""1.0""?>\n<Clock xmlns:dt=""urn:schemas-microsoft-com:datatypes""><Description dt:dt=""string"">E-Prime Primary Realtime Clock</Description><StartTime><Timestamp dt:dt=""int"">0</Timestamp><DateUtc dt:dt=""string"">2014-04-29T22:44:16Z</DateUtc></StartTime><FrequencyChanges><FrequencyChange><Frequency dt:dt=""r8"">2793020000</Frequency><Timestamp dt:dt=""r8"">54296872288915</Timestamp><Current dt:dt=""r8"">0</Current><DateUtc dt:dt=""string"">2014-04-29T22:44:16Z</DateUtc></FrequencyChange></FrequencyChanges></Clock>\n",60.031,1,460110136,0,,-999999,10,48806,t,43709,92515,4/29/2014,15:44:17,,2,Session2,SessionsList,0,,-999999,6,738897,t,35126,774023,719107,2,1,2,2,,,934733,,,,,2,1,2,Cued3,MiniBlocks2,,,,,7,1,r,-999999,12,1034051,r,404,1034455,White,Congruent,r,Green,0,,0,9,1029036,,0,0,,,,,,,7,1,7,,,,Pictures\green.bmp,4000,16000,Pictures\left.bmp,,,,,,,,,,,,,StimulusPr,Pictures\black.bmp,CuedStim3,Left
POP_2,27007,1,"<?xml version=""1.0""?>\n<Clock xmlns:dt=""urn:schemas-microsoft-com:datatypes""><Description dt:dt=""string"">E-Prime Primary Realtime Clock</Description><StartTime><Timestamp dt:dt=""int"">0</Timestamp><DateUtc dt:dt=""string"">2014-04-29T22:44:16Z</DateUtc></StartTime><FrequencyChanges><FrequencyChange><Frequency dt:dt=""r8"">2793020000</Frequency><Timestamp dt:dt=""r8"">54296872288915</Timestamp><Current dt:dt=""r8"">0</Current><DateUtc dt:dt=""string"">2014-04-29T22:44:16Z</DateUtc></FrequencyChange></FrequencyChanges></Clock>\n",60.031,1,460110136,0,,-999999,10,48806,t,43709,92515,4/29/2014,15:44:17,,2,Session2,SessionsList,0,,-999999,6,738897,t,35126,774023,719107,2,1,2,2,,,934733,,,,,2,1,2,Cued3,MiniBlocks2,,,,,8,1,b,-999999,13,1056056,b,492,1056548,White,Incongruent,b,Red,0,,0,15,1052058,,0,0,,,,,,,8,1,8,,,,Pictures\red.bmp,3000,2000,Pictures\left.bmp,,,,,,,,,,,,,StimulusPr,Pictures\black.bmp,CuedStim3,Left
POP_2,27007,1,"<?xml version=""1.0""?>\n<Clock xmlns:dt=""urn:schemas-microsoft-com:datatypes""><Description dt:dt=""string"">E-Prime Primary Realtime Clock</Description><StartTime><Timestamp dt:dt=""int"">0</Timestamp><DateUtc dt:dt=""string"">2014-04-29T22:44:16Z</DateUtc></StartTime><FrequencyChanges><FrequencyChange><Frequency dt:dt=""r8"">2793020000</Frequency><Timestamp dt:dt=""r8"">54296872288915</Timestamp><Current dt:dt=""r8"">0</Current><DateUtc dt:dt=""string"">2014-04-29T22:44:16Z</DateUtc></FrequencyChange></FrequencyChanges></Clock>\n",60.031,1,460110136,0,,-999999,10,48806,t,43709,92515,4/29/2014,15:44:17,,2,Session2,SessionsList,0,,-999999,6,738897,t,35126,774023,719107,2,1,2,2,,,934733,,,,,2,1,2,Cued3,MiniBlocks2,,,,,9,1,r,-999999,9,1064052,r,330,1064382,White,Congruent,r,Green,0,,0,11,1060054,,0,0,,,,,,,9,1,9,,,,Pictures\green.bmp,3000,2000,Pictures\left.bmp,,,,,,,,,,,,,StimulusPr,Pictures\black.bmp,CuedStim3,Left
POP_2,27007,1,"<?xml version=""1.0""?>\n<Clock xmlns:dt=""urn:schemas-microsoft-com:datatypes""><Description dt:dt=""string"">E-Prime Primary Realtime Clock</Description><StartTime><Timestamp dt:dt=""int"">0</Timestamp><DateUtc dt:dt=""string"">2014-04-29T22:44:16Z</DateUtc></StartTime><FrequencyChanges><FrequencyChange><Frequency dt:dt=""r8"">2793020000</Frequency><Timestamp dt:dt=""r8"">54296872288915</Timestamp><Current dt:dt=""r8"">0</Current><DateUtc dt:dt=""string"">2014-04-29T22:44:16Z</DateUtc></FrequencyChange></FrequencyChanges></Clock>\n",60.031,1,460110136,0,,-999999,10,48806,t,43709,92515,4/29/2014,15:44:17,,2,Session2,SessionsList,0,,-999999,6,738897,t,35126,774023,719107,2,1,2,2,,,934733,,,,,2,1,2,Cued3,MiniBlocks2,,,,,10,1,b,-999999,3,1078046,b,940,1078986,White,Congruent,b,Green,0,,0,7,1068050,,0,0,,,,,,,10,1,10,,,,Pictures\green.bmp,9000,10000,Pictures\black.bmp,,,,,,,,,,,,,StimulusPr,Pictures\right.bmp,CuedStim3,Right
POP_2,27007,1,"<?xml version=""1.0""?>\n<Clock xmlns:dt=""urn:schemas-microsoft-com:datatypes""><Description dt:dt=""string"">E-Prime Primary Realtime Clock</Description><StartTime><Timestamp dt:dt=""int"">0</Timestamp><DateUtc dt:dt=""string"">2014-04-29T22:44:16Z</DateUtc></StartTime><FrequencyChanges><FrequencyChange><Frequency dt:dt=""r8"">2793020000</Frequency><Timestamp dt:dt=""r8"">54296872288915</Timestamp><Current dt:dt=""r8"">0</Current><DateUtc dt:dt=""string"">2014-04-29T22:44:16Z</DateUtc></FrequencyChange></FrequencyChanges></Clock>\n",60.031,1,460110136,0,,-999999,10,48806,t,43709,92515,4/29/2014,15:44:17,,2,Session2,SessionsList,0,,-999999,6,738897,t,35126,774023,719107,2,1,2,3,,,,1089007,,,,3,1,3,Cued4,MiniBlocks2,,,,,1,1,b,-999999,11,1106048,b,438,1106486,White,Congruent,b,Green,0,,0,8,1099052,,0,0,,,,,,,,,,1,1,1,Pictures\green.bmp,6000,2000,Pictures\black.bmp,,,,,,,,,,,,,StimulusPr,Pictures\right.bmp,CuedStim4,Right
POP_2,27007,1,"<?xml version=""1.0""?>\n<Clock xmlns:dt=""urn:schemas-microsoft-com:datatypes""><Description dt:dt=""string"">E-Prime Primary Realtime Clock</Description><StartTime><Timestamp dt:dt=""int"">0</Timestamp><DateUtc dt:dt=""string"">2014-04-29T22:44:16Z</DateUtc></StartTime><FrequencyChanges><FrequencyChange><Frequency dt:dt=""r8"">2793020000</Frequency><Timestamp dt:dt=""r8"">54296872288915</Timestamp><Current dt:dt=""r8"">0</Current><DateUtc dt:dt=""string"">2014-04-29T22:44:16Z</DateUtc></FrequencyChange></FrequencyChanges></Clock>\n",60.031,1,460110136,0,,-999999,10,48806,t,43709,92515,4/29/2014,15:44:17,,2,Session2,SessionsList,0,,-999999,6,738897,t,35126,774023,719107,2,1,2,3,,,,1089007,,,,3,1,3,Cued4,MiniBlocks2,,,,,2,1,r,-999999,8,1120041,r,767,1120808,White,Incongruent,r,Red,0,,0,2,1110046,,0,0,,,,,,,,,,2,1,2,Pictures\red.bmp,9000,2000,Pictures\black.bmp,,,,,,,,,,,,,StimulusPr,Pictures\right.bmp,CuedStim4,Right
POP_2,27007,1,"<?xml version=""1.0""?>\n<Clock xmlns:dt=""urn:schemas-microsoft-com:datatypes""><Description dt:dt=""string"">E-Prime Primary Realtime Clock</Description><StartTime><Timestamp dt:dt=""int"">0</Timestamp><DateUtc dt:dt=""string"">2014-04-29T22:44:16Z</DateUtc></StartTime><FrequencyChanges><FrequencyChange><Frequency dt:dt=""r8"">2793020000</Frequency><Timestamp dt:dt=""r8"">54296872288915</Timestamp><Current dt:dt=""r8"">0</Current><DateUtc dt:dt=""string"">2014-04-29T22:44:16Z</DateUtc></FrequencyChange></FrequencyChanges></Clock>\n",60.031,1,460110136,0,,-999999,10,48806,t,43709,92515,4/29/2014,15:44:17,,2,Session2,SessionsList,0,,-999999,6,738897,t,35126,774023,719107,2,1,2,3,,,,1089007,,,,3,1,3,Cued4,MiniBlocks2,,,,,3,1,b,-999999,4,1128038,b,454,1128492,White,Congruent,b,Green,0,,0,4,1124039,,0,0,,,,,,,,,,3,1,3,Pictures\green.bmp,3000,4000,Pictures\black.bmp,,,,,,,,,,,,,StimulusPr,Pictures\right.bmp,CuedStim4,Right
POP_2,27007,1,"<?xml version=""1.0""?>\n<Clock xmlns:dt=""urn:schemas-microsoft-com:datatypes""><Description dt:dt=""string"">E-Prime Primary Realtime Clock</Description><StartTime><Timestamp dt:dt=""int"">0</Timestamp><DateUtc dt:dt=""string"">2014-04-29T22:44:16Z</DateUtc></StartTime><FrequencyChanges><FrequencyChange><Frequency dt:dt=""r8"">2793020000</Frequency><Timestamp dt:dt=""r8"">54296872288915</Timestamp><Current dt:dt=""r8"">0</Current><DateUtc dt:dt=""string"">2014-04-29T22:44:16Z</DateUtc></FrequencyChange></FrequencyChanges></Clock>\n",60.031,1,460110136,0,,-999999,10,48806,t,43709,92515,4/29/2014,15:44:17,,2,Session2,SessionsList,0,,-999999,6,738897,t,35126,774023,719107,2,1,2,3,,,,1089007,,,,3,1,3,Cued4,MiniBlocks2,,,,,4,1,r,-999999,16,1138049,r,406,1138455,White,Congruent,r,Green,0,,0,7,1134051,,0,0,,,,,,,,,,4,1,4,Pictures\green.bmp,3000,4000,Pictures\left.bmp,,,,,,,,,,,,,StimulusPr,Pictures\black.bmp,CuedStim4,Left
POP_2,27007,1,"<?xml version=""1.0""?>\n<Clock xmlns:dt=""urn:schemas-microsoft-com:datatypes""><Description dt:dt=""string"">E-Prime Primary Realtime Clock</Description><StartTime><Timestamp dt:dt=""int"">0</Timestamp><DateUtc dt:dt=""string"">2014-04-29T22:44:16Z</DateUtc></StartTime><FrequencyChanges><FrequencyChange><Frequency dt:dt=""r8"">2793020000</Frequency><Timestamp dt:dt=""r8"">54296872288915</Timestamp><Current dt:dt=""r8"">0</Current><DateUtc dt:dt=""string"">2014-04-29T22:44:16Z</DateUtc></FrequencyChange></FrequencyChanges></Clock>\n",60.031,1,460110136,0,,-999999,10,48806,t,43709,92515,4/29/2014,15:44:17,,2,Session2,SessionsList,0,,-999999,6,738897,t,35126,774023,719107,2,1,2,3,,,,1089007,,,,3,1,3,Cued4,MiniBlocks2,,,,,5,1,b,-999999,16,1149060,b,470,1149530,White,Incongruent,b,Red,0,,0,3,1144046,,0,0,,,,,,,,,,5,1,5,Pictures\red.bmp,4000,16000,Pictures\left.bmp,,,,,,,,,,,,,StimulusPr,Pictures\black.bmp,CuedStim4,Left
POP_2,27007,1,"<?xml version=""1.0""?>\n<Clock xmlns:dt=""urn:schemas-microsoft-com:datatypes""><Description dt:dt=""string"">E-Prime Primary Realtime Clock</Description><StartTime><Timestamp dt:dt=""int"">0</Timestamp><DateUtc dt:dt=""string"">2014-04-29T22:44:16Z</DateUtc></StartTime><FrequencyChanges><FrequencyChange><Frequency dt:dt=""r8"">2793020000</Frequency><Timestamp dt:dt=""r8"">54296872288915</Timestamp><Current dt:dt=""r8"">0</Current><DateUtc dt:dt=""string"">2014-04-29T22:44:16Z</DateUtc></FrequencyChange></FrequencyChanges></Clock>\n",60.031,1,460110136,0,,-999999,10,48806,t,43709,92515,4/29/2014,15:44:17,,2,Session2,SessionsList,0,,-999999,6,738897,t,35126,774023,719107,2,1,2,3,,,,1089007,,,,3,1,3,Cued4,MiniBlocks2,,,,,6,1,b,-999999,16,1171049,b,421,1171470,White,Congruent,b,Green,0,,0,8,1167051,,0,0,,,,,,,,,,6,1,6,Pictures\green.bmp,3000,2000,Pictures\black.bmp,,,,,,,,,,,,,StimulusPr,Pictures\right.bmp,CuedStim4,Right
POP_2,27007,1,"<?xml version=""1.0""?>\n<Clock xmlns:dt=""urn:schemas-microsoft-com:datatypes""><Description dt:dt=""string"">E-Prime Primary Realtime Clock</Description><StartTime><Timestamp dt:dt=""int"">0</Timestamp><DateUtc dt:dt=""string"">2014-04-29T22:44:16Z</DateUtc></StartTime><FrequencyChanges><FrequencyChange><Frequency dt:dt=""r8"">2793020000</Frequency><Timestamp dt:dt=""r8"">54296872288915</Timestamp><Current dt:dt=""r8"">0</Current><DateUtc dt:dt=""string"">2014-04-29T22:44:16Z</DateUtc></FrequencyChange></FrequencyChanges></Clock>\n",60.031,1,460110136,0,,-999999,10,48806,t,43709,92515,4/29/2014,15:44:17,,2,Session2,SessionsList,0,,-999999,6,738897,t,35126,774023,719107,2,1,2,3,,,,1089007,,,,3,1,3,Cued4,MiniBlocks2,,,,,7,1,b,-999999,15,1185059,b,380,1185439,White,Congruent,b,Green,0,,0,4,1175047,,0,0,,,,,,,,,,7,1,7,Pictures\green.bmp,9000,10000,Pictures\black.bmp,,,,,,,,,,,,,StimulusPr,Pictures\right.bmp,CuedStim4,Right
POP_2,27007,1,"<?xml version=""1.0""?>\n<Clock xmlns:dt=""urn:schemas-microsoft-com:datatypes""><Description dt:dt=""string"">E-Prime Primary Realtime Clock</Description><StartTime><Timestamp dt:dt=""int"">0</Timestamp><DateUtc dt:dt=""string"">2014-04-29T22:44:16Z</DateUtc></StartTime><FrequencyChanges><FrequencyChange><Frequency dt:dt=""r8"">2793020000</Frequency><Timestamp dt:dt=""r8"">54296872288915</Timestamp><Current dt:dt=""r8"">0</Current><DateUtc dt:dt=""string"">2014-04-29T22:44:16Z</DateUtc></FrequencyChange></FrequencyChanges></Clock>\n",60.031,1,460110136,0,,-999999,10,48806,t,43709,92515,4/29/2014,15:44:17,,2,Session2,SessionsList,0,,-999999,6,738897,t,35126,774023,719107,2,1,2,3,,,,1089007,,,,3,1,3,Cued4,MiniBlocks2,,,,,8,1,b,-999999,17,1204050,b,592,1204642,White,Incongruent,b,Red,0,,0,9,1197053,,0,0,,,,,,,,,,8,1,8,Pictures\red.bmp,6000,10000,Pictures\left.bmp,,,,,,,,,,,,,StimulusPr,Pictures\black.bmp,CuedStim4,Left
POP_2,27007,1,"<?xml version=""1.0""?>\n<Clock xmlns:dt=""urn:schemas-microsoft-com:datatypes""><Description dt:dt=""string"">E-Prime Primary Realtime Clock</Description><StartTime><Timestamp dt:dt=""int"">0</Timestamp><DateUtc dt:dt=""string"">2014-04-29T22:44:16Z</DateUtc></StartTime><FrequencyChanges><FrequencyChange><Frequency dt:dt=""r8"">2793020000</Frequency><Timestamp dt:dt=""r8"">54296872288915</Timestamp><Current dt:dt=""r8"">0</Current><DateUtc dt:dt=""string"">2014-04-29T22:44:16Z</DateUtc></FrequencyChange></FrequencyChanges></Clock>\n",60.031,1,460110136,0,,-999999,10,48806,t,43709,92515,4/29/2014,15:44:17,,2,Session2,SessionsList,0,,-999999,6,738897,t,35126,774023,719107,2,1,2,3,,,,1089007,,,,3,1,3,Cued4,MiniBlocks2,,,,,9,1,r,-999999,13,1223057,r,492,1223549,White,Congruent,r,Green,0,,0,16,1216060,,0,0,,,,,,,,,,9,1,9,Pictures\green.bmp,6000,16000,Pictures\left.bmp,,,,,,,,,,,,,StimulusPr,Pictures\black.bmp,CuedStim4,Left
POP_2,27007,1,"<?xml version=""1.0""?>\n<Clock xmlns:dt=""urn:schemas-microsoft-com:datatypes""><Description dt:dt=""string"">E-Prime Primary Realtime Clock</Description><StartTime><Timestamp dt:dt=""int"">0</Timestamp><DateUtc dt:dt=""string"">2014-04-29T22:44:16Z</DateUtc></StartTime><FrequencyChanges><FrequencyChange><Frequency dt:dt=""r8"">2793020000</Frequency><Timestamp dt:dt=""r8"">54296872288915</Timestamp><Current dt:dt=""r8"">0</Current><DateUtc dt:dt=""string"">2014-04-29T22:44:16Z</DateUtc></FrequencyChange></FrequencyChanges></Clock>\n",60.031,1,460110136,0,,-999999,10,48806,t,43709,92515,4/29/2014,15:44:17,,2,Session2,SessionsList,0,,-999999,6,738897,t,35126,774023,719107,2,1,2,3,,,,1089007,,,,3,1,3,Cued4,MiniBlocks2,,,,,10,1,r,-999999,18,1246062,r,502,1246564,White,Congruent,r,Green,0,,0,4,1241048,,0,0,,,,,,,,,,10,1,10,Pictures\green.bmp,4000,2000,Pictures\left.bmp,,,,,,,,,,,,,StimulusPr,Pictures\black.bmp,CuedStim4,Left
POP_2,27007,1,"<?xml version=""1.0""?>\n<Clock xmlns:dt=""urn:schemas-microsoft-com:datatypes""><Description dt:dt=""string"">E-Prime Primary Realtime Clock</Description><StartTime><Timestamp dt:dt=""int"">0</Timestamp><DateUtc dt:dt=""string"">2014-04-29T22:44:16Z</DateUtc></StartTime><FrequencyChanges><FrequencyChange><Frequency dt:dt=""r8"">2793020000</Frequency><Timestamp dt:dt=""r8"">54296872288915</Timestamp><Current dt:dt=""r8"">0</Current><DateUtc dt:dt=""string"">2014-04-29T22:44:16Z</DateUtc></FrequencyChange></FrequencyChanges></Clock>\n",60.031,1,460110136,0,,-999999,10,48806,t,43709,92515,4/29/2014,15:44:17,,2,Session2,SessionsList,0,,-999999,6,738897,t,35126,774023,719107,2,1,2,4,,,,,,,,4,1,4,NonCued4,MiniBlocks2,,,,1248594,1,1,r,-999999,4,1263037,r,402,1263439,Green,Congruent,r,White,0,,0,12,1259056,,0,0,,,,,,,,,,,,,Pictures\white.bmp,3000,2000,Pictures\GreenLeft.bmp,,,,,,,,,,1,1,1,StimulusPr,Pictures\black.bmp,NonCuedStim4,Left
POP_2,27007,1,"<?xml version=""1.0""?>\n<Clock xmlns:dt=""urn:schemas-microsoft-com:datatypes""><Description dt:dt=""string"">E-Prime Primary Realtime Clock</Description><StartTime><Timestamp dt:dt=""int"">0</Timestamp><DateUtc dt:dt=""string"">2014-04-29T22:44:16Z</DateUtc></StartTime><FrequencyChanges><FrequencyChange><Frequency dt:dt=""r8"">2793020000</Frequency><Timestamp dt:dt=""r8"">54296872288915</Timestamp><Current dt:dt=""r8"">0</Current><DateUtc dt:dt=""string"">2014-04-29T22:44:16Z</DateUtc></FrequencyChange></FrequencyChanges></Clock>\n",60.031,1,460110136,0,,-999999,10,48806,t,43709,92515,4/29/2014,15:44:17,,2,Session2,SessionsList,0,,-999999,6,738897,t,35126,774023,719107,2,1,2,4,,,,,,,,4,1,4,NonCued4,MiniBlocks2,,,,1248594,2,1,r,-999999,4,1272049,r,437,1272486,Green,Congruent,r,White,0,,0,7,1267052,,0,0,,,,,,,,,,,,,Pictures\white.bmp,4000,2000,Pictures\GreenLeft.bmp,,,,,,,,,,2,1,2,StimulusPr,Pictures\black.bmp,NonCuedStim4,Left
POP_2,27007,1,"<?xml version=""1.0""?>\n<Clock xmlns:dt=""urn:schemas-microsoft-com:datatypes""><Description dt:dt=""string"">E-Prime Primary Realtime Clock</Description><StartTime><Timestamp dt:dt=""int"">0</Timestamp><DateUtc dt:dt=""string"">2014-04-29T22:44:16Z</DateUtc></StartTime><FrequencyChanges><FrequencyChange><Frequency dt:dt=""r8"">2793020000</Frequency><Timestamp dt:dt=""r8"">54296872288915</Timestamp><Current dt:dt=""r8"">0</Current><DateUtc dt:dt=""string"">2014-04-29T22:44:16Z</DateUtc></FrequencyChange></FrequencyChanges></Clock>\n",60.031,1,460110136,0,,-999999,10,48806,t,43709,92515,4/29/2014,15:44:17,,2,Session2,SessionsList,0,,-999999,6,738897,t,35126,774023,719107,2,1,2,4,,,,,,,,4,1,4,NonCued4,MiniBlocks2,,,,1248594,3,1,r,-999999,17,1281062,r,752,1281814,Red,Incongruent,r,White,0,,0,2,1276047,,0,0,,,,,,,,,,,,,Pictures\white.bmp,4000,2000,Pictures\black.bmp,,,,,,,,,,3,1,3,StimulusPr,Pictures\RedRight.bmp,NonCuedStim4,Right
POP_2,27007,1,"<?xml version=""1.0""?>\n<Clock xmlns:dt=""urn:schemas-microsoft-com:datatypes""><Description dt:dt=""string"">E-Prime Primary Realtime Clock</Description><StartTime><Timestamp dt:dt=""int"">0</Timestamp><DateUtc dt:dt=""string"">2014-04-29T22:44:16Z</DateUtc></StartTime><FrequencyChanges><FrequencyChange><Frequency dt:dt=""r8"">2793020000</Frequency><Timestamp dt:dt=""r8"">54296872288915</Timestamp><Current dt:dt=""r8"">0</Current><DateUtc dt:dt=""string"">2014-04-29T22:44:16Z</DateUtc></FrequencyChange></FrequencyChanges></Clock>\n",60.031,1,460110136,0,,-999999,10,48806,t,43709,92515,4/29/2014,15:44:17,,2,Session2,SessionsList,0,,-999999,6,738897,t,35126,774023,719107,2,1,2,4,,,,,,,,4,1,4,NonCued4,MiniBlocks2,,,,1248594,4,1,b,-999999,13,1289041,b,477,1289518,Green,Congruent,b,White,0,,0,17,1285043,,0,0,,,,,,,,,,,,,Pictures\white.bmp,3000,16000,Pictures\black.bmp,,,,,,,,,,4,1,4,StimulusPr,Pictures\GreenRight.bmp,NonCuedStim4,Right
POP_2,27007,1,"<?xml version=""1.0""?>\n<Clock xmlns:dt=""urn:schemas-microsoft-com:datatypes""><Description dt:dt=""string"">E-Prime Primary Realtime Clock</Description><StartTime><Timestamp dt:dt=""int"">0</Timestamp><DateUtc dt:dt=""string"">2014-04-29T22:44:16Z</DateUtc></StartTime><FrequencyChanges><FrequencyChange><Frequency dt:dt=""r8"">2793020000</Frequency><Timestamp dt:dt=""r8"">54296872288915</Timestamp><Current dt:dt=""r8"">0</Current><DateUtc dt:dt=""string"">2014-04-29T22:44:16Z</DateUtc></FrequencyChange></FrequencyChanges></Clock>\n",60.031,1,460110136,0,,-999999,10,48806,t,43709,92515,4/29/2014,15:44:17,,2,Session2,SessionsList,0,,-999999,6,738897,t,35126,774023,719107,2,1,2,4,,,,,,,,4,1,4,NonCued4,MiniBlocks2,,,,1248594,5,1,r,-999999,16,1317060,r,426,1317486,Green,Congruent,r,White,0,,0,5,1307049,,0,0,,,,,,,,,,,,,Pictures\white.bmp,9000,10000,Pictures\GreenLeft.bmp,,,,,,,,,,5,1,5,StimulusPr,Pictures\black.bmp,NonCuedStim4,Left
POP_2,27007,1,"<?xml version=""1.0""?>\n<Clock xmlns:dt=""urn:schemas-microsoft-com:datatypes""><Description dt:dt=""string"">E-Prime Primary Realtime Clock</Description><StartTime><Timestamp dt:dt=""int"">0</Timestamp><DateUtc dt:dt=""string"">2014-04-29T22:44:16Z</DateUtc></StartTime><FrequencyChanges><FrequencyChange><Frequency dt:dt=""r8"">2793020000</Frequency><Timestamp dt:dt=""r8"">54296872288915</Timestamp><Current dt:dt=""r8"">0</Current><DateUtc dt:dt=""string"">2014-04-29T22:44:16Z</DateUtc></FrequencyChange></FrequencyChanges></Clock>\n",60.031,1,460110136,0,,-999999,10,48806,t,43709,92515,4/29/2014,15:44:17,,2,Session2,SessionsList,0,,-999999,6,738897,t,35126,774023,719107,2,1,2,4,,,,,,,,4,1,4,NonCued4,MiniBlocks2,,,,1248594,6,1,b,-999999,16,1333052,b,387,1333439,Green,Congruent,b,White,0,,0,10,1329054,,0,0,,,,,,,,,,,,,Pictures\white.bmp,3000,16000,Pictures\black.bmp,,,,,,,,,,6,1,6,StimulusPr,Pictures\GreenRight.bmp,NonCuedStim4,Right
POP_2,27007,1,"<?xml version=""1.0""?>\n<Clock xmlns:dt=""urn:schemas-microsoft-com:datatypes""><Description dt:dt=""string"">E-Prime Primary Realtime Clock</Description><StartTime><Timestamp dt:dt=""int"">0</Timestamp><DateUtc dt:dt=""string"">2014-04-29T22:44:16Z</DateUtc></StartTime><FrequencyChanges><FrequencyChange><Frequency dt:dt=""r8"">2793020000</Frequency><Timestamp dt:dt=""r8"">54296872288915</Timestamp><Current dt:dt=""r8"">0</Current><DateUtc dt:dt=""string"">2014-04-29T22:44:16Z</DateUtc></FrequencyChange></FrequencyChanges></Clock>\n",60.031,1,460110136,0,,-999999,10,48806,t,43709,92515,4/29/2014,15:44:17,,2,Session2,SessionsList,0,,-999999,6,738897,t,35126,774023,719107,2,1,2,4,,,,,,,,4,1,4,NonCued4,MiniBlocks2,,,,1248594,7,1,b,-999999,13,1355058,b,623,1355681,Red,Incongruent,b,White,0,,0,16,1351060,,0,0,,,,,,,,,,,,,Pictures\white.bmp,3000,16000,Pictures\RedLeft.bmp,,,,,,,,,,7,1,7,StimulusPr,Pictures\black.bmp,NonCuedStim4,Left
POP_2,27007,1,"<?xml version=""1.0""?>\n<Clock xmlns:dt=""urn:schemas-microsoft-com:datatypes""><Description dt:dt=""string"">E-Prime Primary Realtime Clock</Description><StartTime><Timestamp dt:dt=""int"">0</Timestamp><DateUtc dt:dt=""string"">2014-04-29T22:44:16Z</DateUtc></StartTime><FrequencyChanges><FrequencyChange><Frequency dt:dt=""r8"">2793020000</Frequency><Timestamp dt:dt=""r8"">54296872288915</Timestamp><Current dt:dt=""r8"">0</Current><DateUtc dt:dt=""string"">2014-04-29T22:44:16Z</DateUtc></FrequencyChange></FrequencyChanges></Clock>\n",60.031,1,460110136,0,,-999999,10,48806,t,43709,92515,4/29/2014,15:44:17,,2,Session2,SessionsList,0,,-999999,6,738897,t,35126,774023,719107,2,1,2,4,,,,,,,,4,1,4,NonCued4,MiniBlocks2,,,,1248594,8,1,r,-999999,2,1377047,r,564,1377611,Green,Congruent,r,White,0,,0,6,1373033,,0,0,,,,,,,,,,,,,Pictures\white.bmp,3000,2000,Pictures\GreenLeft.bmp,,,,,,,,,,8,1,8,StimulusPr,Pictures\black.bmp,NonCuedStim4,Left
POP_2,27007,1,"<?xml version=""1.0""?>\n<Clock xmlns:dt=""urn:schemas-microsoft-com:datatypes""><Description dt:dt=""string"">E-Prime Primary Realtime Clock</Description><StartTime><Timestamp dt:dt=""int"">0</Timestamp><DateUtc dt:dt=""string"">2014-04-29T22:44:16Z</DateUtc></StartTime><FrequencyChanges><FrequencyChange><Frequency dt:dt=""r8"">2793020000</Frequency><Timestamp dt:dt=""r8"">54296872288915</Timestamp><Current dt:dt=""r8"">0</Current><DateUtc dt:dt=""string"">2014-04-29T22:44:16Z</DateUtc></FrequencyChange></FrequencyChanges></Clock>\n",60.031,1,460110136,0,,-999999,10,48806,t,43709,92515,4/29/2014,15:44:17,,2,Session2,SessionsList,0,,-999999,6,738897,t,35126,774023,719107,2,1,2,4,,,,,,,,4,1,4,NonCued4,MiniBlocks2,,,,1248594,9,1,b,-999999,13,1388058,b,553,1388611,Green,Congruent,b,White,0,,0,7,1381045,,0,0,,,,,,,,,,,,,Pictures\white.bmp,6000,2000,Pictures\black.bmp,,,,,,,,,,9,1,9,StimulusPr,Pictures\GreenRight.bmp,NonCuedStim4,Right
POP_2,27007,1,"<?xml version=""1.0""?>\n<Clock xmlns:dt=""urn:schemas-microsoft-com:datatypes""><Description dt:dt=""string"">E-Prime Primary Realtime Clock</Description><StartTime><Timestamp dt:dt=""int"">0</Timestamp><DateUtc dt:dt=""string"">2014-04-29T22:44:16Z</DateUtc></StartTime><FrequencyChanges><FrequencyChange><Frequency dt:dt=""r8"">2793020000</Frequency><Timestamp dt:dt=""r8"">54296872288915</Timestamp><Current dt:dt=""r8"">0</Current><DateUtc dt:dt=""string"">2014-04-29T22:44:16Z</DateUtc></FrequencyChange></FrequencyChanges></Clock>\n",60.031,1,460110136,0,,-999999,10,48806,t,43709,92515,4/29/2014,15:44:17,,2,Session2,SessionsList,0,,-999999,6,738897,t,35126,774023,719107,2,1,2,4,,,,,,,,4,1,4,NonCued4,MiniBlocks2,,,,1248594,10,1,b,-999999,9,1397054,b,402,1397456,Green,Congruent,b,White,0,,0,11,1392056,,0,0,,,,,,,,,,,,,Pictures\white.bmp,4000,4000,Pictures\black.bmp,,,,,,,,,,10,1,10,StimulusPr,Pictures\GreenRight.bmp,NonCuedStim4,Right
