ExperimentName,Subject,Session,Clock.Information,Display.RefreshRate,Group,RandomSeed,Session1Onset.ACC,Session1Onset.CRESP,Session1Onset.DurationError,Session1Onset.OnsetDelay,Session1Onset.OnsetTime,Session1Onset.RESP,Session1Onset.RT,Session1Onset.RTTime,SessionDate,SessionTime,SessionTimeUtc,Block,Procedure[Block],Running[Block],Session2Onset.ACC,Session2Onset.CRESP,Session2Onset.DurationError,Session2Onset.OnsetDelay,Session2Onset.OnsetTime,Session2Onset.RESP,Session2Onset.RT,Session2Onset.RTTime,SessionBreak.OnsetTime,SessionsList,SessionsList.Cycle,SessionsList.Sample,Trial,CuedPrompt1.OnsetTime,CuedPrompt2.OnsetTime,CuedPrompt3.OnsetTime,CuedPrompt4.OnsetTime,MiniBlocks1,MiniBlocks1.Cycle,MiniBlocks1.Sample,MiniBlocks2,MiniBlocks2.Cycle,MiniBlocks2.Sample,Procedure[Trial],Running[Trial],UncuedPrompt1.OnsetTime,UncuedPrompt2.OnsetTime,UncuedPrompt3.OnsetTime,UncuedPrompt4.OnsetTime,SubTrial,Arrow1.ACC,Arrow1.CRESP,Arrow1.DurationError,Arrow1.OnsetDelay,Arrow1.OnsetTime,Arrow1.RESP,Arrow1.RT,Arrow1.RTTime,ArrowColor,Congruence,CorrectResp,Cue,Cue.ACC,Cue.CRESP,Cue.DurationError,Cue.OnsetDelay,Cue.OnsetTime,Cue.RESP,Cue.RT,Cue.RTTime,CuedStim1,CuedStim1.Cycle,CuedStim1.Sample,CuedStim2,CuedStim2.Cycle,CuedStim2.Sample,CuedStim3,CuedStim3.Cycle,CuedStim3.Sample,CuedStim4,CuedStim4.Cycle,CuedStim4.Sample,CueImage,JitterCue,JitterTrial,LeftImage,NonCuedStim1,NonCuedStim1.Cycle,NonCuedStim1.Sample,NonCuedStim2,NonCuedStim2.Cycle,NonCuedStim2.Sample,NonCuedStim3,NonCuedStim3.Cycle,NonCuedStim3.Sample,NonCuedStim4,NonCuedStim4.Cycle,NonCuedStim4.Sample,Procedure[SubTrial],RightImage,Running[SubTrial],Stimulus
POP_2,27040,1,"<?xml version=""1.0""?>\n<Clock xmlns:dt=""urn:schemas-microsoft-com:datatypes""><Description dt:dt=""string"">E-Prime Primary Realtime Clock</Description><StartTime><Timestamp dt:dt=""int"">0</Timestamp><DateUtc dt:dt=""string"">2014-06-08T01:01:02Z</DateUtc></StartTime><FrequencyChanges><FrequencyChange><Frequency dt:dt=""r8"">2793040000</Frequency><Timestamp dt:dt=""r8"">1.08044709683149E+15</Timestamp><Current dt:dt=""r8"">0</Current><DateUtc dt:dt=""string"">2014-06-08T01:01:02Z</DateUtc></FrequencyChange></FrequencyChanges></Clock>\n",60.03,1,1387177507,0,,-999999,15,15025,t,42824,57849,6/7/2014,18:01:02,1:01:02 AM,1,Session1,SessionsList,,,,,,,,,,1,1,1,1,,,,,,,,1,1,1,NonCued3,MiniBlocks2,,,57854,,1,1,b,-999999,11,77860,b,656,78516,Green,Congruent,b,White,0,,0,16,67865,,0,0,,,,,,,,,,,,,Pictures\white.bmp,9000,10000,Pictures\black.bmp,,,,,,,1,1,1,,,,StimulusPr,Pictures\GreenRight.bmp,NonCuedStim3,Right
POP_2,27040,1,"<?xml version=""1.0""?>\n<Clock xmlns:dt=""urn:schemas-microsoft-com:datatypes""><Description dt:dt=""string"">E-Prime Primary Realtime Clock</Description><StartTime><Timestamp dt:dt=""int"">0</Timestamp><DateUtc dt:dt=""string"">2014-06-08T01:01:02Z</DateUtc></StartTime><FrequencyChanges><FrequencyChange><Frequency dt:dt=""r8"">2793040000</Frequency><Timestamp dt:dt=""r8"">1.08044709683149E+15</Timestamp><Current dt:dt=""r8"">0</Current><DateUtc dt:dt=""string"">2014-06-08T01:01:02Z</DateUtc></FrequencyChange></FrequencyChanges></Clock>\n",60.03,1,1387177507,0,,-999999,15,15025,t,42824,57849,6/7/2014,18:01:02,1:01:02 AM,1,Session1,SessionsList,,,,,,,,,,1,1,1,1,,,,,,,,1,1,1,NonCued3,MiniBlocks2,,,57854,,2,1,r,-999999,17,99866,r,660,100526,Red,Incongruent,r,White,0,,0,5,89854,,0,0,,,,,,,,,,,,,Pictures\white.bmp,9000,10000,Pictures\black.bmp,,,,,,,2,1,2,,,,StimulusPr,Pictures\RedRight.bmp,NonCuedStim3,Right
POP_2,27040,1,"<?xml version=""1.0""?>\n<Clock xmlns:dt=""urn:schemas-microsoft-com:datatypes""><Description dt:dt=""string"">E-Prime Primary Realtime Clock</Description><StartTime><Timestamp dt:dt=""int"">0</Timestamp><DateUtc dt:dt=""string"">2014-06-08T01:01:02Z</DateUtc></StartTime><FrequencyChanges><FrequencyChange><Frequency dt:dt=""r8"">2793040000</Frequency><Timestamp dt:dt=""r8"">1.08044709683149E+15</Timestamp><Current dt:dt=""r8"">0</Current><DateUtc dt:dt=""string"">2014-06-08T01:01:02Z</DateUtc></FrequencyChange></FrequencyChanges></Clock>\n",60.03,1,1387177507,0,,-999999,15,15025,t,42824,57849,6/7/2014,18:01:02,1:01:02 AM,1,Session1,SessionsList,,,,,,,,,,1,1,1,1,,,,,,,,1,1,1,NonCued3,MiniBlocks2,,,57854,,3,1,r,-999999,8,116857,r,459,117316,Green,Congruent,r,White,0,,0,11,111860,,0,0,,,,,,,,,,,,,Pictures\white.bmp,4000,4000,Pictures\GreenLeft.bmp,,,,,,,3,1,3,,,,StimulusPr,Pictures\black.bmp,NonCuedStim3,Left
POP_2,27040,1,"<?xml version=""1.0""?>\n<Clock xmlns:dt=""urn:schemas-microsoft-com:datatypes""><Description dt:dt=""string"">E-Prime Primary Realtime Clock</Description><StartTime><Timestamp dt:dt=""int"">0</Timestamp><DateUtc dt:dt=""string"">2014-06-08T01:01:02Z</DateUtc></StartTime><FrequencyChanges><FrequencyChange><Frequency dt:dt=""r8"">2793040000</Frequency><Timestamp dt:dt=""r8"">1.08044709683149E+15</Timestamp><Current dt:dt=""r8"">0</Current><DateUtc dt:dt=""string"">2014-06-08T01:01:02Z</DateUtc></FrequencyChange></FrequencyChanges></Clock>\n",60.03,1,1387177507,0,,-999999,15,15025,t,42824,57849,6/7/2014,18:01:02,1:01:02 AM,1,Session1,SessionsList,,,,,,,,,,1,1,1,1,,,,,,,,1,1,1,NonCued3,MiniBlocks2,,,57854,,4,1,b,-999999,3,129851,b,613,130464,Red,Incongruent,b,White,0,,0,5,122854,,0,0,,,,,,,,,,,,,Pictures\white.bmp,6000,4000,Pictures\RedLeft.bmp,,,,,,,4,1,4,,,,StimulusPr,Pictures\black.bmp,NonCuedStim3,Left
POP_2,27040,1,"<?xml version=""1.0""?>\n<Clock xmlns:dt=""urn:schemas-microsoft-com:datatypes""><Description dt:dt=""string"">E-Prime Primary Realtime Clock</Description><StartTime><Timestamp dt:dt=""int"">0</Timestamp><DateUtc dt:dt=""string"">2014-06-08T01:01:02Z</DateUtc></StartTime><FrequencyChanges><FrequencyChange><Frequency dt:dt=""r8"">2793040000</Frequency><Timestamp dt:dt=""r8"">1.08044709683149E+15</Timestamp><Current dt:dt=""r8"">0</Current><DateUtc dt:dt=""string"">2014-06-08T01:01:02Z</DateUtc></FrequencyChange></FrequencyChanges></Clock>\n",60.03,1,1387177507,0,,-999999,15,15025,t,42824,57849,6/7/2014,18:01:02,1:01:02 AM,1,Session1,SessionsList,,,,,,,,,,1,1,1,1,,,,,,,,1,1,1,NonCued3,MiniBlocks2,,,57854,,5,1,b,-999999,14,139863,b,1095,140958,Green,Congruent,b,White,0,,0,16,135865,,0,0,,,,,,,,,,,,,Pictures\white.bmp,3000,2000,Pictures\black.bmp,,,,,,,5,1,5,,,,StimulusPr,Pictures\GreenRight.bmp,NonCuedStim3,Right
POP_2,27040,1,"<?xml version=""1.0""?>\n<Clock xmlns:dt=""urn:schemas-microsoft-com:datatypes""><Description dt:dt=""string"">E-Prime Primary Realtime Clock</Description><StartTime><Timestamp dt:dt=""int"">0</Timestamp><DateUtc dt:dt=""string"">2014-06-08T01:01:02Z</DateUtc></StartTime><FrequencyChanges><FrequencyChange><Frequency dt:dt=""r8"">2793040000</Frequency><Timestamp dt:dt=""r8"">1.08044709683149E+15</Timestamp><Current dt:dt=""r8"">0</Current><DateUtc dt:dt=""string"">2014-06-08T01:01:02Z</DateUtc></FrequencyChange></FrequencyChanges></Clock>\n",60.03,1,1387177507,0,,-999999,15,15025,t,42824,57849,6/7/2014,18:01:02,1:01:02 AM,1,Session1,SessionsList,,,,,,,,,,1,1,1,1,,,,,,,,1,1,1,NonCued3,MiniBlocks2,,,57854,,6,1,r,-999999,9,148858,r,735,149593,Green,Congruent,r,White,0,,0,11,144860,,0,0,,,,,,,,,,,,,Pictures\white.bmp,3000,2000,Pictures\GreenLeft.bmp,,,,,,,6,1,6,,,,StimulusPr,Pictures\black.bmp,NonCuedStim3,Left
POP_2,27040,1,"<?xml version=""1.0""?>\n<Clock xmlns:dt=""urn:schemas-microsoft-com:datatypes""><Description dt:dt=""string"">E-Prime Primary Realtime Clock</Description><StartTime><Timestamp dt:dt=""int"">0</Timestamp><DateUtc dt:dt=""string"">2014-06-08T01:01:02Z</DateUtc></StartTime><FrequencyChanges><FrequencyChange><Frequency dt:dt=""r8"">2793040000</Frequency><Timestamp dt:dt=""r8"">1.08044709683149E+15</Timestamp><Current dt:dt=""r8"">0</Current><DateUtc dt:dt=""string"">2014-06-08T01:01:02Z</DateUtc></FrequencyChange></FrequencyChanges></Clock>\n",60.03,1,1387177507,0,,-999999,15,15025,t,42824,57849,6/7/2014,18:01:02,1:01:02 AM,1,Session1,SessionsList,,,,,,,,,,1,1,1,1,,,,,,,,1,1,1,NonCued3,MiniBlocks2,,,57854,,7,1,b,-999999,5,159853,b,690,160543,Green,Congruent,b,White,0,,0,7,152856,,0,0,,,,,,,,,,,,,Pictures\white.bmp,6000,16000,Pictures\black.bmp,,,,,,,7,1,7,,,,StimulusPr,Pictures\GreenRight.bmp,NonCuedStim3,Right
POP_2,27040,1,"<?xml version=""1.0""?>\n<Clock xmlns:dt=""urn:schemas-microsoft-com:datatypes""><Description dt:dt=""string"">E-Prime Primary Realtime Clock</Description><StartTime><Timestamp dt:dt=""int"">0</Timestamp><DateUtc dt:dt=""string"">2014-06-08T01:01:02Z</DateUtc></StartTime><FrequencyChanges><FrequencyChange><Frequency dt:dt=""r8"">2793040000</Frequency><Timestamp dt:dt=""r8"">1.08044709683149E+15</Timestamp><Current dt:dt=""r8"">0</Current><DateUtc dt:dt=""string"">2014-06-08T01:01:02Z</DateUtc></FrequencyChange></FrequencyChanges></Clock>\n",60.03,1,1387177507,0,,-999999,15,15025,t,42824,57849,6/7/2014,18:01:02,1:01:02 AM,1,Session1,SessionsList,,,,,,,,,,1,1,1,1,,,,,,,,1,1,1,NonCued3,MiniBlocks2,,,57854,,8,1,r,-999999,9,181858,r,1018,182876,Red,Incongruent,r,White,0,,0,11,177860,,0,0,,,,,,,,,,,,,Pictures\white.bmp,3000,2000,Pictures\black.bmp,,,,,,,8,1,8,,,,StimulusPr,Pictures\RedRight.bmp,NonCuedStim3,Right
POP_2,27040,1,"<?xml version=""1.0""?>\n<Clock xmlns:dt=""urn:schemas-microsoft-com:datatypes""><Description dt:dt=""string"">E-Prime Primary Realtime Clock</Description><StartTime><Timestamp dt:dt=""int"">0</Timestamp><DateUtc dt:dt=""string"">2014-06-08T01:01:02Z</DateUtc></StartTime><FrequencyChanges><FrequencyChange><Frequency dt:dt=""r8"">2793040000</Frequency><Timestamp dt:dt=""r8"">1.08044709683149E+15</Timestamp><Current dt:dt=""r8"">0</Current><DateUtc dt:dt=""string"">2014-06-08T01:01:02Z</DateUtc></FrequencyChange></FrequencyChanges></Clock>\n",60.03,1,1387177507,0,,-999999,15,15025,t,42824,57849,6/7/2014,18:01:02,1:01:02 AM,1,Session1,SessionsList,,,,,,,,,,1,1,1,1,,,,,,,,1,1,1,NonCued3,MiniBlocks2,,,57854,,9,1,r,-999999,18,196867,r,635,197502,Green,Congruent,r,White,0,,0,7,186856,,0,0,,,,,,,,,,,,,Pictures\white.bmp,9000,10000,Pictures\GreenLeft.bmp,,,,,,,9,1,9,,,,StimulusPr,Pictures\black.bmp,NonCuedStim3,Left
POP_2,27040,1,"<?xml version=""1.0""?>\n<Clock xmlns:dt=""urn:schemas-microsoft-com:datatypes""><Description dt:dt=""string"">E-Prime Primary Realtime Clock</Description><StartTime><Timestamp dt:dt=""int"">0</Timestamp><DateUtc dt:dt=""string"">2014-06-08T01:01:02Z</DateUtc></StartTime><FrequencyChanges><FrequencyChange><Frequency dt:dt=""r8"">2793040000</Frequency><Timestamp dt:dt=""r8"">1.08044709683149E+15</Timestamp><Current dt:dt=""r8"">0</Current><DateUtc dt:dt=""string"">2014-06-08T01:01:02Z</DateUtc></FrequencyChange></FrequencyChanges></Clock>\n",60.03,1,1387177507,0,,-999999,15,15025,t,42824,57849,6/7/2014,18:01:02,1:01:02 AM,1,Session1,SessionsList,,,,,,,,,,1,1,1,1,,,,,,,,1,1,1,NonCued3,MiniBlocks2,,,57854,,10,1,r,-999999,9,215858,r,681,216539,Green,Congruent,r,White,0,,0,12,208861,,0,0,,,,,,,,,,,,,Pictures\white.bmp,6000,4000,Pictures\GreenLeft.bmp,,,,,,,10,1,10,,,,StimulusPr,Pictures\black.bmp,NonCuedStim3,Left
POP_2,27040,1,"<?xml version=""1.0""?>\n<Clock xmlns:dt=""urn:schemas-microsoft-com:datatypes""><Description dt:dt=""string"">E-Prime Primary Realtime Clock</Description><StartTime><Timestamp dt:dt=""int"">0</Timestamp><DateUtc dt:dt=""string"">2014-06-08T01:01:02Z</DateUtc></StartTime><FrequencyChanges><FrequencyChange><Frequency dt:dt=""r8"">2793040000</Frequency><Timestamp dt:dt=""r8"">1.08044709683149E+15</Timestamp><Current dt:dt=""r8"">0</Current><DateUtc dt:dt=""string"">2014-06-08T01:01:02Z</DateUtc></FrequencyChange></FrequencyChanges></Clock>\n",60.03,1,1387177507,0,,-999999,15,15025,t,42824,57849,6/7/2014,18:01:02,1:01:02 AM,1,Session1,SessionsList,,,,,,,,,,1,1,1,2,,,220555,,,,,2,1,2,Cued3,MiniBlocks2,,,,,1,1,b,-999999,17,234865,b,652,235517,White,Congruent,b,Green,0,,0,2,230850,,0,0,,,,,,,1,1,1,,,,Pictures\green.bmp,3000,2000,Pictures\black.bmp,,,,,,,,,,,,,StimulusPr,Pictures\right.bmp,CuedStim3,Right
POP_2,27040,1,"<?xml version=""1.0""?>\n<Clock xmlns:dt=""urn:schemas-microsoft-com:datatypes""><Description dt:dt=""string"">E-Prime Primary Realtime Clock</Description><StartTime><Timestamp dt:dt=""int"">0</Timestamp><DateUtc dt:dt=""string"">2014-06-08T01:01:02Z</DateUtc></StartTime><FrequencyChanges><FrequencyChange><Frequency dt:dt=""r8"">2793040000</Frequency><Timestamp dt:dt=""r8"">1.08044709683149E+15</Timestamp><Current dt:dt=""r8"">0</Current><DateUtc dt:dt=""string"">2014-06-08T01:01:02Z</DateUtc></FrequencyChange></FrequencyChanges></Clock>\n",60.03,1,1387177507,0,,-999999,15,15025,t,42824,57849,6/7/2014,18:01:02,1:01:02 AM,1,Session1,SessionsList,,,,,,,,,,1,1,1,2,,,220555,,,,,2,1,2,Cued3,MiniBlocks2,,,,,2,1,b,-999999,13,242861,b,322,243183,White,Congruent,b,Green,0,,0,15,238863,,0,0,,,,,,,2,1,2,,,,Pictures\green.bmp,3000,10000,Pictures\black.bmp,,,,,,,,,,,,,StimulusPr,Pictures\right.bmp,CuedStim3,Right
POP_2,27040,1,"<?xml version=""1.0""?>\n<Clock xmlns:dt=""urn:schemas-microsoft-com:datatypes""><Description dt:dt=""string"">E-Prime Primary Realtime Clock</Description><StartTime><Timestamp dt:dt=""int"">0</Timestamp><DateUtc dt:dt=""string"">2014-06-08T01:01:02Z</DateUtc></StartTime><FrequencyChanges><FrequencyChange><Frequency dt:dt=""r8"">2793040000</Frequency><Timestamp dt:dt=""r8"">1.08044709683149E+15</Timestamp><Current dt:dt=""r8"">0</Current><DateUtc dt:dt=""string"">2014-06-08T01:01:02Z</DateUtc></FrequencyChange></FrequencyChanges></Clock>\n",60.03,1,1387177507,0,,-999999,15,15025,t,42824,57849,6/7/2014,18:01:02,1:01:02 AM,1,Session1,SessionsList,,,,,,,,,,1,1,1,2,,,220555,,,,,2,1,2,Cued3,MiniBlocks2,,,,,3,1,r,-999999,17,264866,r,454,265320,White,Congruent,r,Green,0,,0,7,254855,,0,0,,,,,,,3,1,3,,,,Pictures\green.bmp,9000,2000,Pictures\left.bmp,,,,,,,,,,,,,StimulusPr,Pictures\black.bmp,CuedStim3,Left
POP_2,27040,1,"<?xml version=""1.0""?>\n<Clock xmlns:dt=""urn:schemas-microsoft-com:datatypes""><Description dt:dt=""string"">E-Prime Primary Realtime Clock</Description><StartTime><Timestamp dt:dt=""int"">0</Timestamp><DateUtc dt:dt=""string"">2014-06-08T01:01:02Z</DateUtc></StartTime><FrequencyChanges><FrequencyChange><Frequency dt:dt=""r8"">2793040000</Frequency><Timestamp dt:dt=""r8"">1.08044709683149E+15</Timestamp><Current dt:dt=""r8"">0</Current><DateUtc dt:dt=""string"">2014-06-08T01:01:02Z</DateUtc></FrequencyChange></FrequencyChanges></Clock>\n",60.03,1,1387177507,0,,-999999,15,15025,t,42824,57849,6/7/2014,18:01:02,1:01:02 AM,1,Session1,SessionsList,,,,,,,,,,1,1,1,2,,,220555,,,,,2,1,2,Cued3,MiniBlocks2,,,,,4,1,r,-999999,13,273862,r,586,274448,White,Congruent,r,Green,0,,0,15,268864,,0,0,,,,,,,4,1,4,,,,Pictures\green.bmp,4000,16000,Pictures\left.bmp,,,,,,,,,,,,,StimulusPr,Pictures\black.bmp,CuedStim3,Left
POP_2,27040,1,"<?xml version=""1.0""?>\n<Clock xmlns:dt=""urn:schemas-microsoft-com:datatypes""><Description dt:dt=""string"">E-Prime Primary Realtime Clock</Description><StartTime><Timestamp dt:dt=""int"">0</Timestamp><DateUtc dt:dt=""string"">2014-06-08T01:01:02Z</DateUtc></StartTime><FrequencyChanges><FrequencyChange><Frequency dt:dt=""r8"">2793040000</Frequency><Timestamp dt:dt=""r8"">1.08044709683149E+15</Timestamp><Current dt:dt=""r8"">0</Current><DateUtc dt:dt=""string"">2014-06-08T01:01:02Z</DateUtc></FrequencyChange></FrequencyChanges></Clock>\n",60.03,1,1387177507,0,,-999999,15,15025,t,42824,57849,6/7/2014,18:01:02,1:01:02 AM,1,Session1,SessionsList,,,,,,,,,,1,1,1,2,,,220555,,,,,2,1,2,Cued3,MiniBlocks2,,,,,5,1,r,-999999,2,295851,r,664,296515,White,Incongruent,r,Red,0,,0,4,291853,,0,0,,,,,,,5,1,5,,,,Pictures\red.bmp,3000,4000,Pictures\black.bmp,,,,,,,,,,,,,StimulusPr,Pictures\right.bmp,CuedStim3,Right
POP_2,27040,1,"<?xml version=""1.0""?>\n<Clock xmlns:dt=""urn:schemas-microsoft-com:datatypes""><Description dt:dt=""string"">E-Prime Primary Realtime Clock</Description><StartTime><Timestamp dt:dt=""int"">0</Timestamp><DateUtc dt:dt=""string"">2014-06-08T01:01:02Z</DateUtc></StartTime><FrequencyChanges><FrequencyChange><Frequency dt:dt=""r8"">2793040000</Frequency><Timestamp dt:dt=""r8"">1.08044709683149E+15</Timestamp><Current dt:dt=""r8"">0</Current><DateUtc dt:dt=""string"">2014-06-08T01:01:02Z</DateUtc></FrequencyChange></FrequencyChanges></Clock>\n",60.03,1,1387177507,0,,-999999,15,15025,t,42824,57849,6/7/2014,18:01:02,1:01:02 AM,1,Session1,SessionsList,,,,,,,,,,1,1,1,2,,,220555,,,,,2,1,2,Cued3,MiniBlocks2,,,,,6,1,b,-999999,13,308861,b,1300,310161,White,Congruent,b,Green,0,,0,16,301864,,0,0,,,,,,,6,1,6,,,,Pictures\green.bmp,6000,4000,Pictures\black.bmp,,,,,,,,,,,,,StimulusPr,Pictures\right.bmp,CuedStim3,Right
POP_2,27040,1,"<?xml version=""1.0""?>\n<Clock xmlns:dt=""urn:schemas-microsoft-com:datatypes""><Description dt:dt=""string"">E-Prime Primary Realtime Clock</Description><StartTime><Timestamp dt:dt=""int"">0</Timestamp><DateUtc dt:dt=""string"">2014-06-08T01:01:02Z</DateUtc></StartTime><FrequencyChanges><FrequencyChange><Frequency dt:dt=""r8"">2793040000</Frequency><Timestamp dt:dt=""r8"">1.08044709683149E+15</Timestamp><Current dt:dt=""r8"">0</Current><DateUtc dt:dt=""string"">2014-06-08T01:01:02Z</DateUtc></FrequencyChange></FrequencyChanges></Clock>\n",60.03,1,1387177507,0,,-999999,15,15025,t,42824,57849,6/7/2014,18:01:02,1:01:02 AM,1,Session1,SessionsList,,,,,,,,,,1,1,1,2,,,220555,,,,,2,1,2,Cued3,MiniBlocks2,,,,,7,1,r,-999999,7,320855,r,665,321520,White,Congruent,r,Green,0,,0,9,315857,,0,0,,,,,,,7,1,7,,,,Pictures\green.bmp,4000,16000,Pictures\left.bmp,,,,,,,,,,,,,StimulusPr,Pictures\black.bmp,CuedStim3,Left
POP_2,27040,1,"<?xml version=""1.0""?>\n<Clock xmlns:dt=""urn:schemas-microsoft-com:datatypes""><Description dt:dt=""string"">E-Prime Primary Realtime Clock</Description><StartTime><Timestamp dt:dt=""int"">0</Timestamp><DateUtc dt:dt=""string"">2014-06-08T01:01:02Z</DateUtc></StartTime><FrequencyChanges><FrequencyChange><Frequency dt:dt=""r8"">2793040000</Frequency><Timestamp dt:dt=""r8"">1.08044709683149E+15</Timestamp><Current dt:dt=""r8"">0</Current><DateUtc dt:dt=""string"">2014-06-08T01:01:02Z</DateUtc></FrequencyChange></FrequencyChanges></Clock>\n",60.03,1,1387177507,0,,-999999,15,15025,t,42824,57849,6/7/2014,18:01:02,1:01:02 AM,1,Session1,SessionsList,,,,,,,,,,1,1,1,2,,,220555,,,,,2,1,2,Cued3,MiniBlocks2,,,,,8,1,b,-999999,7,342844,b,817,343661,White,Incongruent,b,Red,0,,0,14,338862,,0,0,,,,,,,8,1,8,,,,Pictures\red.bmp,3000,2000,Pictures\left.bmp,,,,,,,,,,,,,StimulusPr,Pictures\black.bmp,CuedStim3,Left
POP_2,27040,1,"<?xml version=""1.0""?>\n<Clock xmlns:dt=""urn:schemas-microsoft-com:datatypes""><Description dt:dt=""string"">E-Prime Primary Realtime Clock</Description><StartTime><Timestamp dt:dt=""int"">0</Timestamp><DateUtc dt:dt=""string"">2014-06-08T01:01:02Z</DateUtc></StartTime><FrequencyChanges><FrequencyChange><Frequency dt:dt=""r8"">2793040000</Frequency><Timestamp dt:dt=""r8"">1.08044709683149E+15</Timestamp><Current dt:dt=""r8"">0</Current><DateUtc dt:dt=""string"">2014-06-08T01:01:02Z</DateUtc></FrequencyChange></FrequencyChanges></Clock>\n",60.03,1,1387177507,0,,-999999,15,15025,t,42824,57849,6/7/2014,18:01:02,1:01:02 AM,1,Session1,SessionsList,,,,,,,,,,1,1,1,2,,,220555,,,,,2,1,2,Cued3,MiniBlocks2,,,,,9,1,r,-999999,8,350856,r,405,351261,White,Congruent,r,Green,0,,0,9,346858,,0,0,,,,,,,9,1,9,,,,Pictures\green.bmp,3000,2000,Pictures\left.bmp,,,,,,,,,,,,,StimulusPr,Pictures\black.bmp,CuedStim3,Left
POP_2,27040,1,"<?xml version=""1.0""?>\n<Clock xmlns:dt=""urn:schemas-microsoft-com:datatypes""><Description dt:dt=""string"">E-Prime Primary Realtime Clock</Description><StartTime><Timestamp dt:dt=""int"">0</Timestamp><DateUtc dt:dt=""string"">2014-06-08T01:01:02Z</DateUtc></StartTime><FrequencyChanges><FrequencyChange><Frequency dt:dt=""r8"">2793040000</Frequency><Timestamp dt:dt=""r8"">1.08044709683149E+15</Timestamp><Current dt:dt=""r8"">0</Current><DateUtc dt:dt=""string"">2014-06-08T01:01:02Z</DateUtc></FrequencyChange></FrequencyChanges></Clock>\n",60.03,1,1387177507,0,,-999999,15,15025,t,42824,57849,6/7/2014,18:01:02,1:01:02 AM,1,Session1,SessionsList,,,,,,,,,,1,1,1,2,,,220555,,,,,2,1,2,Cued3,MiniBlocks2,,,,,10,1,b,-999999,18,364866,b,691,365557,White,Congruent,b,Green,0,,0,5,354854,,0,0,,,,,,,10,1,10,,,,Pictures\green.bmp,9000,10000,Pictures\black.bmp,,,,,,,,,,,,,StimulusPr,Pictures\right.bmp,CuedStim3,Right
POP_2,27040,1,"<?xml version=""1.0""?>\n<Clock xmlns:dt=""urn:schemas-microsoft-com:datatypes""><Description dt:dt=""string"">E-Prime Primary Realtime Clock</Description><StartTime><Timestamp dt:dt=""int"">0</Timestamp><DateUtc dt:dt=""string"">2014-06-08T01:01:02Z</DateUtc></StartTime><FrequencyChanges><FrequencyChange><Frequency dt:dt=""r8"">2793040000</Frequency><Timestamp dt:dt=""r8"">1.08044709683149E+15</Timestamp><Current dt:dt=""r8"">0</Current><DateUtc dt:dt=""string"">2014-06-08T01:01:02Z</DateUtc></FrequencyChange></FrequencyChanges></Clock>\n",60.03,1,1387177507,0,,-999999,15,15025,t,42824,57849,6/7/2014,18:01:02,1:01:02 AM,1,Session1,SessionsList,,,,,,,,,,1,1,1,3,,,,375577,,,,3,1,3,Cued4,MiniBlocks2,,,,,1,1,b,-999999,4,392852,b,424,393276,White,Congruent,b,Green,0,,0,12,385856,,0,0,,,,,,,,,,1,1,1,Pictures\green.bmp,6000,2000,Pictures\black.bmp,,,,,,,,,,,,,StimulusPr,Pictures\right.bmp,CuedStim4,Right
POP_2,27040,1,"<?xml version=""1.0""?>\n<Clock xmlns:dt=""urn:schemas-microsoft-com:datatypes""><Description dt:dt=""string"">E-Prime Primary Realtime Clock</Description><StartTime><Timestamp dt:dt=""int"">0</Timestamp><DateUtc dt:dt=""string"">2014-06-08T01:01:02Z</DateUtc></StartTime><FrequencyChanges><FrequencyChange><Frequency dt:dt=""r8"">2793040000</Frequency><Timestamp dt:dt=""r8"">1.08044709683149E+15</Timestamp><Current dt:dt=""r8"">0</Current><DateUtc dt:dt=""string"">2014-06-08T01:01:02Z</DateUtc></FrequencyChange></FrequencyChanges></Clock>\n",60.03,1,1387177507,0,,-999999,15,15025,t,42824,57849,6/7/2014,18:01:02,1:01:02 AM,1,Session1,SessionsList,,,,,,,,,,1,1,1,3,,,,375577,,,,3,1,3,Cued4,MiniBlocks2,,,,,2,1,r,-999999,14,406862,r,1423,408285,White,Incongruent,r,Red,0,,0,2,396850,,0,0,,,,,,,,,,2,1,2,Pictures\red.bmp,9000,2000,Pictures\black.bmp,,,,,,,,,,,,,StimulusPr,Pictures\right.bmp,CuedStim4,Right
POP_2,27040,1,"<?xml version=""1.0""?>\n<Clock xmlns:dt=""urn:schemas-microsoft-com:datatypes""><Description dt:dt=""string"">E-Prime Primary Realtime Clock</Description><StartTime><Timestamp dt:dt=""int"">0</Timestamp><DateUtc dt:dt=""string"">2014-06-08T01:01:02Z</DateUtc></StartTime><FrequencyChanges><FrequencyChange><Frequency dt:dt=""r8"">2793040000</Frequency><Timestamp dt:dt=""r8"">1.08044709683149E+15</Timestamp><Current dt:dt=""r8"">0</Current><DateUtc dt:dt=""string"">2014-06-08T01:01:02Z</DateUtc></FrequencyChange></FrequencyChanges></Clock>\n",60.03,1,1387177507,0,,-999999,15,15025,t,42824,57849,6/7/2014,18:01:02,1:01:02 AM,1,Session1,SessionsList,,,,,,,,,,1,1,1,3,,,,375577,,,,3,1,3,Cued4,MiniBlocks2,,,,,3,1,b,-999999,9,415857,b,572,416429,White,Congruent,b,Green,0,,0,11,411859,,0,0,,,,,,,,,,3,1,3,Pictures\green.bmp,3000,4000,Pictures\black.bmp,,,,,,,,,,,,,StimulusPr,Pictures\right.bmp,CuedStim4,Right
POP_2,27040,1,"<?xml version=""1.0""?>\n<Clock xmlns:dt=""urn:schemas-microsoft-com:datatypes""><Description dt:dt=""string"">E-Prime Primary Realtime Clock</Description><StartTime><Timestamp dt:dt=""int"">0</Timestamp><DateUtc dt:dt=""string"">2014-06-08T01:01:02Z</DateUtc></StartTime><FrequencyChanges><FrequencyChange><Frequency dt:dt=""r8"">2793040000</Frequency><Timestamp dt:dt=""r8"">1.08044709683149E+15</Timestamp><Current dt:dt=""r8"">0</Current><DateUtc dt:dt=""string"">2014-06-08T01:01:02Z</DateUtc></FrequencyChange></FrequencyChanges></Clock>\n",60.03,1,1387177507,0,,-999999,15,15025,t,42824,57849,6/7/2014,18:01:02,1:01:02 AM,1,Session1,SessionsList,,,,,,,,,,1,1,1,3,,,,375577,,,,3,1,3,Cued4,MiniBlocks2,,,,,4,1,r,-999999,4,425852,r,572,426424,White,Congruent,r,Green,0,,0,6,421854,,0,0,,,,,,,,,,4,1,4,Pictures\green.bmp,3000,4000,Pictures\left.bmp,,,,,,,,,,,,,StimulusPr,Pictures\black.bmp,CuedStim4,Left
POP_2,27040,1,"<?xml version=""1.0""?>\n<Clock xmlns:dt=""urn:schemas-microsoft-com:datatypes""><Description dt:dt=""string"">E-Prime Primary Realtime Clock</Description><StartTime><Timestamp dt:dt=""int"">0</Timestamp><DateUtc dt:dt=""string"">2014-06-08T01:01:02Z</DateUtc></StartTime><FrequencyChanges><FrequencyChange><Frequency dt:dt=""r8"">2793040000</Frequency><Timestamp dt:dt=""r8"">1.08044709683149E+15</Timestamp><Current dt:dt=""r8"">0</Current><DateUtc dt:dt=""string"">2014-06-08T01:01:02Z</DateUtc></FrequencyChange></FrequencyChanges></Clock>\n",60.03,1,1387177507,0,,-999999,15,15025,t,42824,57849,6/7/2014,18:01:02,1:01:02 AM,1,Session1,SessionsList,,,,,,,,,,1,1,1,3,,,,375577,,,,3,1,3,Cued4,MiniBlocks2,,,,,5,1,b,-999999,14,436863,b,832,437695,White,Incongruent,b,Red,0,,0,18,431866,,0,0,,,,,,,,,,5,1,5,Pictures\red.bmp,4000,16000,Pictures\left.bmp,,,,,,,,,,,,,StimulusPr,Pictures\black.bmp,CuedStim4,Left
POP_2,27040,1,"<?xml version=""1.0""?>\n<Clock xmlns:dt=""urn:schemas-microsoft-com:datatypes""><Description dt:dt=""string"">E-Prime Primary Realtime Clock</Description><StartTime><Timestamp dt:dt=""int"">0</Timestamp><DateUtc dt:dt=""string"">2014-06-08T01:01:02Z</DateUtc></StartTime><FrequencyChanges><FrequencyChange><Frequency dt:dt=""r8"">2793040000</Frequency><Timestamp dt:dt=""r8"">1.08044709683149E+15</Timestamp><Current dt:dt=""r8"">0</Current><DateUtc dt:dt=""string"">2014-06-08T01:01:02Z</DateUtc></FrequencyChange></FrequencyChanges></Clock>\n",60.03,1,1387177507,0,,-999999,15,15025,t,42824,57849,6/7/2014,18:01:02,1:01:02 AM,1,Session1,SessionsList,,,,,,,,,,1,1,1,3,,,,375577,,,,3,1,3,Cued4,MiniBlocks2,,,,,6,1,b,-999999,4,458852,b,340,459192,White,Congruent,b,Green,0,,0,6,454854,,0,0,,,,,,,,,,6,1,6,Pictures\green.bmp,3000,2000,Pictures\black.bmp,,,,,,,,,,,,,StimulusPr,Pictures\right.bmp,CuedStim4,Right
POP_2,27040,1,"<?xml version=""1.0""?>\n<Clock xmlns:dt=""urn:schemas-microsoft-com:datatypes""><Description dt:dt=""string"">E-Prime Primary Realtime Clock</Description><StartTime><Timestamp dt:dt=""int"">0</Timestamp><DateUtc dt:dt=""string"">2014-06-08T01:01:02Z</DateUtc></StartTime><FrequencyChanges><FrequencyChange><Frequency dt:dt=""r8"">2793040000</Frequency><Timestamp dt:dt=""r8"">1.08044709683149E+15</Timestamp><Current dt:dt=""r8"">0</Current><DateUtc dt:dt=""string"">2014-06-08T01:01:02Z</DateUtc></FrequencyChange></FrequencyChanges></Clock>\n",60.03,1,1387177507,0,,-999999,15,15025,t,42824,57849,6/7/2014,18:01:02,1:01:02 AM,1,Session1,SessionsList,,,,,,,,,,1,1,1,3,,,,375577,,,,3,1,3,Cued4,MiniBlocks2,,,,,7,1,b,-999999,14,472862,b,555,473417,White,Congruent,b,Green,0,,0,2,462850,,0,0,,,,,,,,,,7,1,7,Pictures\green.bmp,9000,10000,Pictures\black.bmp,,,,,,,,,,,,,StimulusPr,Pictures\right.bmp,CuedStim4,Right
POP_2,27040,1,"<?xml version=""1.0""?>\n<Clock xmlns:dt=""urn:schemas-microsoft-com:datatypes""><Description dt:dt=""string"">E-Prime Primary Realtime Clock</Description><StartTime><Timestamp dt:dt=""int"">0</Timestamp><DateUtc dt:dt=""string"">2014-06-08T01:01:02Z</DateUtc></StartTime><FrequencyChanges><FrequencyChange><Frequency dt:dt=""r8"">2793040000</Frequency><Timestamp dt:dt=""r8"">1.08044709683149E+15</Timestamp><Current dt:dt=""r8"">0</Current><DateUtc dt:dt=""string"">2014-06-08T01:01:02Z</DateUtc></FrequencyChange></FrequencyChanges></Clock>\n",60.03,1,1387177507,0,,-999999,15,15025,t,42824,57849,6/7/2014,18:01:02,1:01:02 AM,1,Session1,SessionsList,,,,,,,,,,1,1,1,3,,,,375577,,,,3,1,3,Cued4,MiniBlocks2,,,,,8,1,b,-999999,4,491852,b,845,492697,White,Incongruent,b,Red,0,,0,8,484856,,0,0,,,,,,,,,,8,1,8,Pictures\red.bmp,6000,10000,Pictures\left.bmp,,,,,,,,,,,,,StimulusPr,Pictures\black.bmp,CuedStim4,Left
POP_2,27040,1,"<?xml version=""1.0""?>\n<Clock xmlns:dt=""urn:schemas-microsoft-com:datatypes""><Description dt:dt=""string"">E-Prime Primary Realtime Clock</Description><StartTime><Timestamp dt:dt=""int"">0</Timestamp><DateUtc dt:dt=""string"">2014-06-08T01:01:02Z</DateUtc></StartTime><FrequencyChanges><FrequencyChange><Frequency dt:dt=""r8"">2793040000</Frequency><Timestamp dt:dt=""r8"">1.08044709683149E+15</Timestamp><Current dt:dt=""r8"">0</Current><DateUtc dt:dt=""string"">2014-06-08T01:01:02Z</DateUtc></FrequencyChange></FrequencyChanges></Clock>\n",60.03,1,1387177507,0,,-999999,15,15025,t,42824,57849,6/7/2014,18:01:02,1:01:02 AM,1,Session1,SessionsList,,,,,,,,,,1,1,1,3,,,,375577,,,,3,1,3,Cued4,MiniBlocks2,,,,,9,1,r,-999999,12,510859,r,795,511654,White,Congruent,r,Green,0,,0,16,503863,,0,0,,,,,,,,,,9,1,9,Pictures\green.bmp,6000,16000,Pictures\left.bmp,,,,,,,,,,,,,StimulusPr,Pictures\black.bmp,CuedStim4,Left
POP_2,27040,1,"<?xml version=""1.0""?>\n<Clock xmlns:dt=""urn:schemas-microsoft-com:datatypes""><Description dt:dt=""string"">E-Prime Primary Realtime Clock</Description><StartTime><Timestamp dt:dt=""int"">0</Timestamp><DateUtc dt:dt=""string"">2014-06-08T01:01:02Z</DateUtc></StartTime><FrequencyChanges><FrequencyChange><Frequency dt:dt=""r8"">2793040000</Frequency><Timestamp dt:dt=""r8"">1.08044709683149E+15</Timestamp><Current dt:dt=""r8"">0</Current><DateUtc dt:dt=""string"">2014-06-08T01:01:02Z</DateUtc></FrequencyChange></FrequencyChanges></Clock>\n",60.03,1,1387177507,0,,-999999,15,15025,t,42824,57849,6/7/2014,18:01:02,1:01:02 AM,1,Session1,SessionsList,,,,,,,,,,1,1,1,3,,,,375577,,,,3,1,3,Cued4,MiniBlocks2,,,,,10,1,r,-999999,16,533864,r,676,534540,White,Congruent,r,Green,0,,0,2,528850,,0,0,,,,,,,,,,10,1,10,Pictures\green.bmp,4000,2000,Pictures\left.bmp,,,,,,,,,,,,,StimulusPr,Pictures\black.bmp,CuedStim4,Left
POP_2,27040,1,"<?xml version=""1.0""?>\n<Clock xmlns:dt=""urn:schemas-microsoft-com:datatypes""><Description dt:dt=""string"">E-Prime Primary Realtime Clock</Description><StartTime><Timestamp dt:dt=""int"">0</Timestamp><DateUtc dt:dt=""string"">2014-06-08T01:01:02Z</DateUtc></StartTime><FrequencyChanges><FrequencyChange><Frequency dt:dt=""r8"">2793040000</Frequency><Timestamp dt:dt=""r8"">1.08044709683149E+15</Timestamp><Current dt:dt=""r8"">0</Current><DateUtc dt:dt=""string"">2014-06-08T01:01:02Z</DateUtc></FrequencyChange></FrequencyChanges></Clock>\n",60.03,1,1387177507,0,,-999999,15,15025,t,42824,57849,6/7/2014,18:01:02,1:01:02 AM,1,Session1,SessionsList,,,,,,,,,,1,1,1,4,,,,,,,,4,1,4,NonCued4,MiniBlocks2,,,,536563,1,1,r,-999999,8,550856,r,607,551463,Green,Congruent,r,White,0,,0,10,546858,,0,0,,,,,,,,,,,,,Pictures\white.bmp,3000,2000,Pictures\GreenLeft.bmp,,,,,,,,,,1,1,1,StimulusPr,Pictures\black.bmp,NonCuedStim4,Left
POP_2,27040,1,"<?xml version=""1.0""?>\n<Clock xmlns:dt=""urn:schemas-microsoft-com:datatypes""><Description dt:dt=""string"">E-Prime Primary Realtime Clock</Description><StartTime><Timestamp dt:dt=""int"">0</Timestamp><DateUtc dt:dt=""string"">2014-06-08T01:01:02Z</DateUtc></StartTime><FrequencyChanges><FrequencyChange><Frequency dt:dt=""r8"">2793040000</Frequency><Timestamp dt:dt=""r8"">1.08044709683149E+15</Timestamp><Current dt:dt=""r8"">0</Current><DateUtc dt:dt=""string"">2014-06-08T01:01:02Z</DateUtc></FrequencyChange></FrequencyChanges></Clock>\n",60.03,1,1387177507,0,,-999999,15,15025,t,42824,57849,6/7/2014,18:01:02,1:01:02 AM,1,Session1,SessionsList,,,,,,,,,,1,1,1,4,,,,,,,,4,1,4,NonCued4,MiniBlocks2,,,,536563,2,1,r,-999999,3,559851,r,658,560509,Green,Congruent,r,White,0,,0,6,554854,,0,0,,,,,,,,,,,,,Pictures\white.bmp,4000,2000,Pictures\GreenLeft.bmp,,,,,,,,,,2,1,2,StimulusPr,Pictures\black.bmp,NonCuedStim4,Left
POP_2,27040,1,"<?xml version=""1.0""?>\n<Clock xmlns:dt=""urn:schemas-microsoft-com:datatypes""><Description dt:dt=""string"">E-Prime Primary Realtime Clock</Description><StartTime><Timestamp dt:dt=""int"">0</Timestamp><DateUtc dt:dt=""string"">2014-06-08T01:01:02Z</DateUtc></StartTime><FrequencyChanges><FrequencyChange><Frequency dt:dt=""r8"">2793040000</Frequency><Timestamp dt:dt=""r8"">1.08044709683149E+15</Timestamp><Current dt:dt=""r8"">0</Current><DateUtc dt:dt=""string"">2014-06-08T01:01:02Z</DateUtc></FrequencyChange></FrequencyChanges></Clock>\n",60.03,1,1387177507,0,,-999999,15,15025,t,42824,57849,6/7/2014,18:01:02,1:01:02 AM,1,Session1,SessionsList,,,,,,,,,,1,1,1,4,,,,,,,,4,1,4,NonCued4,MiniBlocks2,,,,536563,3,1,r,-999999,17,568864,r,516,569380,Red,Incongruent,r,White,0,,0,2,563850,,0,0,,,,,,,,,,,,,Pictures\white.bmp,4000,2000,Pictures\black.bmp,,,,,,,,,,3,1,3,StimulusPr,Pictures\RedRight.bmp,NonCuedStim4,Right
POP_2,27040,1,"<?xml version=""1.0""?>\n<Clock xmlns:dt=""urn:schemas-microsoft-com:datatypes""><Description dt:dt=""string"">E-Prime Primary Realtime Clock</Description><StartTime><Timestamp dt:dt=""int"">0</Timestamp><DateUtc dt:dt=""string"">2014-06-08T01:01:02Z</DateUtc></StartTime><FrequencyChanges><FrequencyChange><Frequency dt:dt=""r8"">2793040000</Frequency><Timestamp dt:dt=""r8"">1.08044709683149E+15</Timestamp><Current dt:dt=""r8"">0</Current><DateUtc dt:dt=""string"">2014-06-08T01:01:02Z</DateUtc></FrequencyChange></FrequencyChanges></Clock>\n",60.03,1,1387177507,0,,-999999,15,15025,t,42824,57849,6/7/2014,18:01:02,1:01:02 AM,1,Session1,SessionsList,,,,,,,,,,1,1,1,4,,,,,,,,4,1,4,NonCued4,MiniBlocks2,,,,536563,4,1,b,-999999,13,576860,b,922,577782,Green,Congruent,b,White,0,,0,14,572862,,0,0,,,,,,,,,,,,,Pictures\white.bmp,3000,16000,Pictures\black.bmp,,,,,,,,,,4,1,4,StimulusPr,Pictures\GreenRight.bmp,NonCuedStim4,Right
POP_2,27040,1,"<?xml version=""1.0""?>\n<Clock xmlns:dt=""urn:schemas-microsoft-com:datatypes""><Description dt:dt=""string"">E-Prime Primary Realtime Clock</Description><StartTime><Timestamp dt:dt=""int"">0</Timestamp><DateUtc dt:dt=""string"">2014-06-08T01:01:02Z</DateUtc></StartTime><FrequencyChanges><FrequencyChange><Frequency dt:dt=""r8"">2793040000</Frequency><Timestamp dt:dt=""r8"">1.08044709683149E+15</Timestamp><Current dt:dt=""r8"">0</Current><DateUtc dt:dt=""string"">2014-06-08T01:01:02Z</DateUtc></FrequencyChange></FrequencyChanges></Clock>\n",60.03,1,1387177507,0,,-999999,15,15025,t,42824,57849,6/7/2014,18:01:02,1:01:02 AM,1,Session1,SessionsList,,,,,,,,,,1,1,1,4,,,,,,,,4,1,4,NonCued4,MiniBlocks2,,,,536563,5,1,r,-999999,15,604862,r,508,605370,Green,Congruent,r,White,0,,0,3,594850,,0,0,,,,,,,,,,,,,Pictures\white.bmp,9000,10000,Pictures\GreenLeft.bmp,,,,,,,,,,5,1,5,StimulusPr,Pictures\black.bmp,NonCuedStim4,Left
POP_2,27040,1,"<?xml version=""1.0""?>\n<Clock xmlns:dt=""urn:schemas-microsoft-com:datatypes""><Description dt:dt=""string"">E-Prime Primary Realtime Clock</Description><StartTime><Timestamp dt:dt=""int"">0</Timestamp><DateUtc dt:dt=""string"">2014-06-08T01:01:02Z</DateUtc></StartTime><FrequencyChanges><FrequencyChange><Frequency dt:dt=""r8"">2793040000</Frequency><Timestamp dt:dt=""r8"">1.08044709683149E+15</Timestamp><Current dt:dt=""r8"">0</Current><DateUtc dt:dt=""string"">2014-06-08T01:01:02Z</DateUtc></FrequencyChange></FrequencyChanges></Clock>\n",60.03,1,1387177507,0,,-999999,15,15025,t,42824,57849,6/7/2014,18:01:02,1:01:02 AM,1,Session1,SessionsList,,,,,,,,,,1,1,1,4,,,,,,,,4,1,4,NonCued4,MiniBlocks2,,,,536563,6,1,b,-999999,6,620854,b,450,621304,Green,Congruent,b,White,0,,0,8,616856,,0,0,,,,,,,,,,,,,Pictures\white.bmp,3000,16000,Pictures\black.bmp,,,,,,,,,,6,1,6,StimulusPr,Pictures\GreenRight.bmp,NonCuedStim4,Right
POP_2,27040,1,"<?xml version=""1.0""?>\n<Clock xmlns:dt=""urn:schemas-microsoft-com:datatypes""><Description dt:dt=""string"">E-Prime Primary Realtime Clock</Description><StartTime><Timestamp dt:dt=""int"">0</Timestamp><DateUtc dt:dt=""string"">2014-06-08T01:01:02Z</DateUtc></StartTime><FrequencyChanges><FrequencyChange><Frequency dt:dt=""r8"">2793040000</Frequency><Timestamp dt:dt=""r8"">1.08044709683149E+15</Timestamp><Current dt:dt=""r8"">0</Current><DateUtc dt:dt=""string"">2014-06-08T01:01:02Z</DateUtc></FrequencyChange></FrequencyChanges></Clock>\n",60.03,1,1387177507,0,,-999999,15,15025,t,42824,57849,6/7/2014,18:01:02,1:01:02 AM,1,Session1,SessionsList,,,,,,,,,,1,1,1,4,,,,,,,,4,1,4,NonCued4,MiniBlocks2,,,,536563,7,1,b,-999999,13,642860,b,683,643543,Red,Incongruent,b,White,0,,0,14,638862,,0,0,,,,,,,,,,,,,Pictures\white.bmp,3000,16000,Pictures\RedLeft.bmp,,,,,,,,,,7,1,7,StimulusPr,Pictures\black.bmp,NonCuedStim4,Left
POP_2,27040,1,"<?xml version=""1.0""?>\n<Clock xmlns:dt=""urn:schemas-microsoft-com:datatypes""><Description dt:dt=""string"">E-Prime Primary Realtime Clock</Description><StartTime><Timestamp dt:dt=""int"">0</Timestamp><DateUtc dt:dt=""string"">2014-06-08T01:01:02Z</DateUtc></StartTime><FrequencyChanges><FrequencyChange><Frequency dt:dt=""r8"">2793040000</Frequency><Timestamp dt:dt=""r8"">1.08044709683149E+15</Timestamp><Current dt:dt=""r8"">0</Current><DateUtc dt:dt=""string"">2014-06-08T01:01:02Z</DateUtc></FrequencyChange></FrequencyChanges></Clock>\n",60.03,1,1387177507,0,,-999999,15,15025,t,42824,57849,6/7/2014,18:01:02,1:01:02 AM,1,Session1,SessionsList,,,,,,,,,,1,1,1,4,,,,,,,,4,1,4,NonCued4,MiniBlocks2,,,,536563,8,1,r,-999999,18,664865,r,683,665548,Green,Congruent,r,White,0,,0,4,660851,,0,0,,,,,,,,,,,,,Pictures\white.bmp,3000,2000,Pictures\GreenLeft.bmp,,,,,,,,,,8,1,8,StimulusPr,Pictures\black.bmp,NonCuedStim4,Left
POP_2,27040,1,"<?xml version=""1.0""?>\n<Clock xmlns:dt=""urn:schemas-microsoft-com:datatypes""><Description dt:dt=""string"">E-Prime Primary Realtime Clock</Description><StartTime><Timestamp dt:dt=""int"">0</Timestamp><DateUtc dt:dt=""string"">2014-06-08T01:01:02Z</DateUtc></StartTime><FrequencyChanges><FrequencyChange><Frequency dt:dt=""r8"">2793040000</Frequency><Timestamp dt:dt=""r8"">1.08044709683149E+15</Timestamp><Current dt:dt=""r8"">0</Current><DateUtc dt:dt=""string"">2014-06-08T01:01:02Z</DateUtc></FrequencyChange></FrequencyChanges></Clock>\n",60.03,1,1387177507,0,,-999999,15,15025,t,42824,57849,6/7/2014,18:01:02,1:01:02 AM,1,Session1,SessionsList,,,,,,,,,,1,1,1,4,,,,,,,,4,1,4,NonCued4,MiniBlocks2,,,,536563,9,1,b,-999999,13,675860,b,526,676386,Green,Congruent,b,White,0,,0,16,668863,,0,0,,,,,,,,,,,,,Pictures\white.bmp,6000,2000,Pictures\black.bmp,,,,,,,,,,9,1,9,StimulusPr,Pictures\GreenRight.bmp,NonCuedStim4,Right
POP_2,27040,1,"<?xml version=""1.0""?>\n<Clock xmlns:dt=""urn:schemas-microsoft-com:datatypes""><Description dt:dt=""string"">E-Prime Primary Realtime Clock</Description><StartTime><Timestamp dt:dt=""int"">0</Timestamp><DateUtc dt:dt=""string"">2014-06-08T01:01:02Z</DateUtc></StartTime><FrequencyChanges><FrequencyChange><Frequency dt:dt=""r8"">2793040000</Frequency><Timestamp dt:dt=""r8"">1.08044709683149E+15</Timestamp><Current dt:dt=""r8"">0</Current><DateUtc dt:dt=""string"">2014-06-08T01:01:02Z</DateUtc></FrequencyChange></FrequencyChanges></Clock>\n",60.03,1,1387177507,0,,-999999,15,15025,t,42824,57849,6/7/2014,18:01:02,1:01:02 AM,1,Session1,SessionsList,,,,,,,,,,1,1,1,4,,,,,,,,4,1,4,NonCued4,MiniBlocks2,,,,536563,10,1,b,-999999,8,684855,b,1504,686359,Green,Congruent,b,White,0,,0,11,679858,,0,0,,,,,,,,,,,,,Pictures\white.bmp,4000,4000,Pictures\black.bmp,,,,,,,,,,10,1,10,StimulusPr,Pictures\GreenRight.bmp,NonCuedStim4,Right
POP_2,27040,1,"<?xml version=""1.0""?>\n<Clock xmlns:dt=""urn:schemas-microsoft-com:datatypes""><Description dt:dt=""string"">E-Prime Primary Realtime Clock</Description><StartTime><Timestamp dt:dt=""int"">0</Timestamp><DateUtc dt:dt=""string"">2014-06-08T01:01:02Z</DateUtc></StartTime><FrequencyChanges><FrequencyChange><Frequency dt:dt=""r8"">2793040000</Frequency><Timestamp dt:dt=""r8"">1.08044709683149E+15</Timestamp><Current dt:dt=""r8"">0</Current><DateUtc dt:dt=""string"">2014-06-08T01:01:02Z</DateUtc></FrequencyChange></FrequencyChanges></Clock>\n",60.03,1,1387177507,0,,-999999,15,15025,t,42824,57849,6/7/2014,18:01:02,1:01:02 AM,2,Session2,SessionsList,0,,-999999,9,703096,t,36843,739939,690386,2,1,2,1,739944,,,,1,1,1,,,,Cued1,MiniBlocks1,,,,,1,1,r,-999999,14,753954,r,384,754338,White,Congruent,r,Green,0,,0,17,748956,,0,0,1,1,1,,,,,,,,,,Pictures\green.bmp,4000,4000,Pictures\left.bmp,,,,,,,,,,,,,StimulusPr,Pictures\black.bmp,CuedStim1,Left
POP_2,27040,1,"<?xml version=""1.0""?>\n<Clock xmlns:dt=""urn:schemas-microsoft-com:datatypes""><Description dt:dt=""string"">E-Prime Primary Realtime Clock</Description><StartTime><Timestamp dt:dt=""int"">0</Timestamp><DateUtc dt:dt=""string"">2014-06-08T01:01:02Z</DateUtc></StartTime><FrequencyChanges><FrequencyChange><Frequency dt:dt=""r8"">2793040000</Frequency><Timestamp dt:dt=""r8"">1.08044709683149E+15</Timestamp><Current dt:dt=""r8"">0</Current><DateUtc dt:dt=""string"">2014-06-08T01:01:02Z</DateUtc></FrequencyChange></FrequencyChanges></Clock>\n",60.03,1,1387177507,0,,-999999,15,15025,t,42824,57849,6/7/2014,18:01:02,1:01:02 AM,2,Session2,SessionsList,0,,-999999,9,703096,t,36843,739939,690386,2,1,2,1,739944,,,,1,1,1,,,,Cued1,MiniBlocks1,,,,,2,1,b,-999999,7,766947,b,570,767517,White,Congruent,b,Green,0,,0,11,759951,,0,0,2,1,2,,,,,,,,,,Pictures\green.bmp,6000,2000,Pictures\black.bmp,,,,,,,,,,,,,StimulusPr,Pictures\right.bmp,CuedStim1,Right
POP_2,27040,1,"<?xml version=""1.0""?>\n<Clock xmlns:dt=""urn:schemas-microsoft-com:datatypes""><Description dt:dt=""string"">E-Prime Primary Realtime Clock</Description><StartTime><Timestamp dt:dt=""int"">0</Timestamp><DateUtc dt:dt=""string"">2014-06-08T01:01:02Z</DateUtc></StartTime><FrequencyChanges><FrequencyChange><Frequency dt:dt=""r8"">2793040000</Frequency><Timestamp dt:dt=""r8"">1.08044709683149E+15</Timestamp><Current dt:dt=""r8"">0</Current><DateUtc dt:dt=""string"">2014-06-08T01:01:02Z</DateUtc></FrequencyChange></FrequencyChanges></Clock>\n",60.03,1,1387177507,0,,-999999,15,15025,t,42824,57849,6/7/2014,18:01:02,1:01:02 AM,2,Session2,SessionsList,0,,-999999,9,703096,t,36843,739939,690386,2,1,2,1,739944,,,,1,1,1,,,,Cued1,MiniBlocks1,,,,,3,1,b,-999999,3,774943,b,567,775510,White,Congruent,b,Green,0,,0,5,770945,,0,0,3,1,3,,,,,,,,,,Pictures\green.bmp,3000,2000,Pictures\black.bmp,,,,,,,,,,,,,StimulusPr,Pictures\right.bmp,CuedStim1,Right
POP_2,27040,1,"<?xml version=""1.0""?>\n<Clock xmlns:dt=""urn:schemas-microsoft-com:datatypes""><Description dt:dt=""string"">E-Prime Primary Realtime Clock</Description><StartTime><Timestamp dt:dt=""int"">0</Timestamp><DateUtc dt:dt=""string"">2014-06-08T01:01:02Z</DateUtc></StartTime><FrequencyChanges><FrequencyChange><Frequency dt:dt=""r8"">2793040000</Frequency><Timestamp dt:dt=""r8"">1.08044709683149E+15</Timestamp><Current dt:dt=""r8"">0</Current><DateUtc dt:dt=""string"">2014-06-08T01:01:02Z</DateUtc></FrequencyChange></FrequencyChanges></Clock>\n",60.03,1,1387177507,0,,-999999,15,15025,t,42824,57849,6/7/2014,18:01:02,1:01:02 AM,2,Session2,SessionsList,0,,-999999,9,703096,t,36843,739939,690386,2,1,2,1,739944,,,,1,1,1,,,,Cued1,MiniBlocks1,,,,,4,1,b,-999999,16,782956,b,559,783515,White,Incongruent,b,Red,0,,0,3,778942,,0,0,4,1,4,,,,,,,,,,Pictures\red.bmp,3000,16000,Pictures\left.bmp,,,,,,,,,,,,,StimulusPr,Pictures\black.bmp,CuedStim1,Left
POP_2,27040,1,"<?xml version=""1.0""?>\n<Clock xmlns:dt=""urn:schemas-microsoft-com:datatypes""><Description dt:dt=""string"">E-Prime Primary Realtime Clock</Description><StartTime><Timestamp dt:dt=""int"">0</Timestamp><DateUtc dt:dt=""string"">2014-06-08T01:01:02Z</DateUtc></StartTime><FrequencyChanges><FrequencyChange><Frequency dt:dt=""r8"">2793040000</Frequency><Timestamp dt:dt=""r8"">1.08044709683149E+15</Timestamp><Current dt:dt=""r8"">0</Current><DateUtc dt:dt=""string"">2014-06-08T01:01:02Z</DateUtc></FrequencyChange></FrequencyChanges></Clock>\n",60.03,1,1387177507,0,,-999999,15,15025,t,42824,57849,6/7/2014,18:01:02,1:01:02 AM,2,Session2,SessionsList,0,,-999999,9,703096,t,36843,739939,690386,2,1,2,1,739944,,,,1,1,1,,,,Cued1,MiniBlocks1,,,,,5,1,r,-999999,6,804945,r,1772,806717,White,Congruent,r,Green,0,,0,8,800947,,0,0,5,1,5,,,,,,,,,,Pictures\green.bmp,3000,16000,Pictures\left.bmp,,,,,,,,,,,,,StimulusPr,Pictures\black.bmp,CuedStim1,Left
POP_2,27040,1,"<?xml version=""1.0""?>\n<Clock xmlns:dt=""urn:schemas-microsoft-com:datatypes""><Description dt:dt=""string"">E-Prime Primary Realtime Clock</Description><StartTime><Timestamp dt:dt=""int"">0</Timestamp><DateUtc dt:dt=""string"">2014-06-08T01:01:02Z</DateUtc></StartTime><FrequencyChanges><FrequencyChange><Frequency dt:dt=""r8"">2793040000</Frequency><Timestamp dt:dt=""r8"">1.08044709683149E+15</Timestamp><Current dt:dt=""r8"">0</Current><DateUtc dt:dt=""string"">2014-06-08T01:01:02Z</DateUtc></FrequencyChange></FrequencyChanges></Clock>\n",60.03,1,1387177507,0,,-999999,15,15025,t,42824,57849,6/7/2014,18:01:02,1:01:02 AM,2,Session2,SessionsList,0,,-999999,9,703096,t,36843,739939,690386,2,1,2,1,739944,,,,1,1,1,,,,Cued1,MiniBlocks1,,,,,6,1,r,-999999,8,833947,r,422,834369,White,Congruent,r,Green,0,,0,12,823952,,0,0,6,1,6,,,,,,,,,,Pictures\green.bmp,9000,10000,Pictures\left.bmp,,,,,,,,,,,,,StimulusPr,Pictures\black.bmp,CuedStim1,Left
POP_2,27040,1,"<?xml version=""1.0""?>\n<Clock xmlns:dt=""urn:schemas-microsoft-com:datatypes""><Description dt:dt=""string"">E-Prime Primary Realtime Clock</Description><StartTime><Timestamp dt:dt=""int"">0</Timestamp><DateUtc dt:dt=""string"">2014-06-08T01:01:02Z</DateUtc></StartTime><FrequencyChanges><FrequencyChange><Frequency dt:dt=""r8"">2793040000</Frequency><Timestamp dt:dt=""r8"">1.08044709683149E+15</Timestamp><Current dt:dt=""r8"">0</Current><DateUtc dt:dt=""string"">2014-06-08T01:01:02Z</DateUtc></FrequencyChange></FrequencyChanges></Clock>\n",60.03,1,1387177507,0,,-999999,15,15025,t,42824,57849,6/7/2014,18:01:02,1:01:02 AM,2,Session2,SessionsList,0,,-999999,9,703096,t,36843,739939,690386,2,1,2,1,739944,,,,1,1,1,,,,Cued1,MiniBlocks1,,,,,7,1,b,-999999,17,849956,b,362,850318,White,Congruent,b,Green,0,,0,18,845958,,0,0,7,1,7,,,,,,,,,,Pictures\green.bmp,3000,16000,Pictures\black.bmp,,,,,,,,,,,,,StimulusPr,Pictures\right.bmp,CuedStim1,Right
POP_2,27040,1,"<?xml version=""1.0""?>\n<Clock xmlns:dt=""urn:schemas-microsoft-com:datatypes""><Description dt:dt=""string"">E-Prime Primary Realtime Clock</Description><StartTime><Timestamp dt:dt=""int"">0</Timestamp><DateUtc dt:dt=""string"">2014-06-08T01:01:02Z</DateUtc></StartTime><FrequencyChanges><FrequencyChange><Frequency dt:dt=""r8"">2793040000</Frequency><Timestamp dt:dt=""r8"">1.08044709683149E+15</Timestamp><Current dt:dt=""r8"">0</Current><DateUtc dt:dt=""string"">2014-06-08T01:01:02Z</DateUtc></FrequencyChange></FrequencyChanges></Clock>\n",60.03,1,1387177507,0,,-999999,15,15025,t,42824,57849,6/7/2014,18:01:02,1:01:02 AM,2,Session2,SessionsList,0,,-999999,9,703096,t,36843,739939,690386,2,1,2,1,739944,,,,1,1,1,,,,Cued1,MiniBlocks1,,,,,8,0,r,-999999,5,872944,b,449,873393,White,Incongruent,r,Red,0,,0,8,867947,,0,0,8,1,8,,,,,,,,,,Pictures\red.bmp,4000,2000,Pictures\black.bmp,,,,,,,,,,,,,StimulusPr,Pictures\right.bmp,CuedStim1,Right
POP_2,27040,1,"<?xml version=""1.0""?>\n<Clock xmlns:dt=""urn:schemas-microsoft-com:datatypes""><Description dt:dt=""string"">E-Prime Primary Realtime Clock</Description><StartTime><Timestamp dt:dt=""int"">0</Timestamp><DateUtc dt:dt=""string"">2014-06-08T01:01:02Z</DateUtc></StartTime><FrequencyChanges><FrequencyChange><Frequency dt:dt=""r8"">2793040000</Frequency><Timestamp dt:dt=""r8"">1.08044709683149E+15</Timestamp><Current dt:dt=""r8"">0</Current><DateUtc dt:dt=""string"">2014-06-08T01:01:02Z</DateUtc></FrequencyChange></FrequencyChanges></Clock>\n",60.03,1,1387177507,0,,-999999,15,15025,t,42824,57849,6/7/2014,18:01:02,1:01:02 AM,2,Session2,SessionsList,0,,-999999,9,703096,t,36843,739939,690386,2,1,2,1,739944,,,,1,1,1,,,,Cued1,MiniBlocks1,,,,,9,1,b,-999999,16,881956,b,773,882729,White,Congruent,b,Green,0,,0,3,876942,,0,0,9,1,9,,,,,,,,,,Pictures\green.bmp,4000,2000,Pictures\black.bmp,,,,,,,,,,,,,StimulusPr,Pictures\right.bmp,CuedStim1,Right
POP_2,27040,1,"<?xml version=""1.0""?>\n<Clock xmlns:dt=""urn:schemas-microsoft-com:datatypes""><Description dt:dt=""string"">E-Prime Primary Realtime Clock</Description><StartTime><Timestamp dt:dt=""int"">0</Timestamp><DateUtc dt:dt=""string"">2014-06-08T01:01:02Z</DateUtc></StartTime><FrequencyChanges><FrequencyChange><Frequency dt:dt=""r8"">2793040000</Frequency><Timestamp dt:dt=""r8"">1.08044709683149E+15</Timestamp><Current dt:dt=""r8"">0</Current><DateUtc dt:dt=""string"">2014-06-08T01:01:02Z</DateUtc></FrequencyChange></FrequencyChanges></Clock>\n",60.03,1,1387177507,0,,-999999,15,15025,t,42824,57849,6/7/2014,18:01:02,1:01:02 AM,2,Session2,SessionsList,0,,-999999,9,703096,t,36843,739939,690386,2,1,2,1,739944,,,,1,1,1,,,,Cued1,MiniBlocks1,,,,,10,1,r,-999999,13,889952,r,828,890780,White,Congruent,r,Green,0,,0,14,885954,,0,0,10,1,10,,,,,,,,,,Pictures\green.bmp,3000,2000,Pictures\left.bmp,,,,,,,,,,,,,StimulusPr,Pictures\black.bmp,CuedStim1,Left
POP_2,27040,1,"<?xml version=""1.0""?>\n<Clock xmlns:dt=""urn:schemas-microsoft-com:datatypes""><Description dt:dt=""string"">E-Prime Primary Realtime Clock</Description><StartTime><Timestamp dt:dt=""int"">0</Timestamp><DateUtc dt:dt=""string"">2014-06-08T01:01:02Z</DateUtc></StartTime><FrequencyChanges><FrequencyChange><Frequency dt:dt=""r8"">2793040000</Frequency><Timestamp dt:dt=""r8"">1.08044709683149E+15</Timestamp><Current dt:dt=""r8"">0</Current><DateUtc dt:dt=""string"">2014-06-08T01:01:02Z</DateUtc></FrequencyChange></FrequencyChanges></Clock>\n",60.03,1,1387177507,0,,-999999,15,15025,t,42824,57849,6/7/2014,18:01:02,1:01:02 AM,2,Session2,SessionsList,0,,-999999,9,703096,t,36843,739939,690386,2,1,2,2,,,,,2,1,2,,,,NonCued1,MiniBlocks1,892801,,,,1,1,r,-999999,4,907943,r,489,908432,Green,Congruent,r,White,0,,0,7,902946,,0,0,,,,,,,,,,,,,Pictures\white.bmp,4000,2000,Pictures\GreenLeft.bmp,1,1,1,,,,,,,,,,StimulusPr,Pictures\black.bmp,NonCuedStim1,Left
POP_2,27040,1,"<?xml version=""1.0""?>\n<Clock xmlns:dt=""urn:schemas-microsoft-com:datatypes""><Description dt:dt=""string"">E-Prime Primary Realtime Clock</Description><StartTime><Timestamp dt:dt=""int"">0</Timestamp><DateUtc dt:dt=""string"">2014-06-08T01:01:02Z</DateUtc></StartTime><FrequencyChanges><FrequencyChange><Frequency dt:dt=""r8"">2793040000</Frequency><Timestamp dt:dt=""r8"">1.08044709683149E+15</Timestamp><Current dt:dt=""r8"">0</Current><DateUtc dt:dt=""string"">2014-06-08T01:01:02Z</DateUtc></FrequencyChange></FrequencyChanges></Clock>\n",60.03,1,1387177507,0,,-999999,15,15025,t,42824,57849,6/7/2014,18:01:02,1:01:02 AM,2,Session2,SessionsList,0,,-999999,9,703096,t,36843,739939,690386,2,1,2,2,,,,,2,1,2,,,,NonCued1,MiniBlocks1,892801,,,,2,1,b,-999999,15,918954,b,776,919730,Green,Congruent,b,White,0,,0,2,911941,,0,0,,,,,,,,,,,,,Pictures\white.bmp,6000,16000,Pictures\black.bmp,2,1,2,,,,,,,,,,StimulusPr,Pictures\GreenRight.bmp,NonCuedStim1,Right
POP_2,27040,1,"<?xml version=""1.0""?>\n<Clock xmlns:dt=""urn:schemas-microsoft-com:datatypes""><Description dt:dt=""string"">E-Prime Primary Realtime Clock</Description><StartTime><Timestamp dt:dt=""int"">0</Timestamp><DateUtc dt:dt=""string"">2014-06-08T01:01:02Z</DateUtc></StartTime><FrequencyChanges><FrequencyChange><Frequency dt:dt=""r8"">2793040000</Frequency><Timestamp dt:dt=""r8"">1.08044709683149E+15</Timestamp><Current dt:dt=""r8"">0</Current><DateUtc dt:dt=""string"">2014-06-08T01:01:02Z</DateUtc></FrequencyChange></FrequencyChanges></Clock>\n",60.03,1,1387177507,0,,-999999,15,15025,t,42824,57849,6/7/2014,18:01:02,1:01:02 AM,2,Session2,SessionsList,0,,-999999,9,703096,t,36843,739939,690386,2,1,2,2,,,,,2,1,2,,,,NonCued1,MiniBlocks1,892801,,,,3,1,r,-999999,3,943942,r,734,944676,Red,Incongruent,r,White,0,,0,6,936945,,0,0,,,,,,,,,,,,,Pictures\white.bmp,6000,10000,Pictures\black.bmp,3,1,3,,,,,,,,,,StimulusPr,Pictures\RedRight.bmp,NonCuedStim1,Right
POP_2,27040,1,"<?xml version=""1.0""?>\n<Clock xmlns:dt=""urn:schemas-microsoft-com:datatypes""><Description dt:dt=""string"">E-Prime Primary Realtime Clock</Description><StartTime><Timestamp dt:dt=""int"">0</Timestamp><DateUtc dt:dt=""string"">2014-06-08T01:01:02Z</DateUtc></StartTime><FrequencyChanges><FrequencyChange><Frequency dt:dt=""r8"">2793040000</Frequency><Timestamp dt:dt=""r8"">1.08044709683149E+15</Timestamp><Current dt:dt=""r8"">0</Current><DateUtc dt:dt=""string"">2014-06-08T01:01:02Z</DateUtc></FrequencyChange></FrequencyChanges></Clock>\n",60.03,1,1387177507,0,,-999999,15,15025,t,42824,57849,6/7/2014,18:01:02,1:01:02 AM,2,Session2,SessionsList,0,,-999999,9,703096,t,36843,739939,690386,2,1,2,2,,,,,2,1,2,,,,NonCued1,MiniBlocks1,892801,,,,4,1,r,-999999,8,965947,r,526,966473,Green,Congruent,r,White,0,,0,13,955952,,0,0,,,,,,,,,,,,,Pictures\white.bmp,9000,10000,Pictures\GreenLeft.bmp,4,1,4,,,,,,,,,,StimulusPr,Pictures\black.bmp,NonCuedStim1,Left
POP_2,27040,1,"<?xml version=""1.0""?>\n<Clock xmlns:dt=""urn:schemas-microsoft-com:datatypes""><Description dt:dt=""string"">E-Prime Primary Realtime Clock</Description><StartTime><Timestamp dt:dt=""int"">0</Timestamp><DateUtc dt:dt=""string"">2014-06-08T01:01:02Z</DateUtc></StartTime><FrequencyChanges><FrequencyChange><Frequency dt:dt=""r8"">2793040000</Frequency><Timestamp dt:dt=""r8"">1.08044709683149E+15</Timestamp><Current dt:dt=""r8"">0</Current><DateUtc dt:dt=""string"">2014-06-08T01:01:02Z</DateUtc></FrequencyChange></FrequencyChanges></Clock>\n",60.03,1,1387177507,0,,-999999,15,15025,t,42824,57849,6/7/2014,18:01:02,1:01:02 AM,2,Session2,SessionsList,0,,-999999,9,703096,t,36843,739939,690386,2,1,2,2,,,,,2,1,2,,,,NonCued1,MiniBlocks1,892801,,,,5,1,b,-999999,17,981956,b,506,982462,Green,Congruent,b,White,0,,0,2,977941,,0,0,,,,,,,,,,,,,Pictures\white.bmp,3000,2000,Pictures\black.bmp,5,1,5,,,,,,,,,,StimulusPr,Pictures\GreenRight.bmp,NonCuedStim1,Right
POP_2,27040,1,"<?xml version=""1.0""?>\n<Clock xmlns:dt=""urn:schemas-microsoft-com:datatypes""><Description dt:dt=""string"">E-Prime Primary Realtime Clock</Description><StartTime><Timestamp dt:dt=""int"">0</Timestamp><DateUtc dt:dt=""string"">2014-06-08T01:01:02Z</DateUtc></StartTime><FrequencyChanges><FrequencyChange><Frequency dt:dt=""r8"">2793040000</Frequency><Timestamp dt:dt=""r8"">1.08044709683149E+15</Timestamp><Current dt:dt=""r8"">0</Current><DateUtc dt:dt=""string"">2014-06-08T01:01:02Z</DateUtc></FrequencyChange></FrequencyChanges></Clock>\n",60.03,1,1387177507,0,,-999999,15,15025,t,42824,57849,6/7/2014,18:01:02,1:01:02 AM,2,Session2,SessionsList,0,,-999999,9,703096,t,36843,739939,690386,2,1,2,2,,,,,2,1,2,,,,NonCued1,MiniBlocks1,892801,,,,6,1,b,-999999,13,990951,b,768,991719,Red,Incongruent,b,White,0,,0,15,985954,,0,0,,,,,,,,,,,,,Pictures\white.bmp,4000,16000,Pictures\RedLeft.bmp,6,1,6,,,,,,,,,,StimulusPr,Pictures\black.bmp,NonCuedStim1,Left
POP_2,27040,1,"<?xml version=""1.0""?>\n<Clock xmlns:dt=""urn:schemas-microsoft-com:datatypes""><Description dt:dt=""string"">E-Prime Primary Realtime Clock</Description><StartTime><Timestamp dt:dt=""int"">0</Timestamp><DateUtc dt:dt=""string"">2014-06-08T01:01:02Z</DateUtc></StartTime><FrequencyChanges><FrequencyChange><Frequency dt:dt=""r8"">2793040000</Frequency><Timestamp dt:dt=""r8"">1.08044709683149E+15</Timestamp><Current dt:dt=""r8"">0</Current><DateUtc dt:dt=""string"">2014-06-08T01:01:02Z</DateUtc></FrequencyChange></FrequencyChanges></Clock>\n",60.03,1,1387177507,0,,-999999,15,15025,t,42824,57849,6/7/2014,18:01:02,1:01:02 AM,2,Session2,SessionsList,0,,-999999,9,703096,t,36843,739939,690386,2,1,2,2,,,,,2,1,2,,,,NonCued1,MiniBlocks1,892801,,,,7,1,b,-999999,18,1012957,b,529,1013486,Green,Congruent,b,White,0,,0,4,1008942,,0,0,,,,,,,,,,,,,Pictures\white.bmp,3000,4000,Pictures\black.bmp,7,1,7,,,,,,,,,,StimulusPr,Pictures\GreenRight.bmp,NonCuedStim1,Right
POP_2,27040,1,"<?xml version=""1.0""?>\n<Clock xmlns:dt=""urn:schemas-microsoft-com:datatypes""><Description dt:dt=""string"">E-Prime Primary Realtime Clock</Description><StartTime><Timestamp dt:dt=""int"">0</Timestamp><DateUtc dt:dt=""string"">2014-06-08T01:01:02Z</DateUtc></StartTime><FrequencyChanges><FrequencyChange><Frequency dt:dt=""r8"">2793040000</Frequency><Timestamp dt:dt=""r8"">1.08044709683149E+15</Timestamp><Current dt:dt=""r8"">0</Current><DateUtc dt:dt=""string"">2014-06-08T01:01:02Z</DateUtc></FrequencyChange></FrequencyChanges></Clock>\n",60.03,1,1387177507,0,,-999999,15,15025,t,42824,57849,6/7/2014,18:01:02,1:01:02 AM,2,Session2,SessionsList,0,,-999999,9,703096,t,36843,739939,690386,2,1,2,2,,,,,2,1,2,,,,NonCued1,MiniBlocks1,892801,,,,8,1,b,-999999,13,1022952,b,880,1023832,Green,Congruent,b,White,0,,0,15,1018954,,0,0,,,,,,,,,,,,,Pictures\white.bmp,3000,4000,Pictures\black.bmp,8,1,8,,,,,,,,,,StimulusPr,Pictures\GreenRight.bmp,NonCuedStim1,Right
POP_2,27040,1,"<?xml version=""1.0""?>\n<Clock xmlns:dt=""urn:schemas-microsoft-com:datatypes""><Description dt:dt=""string"">E-Prime Primary Realtime Clock</Description><StartTime><Timestamp dt:dt=""int"">0</Timestamp><DateUtc dt:dt=""string"">2014-06-08T01:01:02Z</DateUtc></StartTime><FrequencyChanges><FrequencyChange><Frequency dt:dt=""r8"">2793040000</Frequency><Timestamp dt:dt=""r8"">1.08044709683149E+15</Timestamp><Current dt:dt=""r8"">0</Current><DateUtc dt:dt=""string"">2014-06-08T01:01:02Z</DateUtc></FrequencyChange></FrequencyChanges></Clock>\n",60.03,1,1387177507,0,,-999999,15,15025,t,42824,57849,6/7/2014,18:01:02,1:01:02 AM,2,Session2,SessionsList,0,,-999999,9,703096,t,36843,739939,690386,2,1,2,2,,,,,2,1,2,,,,NonCued1,MiniBlocks1,892801,,,,9,1,b,-999999,5,1038944,b,654,1039598,Red,Incongruent,b,White,0,,0,10,1028949,,0,0,,,,,,,,,,,,,Pictures\white.bmp,9000,2000,Pictures\RedLeft.bmp,9,1,9,,,,,,,,,,StimulusPr,Pictures\black.bmp,NonCuedStim1,Left
POP_2,27040,1,"<?xml version=""1.0""?>\n<Clock xmlns:dt=""urn:schemas-microsoft-com:datatypes""><Description dt:dt=""string"">E-Prime Primary Realtime Clock</Description><StartTime><Timestamp dt:dt=""int"">0</Timestamp><DateUtc dt:dt=""string"">2014-06-08T01:01:02Z</DateUtc></StartTime><FrequencyChanges><FrequencyChange><Frequency dt:dt=""r8"">2793040000</Frequency><Timestamp dt:dt=""r8"">1.08044709683149E+15</Timestamp><Current dt:dt=""r8"">0</Current><DateUtc dt:dt=""string"">2014-06-08T01:01:02Z</DateUtc></FrequencyChange></FrequencyChanges></Clock>\n",60.03,1,1387177507,0,,-999999,15,15025,t,42824,57849,6/7/2014,18:01:02,1:01:02 AM,2,Session2,SessionsList,0,,-999999,9,703096,t,36843,739939,690386,2,1,2,2,,,,,2,1,2,,,,NonCued1,MiniBlocks1,892801,,,,10,1,r,-999999,16,1049955,r,388,1050343,Green,Congruent,r,White,0,,0,3,1042942,,0,0,,,,,,,,,,,,,Pictures\white.bmp,6000,2000,Pictures\GreenLeft.bmp,10,1,10,,,,,,,,,,StimulusPr,Pictures\black.bmp,NonCuedStim1,Left
POP_2,27040,1,"<?xml version=""1.0""?>\n<Clock xmlns:dt=""urn:schemas-microsoft-com:datatypes""><Description dt:dt=""string"">E-Prime Primary Realtime Clock</Description><StartTime><Timestamp dt:dt=""int"">0</Timestamp><DateUtc dt:dt=""string"">2014-06-08T01:01:02Z</DateUtc></StartTime><FrequencyChanges><FrequencyChange><Frequency dt:dt=""r8"">2793040000</Frequency><Timestamp dt:dt=""r8"">1.08044709683149E+15</Timestamp><Current dt:dt=""r8"">0</Current><DateUtc dt:dt=""string"">2014-06-08T01:01:02Z</DateUtc></FrequencyChange></FrequencyChanges></Clock>\n",60.03,1,1387177507,0,,-999999,15,15025,t,42824,57849,6/7/2014,18:01:02,1:01:02 AM,2,Session2,SessionsList,0,,-999999,9,703096,t,36843,739939,690386,2,1,2,3,,,,,3,1,3,,,,NonCued2,MiniBlocks1,,1052370,,,1,1,b,-999999,6,1071944,b,733,1072677,Green,Congruent,b,White,0,,0,11,1061949,,0,0,,,,,,,,,,,,,Pictures\white.bmp,9000,10000,Pictures\black.bmp,,,,1,1,1,,,,,,,StimulusPr,Pictures\GreenRight.bmp,NonCuedStim2,Right
POP_2,27040,1,"<?xml version=""1.0""?>\n<Clock xmlns:dt=""urn:schemas-microsoft-com:datatypes""><Description dt:dt=""string"">E-Prime Primary Realtime Clock</Description><StartTime><Timestamp dt:dt=""int"">0</Timestamp><DateUtc dt:dt=""string"">2014-06-08T01:01:02Z</DateUtc></StartTime><FrequencyChanges><FrequencyChange><Frequency dt:dt=""r8"">2793040000</Frequency><Timestamp dt:dt=""r8"">1.08044709683149E+15</Timestamp><Current dt:dt=""r8"">0</Current><DateUtc dt:dt=""string"">2014-06-08T01:01:02Z</DateUtc></FrequencyChange></FrequencyChanges></Clock>\n",60.03,1,1387177507,0,,-999999,15,15025,t,42824,57849,6/7/2014,18:01:02,1:01:02 AM,2,Session2,SessionsList,0,,-999999,9,703096,t,36843,739939,690386,2,1,2,3,,,,,3,1,3,,,,NonCued2,MiniBlocks1,,1052370,,,2,1,r,-999999,15,1087953,r,857,1088810,Green,Congruent,r,White,0,,0,17,1083955,,0,0,,,,,,,,,,,,,Pictures\white.bmp,3000,2000,Pictures\GreenLeft.bmp,,,,2,1,2,,,,,,,StimulusPr,Pictures\black.bmp,NonCuedStim2,Left
POP_2,27040,1,"<?xml version=""1.0""?>\n<Clock xmlns:dt=""urn:schemas-microsoft-com:datatypes""><Description dt:dt=""string"">E-Prime Primary Realtime Clock</Description><StartTime><Timestamp dt:dt=""int"">0</Timestamp><DateUtc dt:dt=""string"">2014-06-08T01:01:02Z</DateUtc></StartTime><FrequencyChanges><FrequencyChange><Frequency dt:dt=""r8"">2793040000</Frequency><Timestamp dt:dt=""r8"">1.08044709683149E+15</Timestamp><Current dt:dt=""r8"">0</Current><DateUtc dt:dt=""string"">2014-06-08T01:01:02Z</DateUtc></FrequencyChange></FrequencyChanges></Clock>\n",60.03,1,1387177507,0,,-999999,15,15025,t,42824,57849,6/7/2014,18:01:02,1:01:02 AM,2,Session2,SessionsList,0,,-999999,9,703096,t,36843,739939,690386,2,1,2,3,,,,,3,1,3,,,,NonCued2,MiniBlocks1,,1052370,,,3,0,r,-999999,11,1095949,b,2196,1098145,Red,Incongruent,r,White,0,,0,13,1091951,,0,0,,,,,,,,,,,,,Pictures\white.bmp,3000,2000,Pictures\black.bmp,,,,3,1,3,,,,,,,StimulusPr,Pictures\RedRight.bmp,NonCuedStim2,Right
POP_2,27040,1,"<?xml version=""1.0""?>\n<Clock xmlns:dt=""urn:schemas-microsoft-com:datatypes""><Description dt:dt=""string"">E-Prime Primary Realtime Clock</Description><StartTime><Timestamp dt:dt=""int"">0</Timestamp><DateUtc dt:dt=""string"">2014-06-08T01:01:02Z</DateUtc></StartTime><FrequencyChanges><FrequencyChange><Frequency dt:dt=""r8"">2793040000</Frequency><Timestamp dt:dt=""r8"">1.08044709683149E+15</Timestamp><Current dt:dt=""r8"">0</Current><DateUtc dt:dt=""string"">2014-06-08T01:01:02Z</DateUtc></FrequencyChange></FrequencyChanges></Clock>\n",60.03,1,1387177507,0,,-999999,15,15025,t,42824,57849,6/7/2014,18:01:02,1:01:02 AM,2,Session2,SessionsList,0,,-999999,9,703096,t,36843,739939,690386,2,1,2,3,,,,,3,1,3,,,,NonCued2,MiniBlocks1,,1052370,,,4,1,r,-999999,4,1106943,r,409,1107352,Green,Congruent,r,White,0,,0,8,1101946,,0,0,,,,,,,,,,,,,Pictures\white.bmp,4000,16000,Pictures\GreenLeft.bmp,,,,4,1,4,,,,,,,StimulusPr,Pictures\black.bmp,NonCuedStim2,Left
POP_2,27040,1,"<?xml version=""1.0""?>\n<Clock xmlns:dt=""urn:schemas-microsoft-com:datatypes""><Description dt:dt=""string"">E-Prime Primary Realtime Clock</Description><StartTime><Timestamp dt:dt=""int"">0</Timestamp><DateUtc dt:dt=""string"">2014-06-08T01:01:02Z</DateUtc></StartTime><FrequencyChanges><FrequencyChange><Frequency dt:dt=""r8"">2793040000</Frequency><Timestamp dt:dt=""r8"">1.08044709683149E+15</Timestamp><Current dt:dt=""r8"">0</Current><DateUtc dt:dt=""string"">2014-06-08T01:01:02Z</DateUtc></FrequencyChange></FrequencyChanges></Clock>\n",60.03,1,1387177507,0,,-999999,15,15025,t,42824,57849,6/7/2014,18:01:02,1:01:02 AM,2,Session2,SessionsList,0,,-999999,9,703096,t,36843,739939,690386,2,1,2,3,,,,,3,1,3,,,,NonCued2,MiniBlocks1,,1052370,,,5,1,r,-999999,9,1131947,r,892,1132839,Green,Congruent,r,White,0,,0,13,1124951,,0,0,,,,,,,,,,,,,Pictures\white.bmp,6000,4000,Pictures\GreenLeft.bmp,,,,5,1,5,,,,,,,StimulusPr,Pictures\black.bmp,NonCuedStim2,Left
POP_2,27040,1,"<?xml version=""1.0""?>\n<Clock xmlns:dt=""urn:schemas-microsoft-com:datatypes""><Description dt:dt=""string"">E-Prime Primary Realtime Clock</Description><StartTime><Timestamp dt:dt=""int"">0</Timestamp><DateUtc dt:dt=""string"">2014-06-08T01:01:02Z</DateUtc></StartTime><FrequencyChanges><FrequencyChange><Frequency dt:dt=""r8"">2793040000</Frequency><Timestamp dt:dt=""r8"">1.08044709683149E+15</Timestamp><Current dt:dt=""r8"">0</Current><DateUtc dt:dt=""string"">2014-06-08T01:01:02Z</DateUtc></FrequencyChange></FrequencyChanges></Clock>\n",60.03,1,1387177507,0,,-999999,15,15025,t,42824,57849,6/7/2014,18:01:02,1:01:02 AM,2,Session2,SessionsList,0,,-999999,9,703096,t,36843,739939,690386,2,1,2,3,,,,,3,1,3,,,,NonCued2,MiniBlocks1,,1052370,,,6,1,b,-999999,4,1141942,b,1064,1143006,Red,Incongruent,b,White,0,,0,6,1137944,,0,0,,,,,,,,,,,,,Pictures\white.bmp,3000,4000,Pictures\RedLeft.bmp,,,,6,1,6,,,,,,,StimulusPr,Pictures\black.bmp,NonCuedStim2,Left
POP_2,27040,1,"<?xml version=""1.0""?>\n<Clock xmlns:dt=""urn:schemas-microsoft-com:datatypes""><Description dt:dt=""string"">E-Prime Primary Realtime Clock</Description><StartTime><Timestamp dt:dt=""int"">0</Timestamp><DateUtc dt:dt=""string"">2014-06-08T01:01:02Z</DateUtc></StartTime><FrequencyChanges><FrequencyChange><Frequency dt:dt=""r8"">2793040000</Frequency><Timestamp dt:dt=""r8"">1.08044709683149E+15</Timestamp><Current dt:dt=""r8"">0</Current><DateUtc dt:dt=""string"">2014-06-08T01:01:02Z</DateUtc></FrequencyChange></FrequencyChanges></Clock>\n",60.03,1,1387177507,0,,-999999,15,15025,t,42824,57849,6/7/2014,18:01:02,1:01:02 AM,2,Session2,SessionsList,0,,-999999,9,703096,t,36843,739939,690386,2,1,2,3,,,,,3,1,3,,,,NonCued2,MiniBlocks1,,1052370,,,7,1,b,-999999,15,1153953,b,602,1154555,Green,Congruent,b,White,0,,0,17,1148955,,0,0,,,,,,,,,,,,,Pictures\white.bmp,4000,16000,Pictures\black.bmp,,,,7,1,7,,,,,,,StimulusPr,Pictures\GreenRight.bmp,NonCuedStim2,Right
POP_2,27040,1,"<?xml version=""1.0""?>\n<Clock xmlns:dt=""urn:schemas-microsoft-com:datatypes""><Description dt:dt=""string"">E-Prime Primary Realtime Clock</Description><StartTime><Timestamp dt:dt=""int"">0</Timestamp><DateUtc dt:dt=""string"">2014-06-08T01:01:02Z</DateUtc></StartTime><FrequencyChanges><FrequencyChange><Frequency dt:dt=""r8"">2793040000</Frequency><Timestamp dt:dt=""r8"">1.08044709683149E+15</Timestamp><Current dt:dt=""r8"">0</Current><DateUtc dt:dt=""string"">2014-06-08T01:01:02Z</DateUtc></FrequencyChange></FrequencyChanges></Clock>\n",60.03,1,1387177507,0,,-999999,15,15025,t,42824,57849,6/7/2014,18:01:02,1:01:02 AM,2,Session2,SessionsList,0,,-999999,9,703096,t,36843,739939,690386,2,1,2,3,,,,,3,1,3,,,,NonCued2,MiniBlocks1,,1052370,,,8,1,r,-999999,17,1181955,r,815,1182770,Green,Congruent,r,White,0,,0,6,1171944,,0,0,,,,,,,,,,,,,Pictures\white.bmp,9000,2000,Pictures\GreenLeft.bmp,,,,8,1,8,,,,,,,StimulusPr,Pictures\black.bmp,NonCuedStim2,Left
POP_2,27040,1,"<?xml version=""1.0""?>\n<Clock xmlns:dt=""urn:schemas-microsoft-com:datatypes""><Description dt:dt=""string"">E-Prime Primary Realtime Clock</Description><StartTime><Timestamp dt:dt=""int"">0</Timestamp><DateUtc dt:dt=""string"">2014-06-08T01:01:02Z</DateUtc></StartTime><FrequencyChanges><FrequencyChange><Frequency dt:dt=""r8"">2793040000</Frequency><Timestamp dt:dt=""r8"">1.08044709683149E+15</Timestamp><Current dt:dt=""r8"">0</Current><DateUtc dt:dt=""string"">2014-06-08T01:01:02Z</DateUtc></FrequencyChange></FrequencyChanges></Clock>\n",60.03,1,1387177507,0,,-999999,15,15025,t,42824,57849,6/7/2014,18:01:02,1:01:02 AM,2,Session2,SessionsList,0,,-999999,9,703096,t,36843,739939,690386,2,1,2,3,,,,,3,1,3,,,,NonCued2,MiniBlocks1,,1052370,,,9,1,b,-999999,13,1189951,b,967,1190918,Green,Congruent,b,White,0,,0,15,1185953,,0,0,,,,,,,,,,,,,Pictures\white.bmp,3000,10000,Pictures\black.bmp,,,,9,1,9,,,,,,,StimulusPr,Pictures\GreenRight.bmp,NonCuedStim2,Right
POP_2,27040,1,"<?xml version=""1.0""?>\n<Clock xmlns:dt=""urn:schemas-microsoft-com:datatypes""><Description dt:dt=""string"">E-Prime Primary Realtime Clock</Description><StartTime><Timestamp dt:dt=""int"">0</Timestamp><DateUtc dt:dt=""string"">2014-06-08T01:01:02Z</DateUtc></StartTime><FrequencyChanges><FrequencyChange><Frequency dt:dt=""r8"">2793040000</Frequency><Timestamp dt:dt=""r8"">1.08044709683149E+15</Timestamp><Current dt:dt=""r8"">0</Current><DateUtc dt:dt=""string"">2014-06-08T01:01:02Z</DateUtc></FrequencyChange></FrequencyChanges></Clock>\n",60.03,1,1387177507,0,,-999999,15,15025,t,42824,57849,6/7/2014,18:01:02,1:01:02 AM,2,Session2,SessionsList,0,,-999999,9,703096,t,36843,739939,690386,2,1,2,3,,,,,3,1,3,,,,NonCued2,MiniBlocks1,,1052370,,,10,1,b,-999999,4,1206943,b,674,1207617,Green,Congruent,b,White,0,,0,7,1202945,,0,0,,,,,,,,,,,,,Pictures\white.bmp,3000,2000,Pictures\black.bmp,,,,10,1,10,,,,,,,StimulusPr,Pictures\GreenRight.bmp,NonCuedStim2,Right
POP_2,27040,1,"<?xml version=""1.0""?>\n<Clock xmlns:dt=""urn:schemas-microsoft-com:datatypes""><Description dt:dt=""string"">E-Prime Primary Realtime Clock</Description><StartTime><Timestamp dt:dt=""int"">0</Timestamp><DateUtc dt:dt=""string"">2014-06-08T01:01:02Z</DateUtc></StartTime><FrequencyChanges><FrequencyChange><Frequency dt:dt=""r8"">2793040000</Frequency><Timestamp dt:dt=""r8"">1.08044709683149E+15</Timestamp><Current dt:dt=""r8"">0</Current><DateUtc dt:dt=""string"">2014-06-08T01:01:02Z</DateUtc></FrequencyChange></FrequencyChanges></Clock>\n",60.03,1,1387177507,0,,-999999,15,15025,t,42824,57849,6/7/2014,18:01:02,1:01:02 AM,2,Session2,SessionsList,0,,-999999,9,703096,t,36843,739939,690386,2,1,2,4,,1209641,,,4,1,4,,,,Cued2,MiniBlocks1,,,,,1,1,b,-999999,11,1226949,b,537,1227486,White,Congruent,b,Green,0,,0,15,1219953,,0,0,,,,1,1,1,,,,,,,Pictures\green.bmp,6000,4000,Pictures\black.bmp,,,,,,,,,,,,,StimulusPr,Pictures\right.bmp,CuedStim2,Right
POP_2,27040,1,"<?xml version=""1.0""?>\n<Clock xmlns:dt=""urn:schemas-microsoft-com:datatypes""><Description dt:dt=""string"">E-Prime Primary Realtime Clock</Description><StartTime><Timestamp dt:dt=""int"">0</Timestamp><DateUtc dt:dt=""string"">2014-06-08T01:01:02Z</DateUtc></StartTime><FrequencyChanges><FrequencyChange><Frequency dt:dt=""r8"">2793040000</Frequency><Timestamp dt:dt=""r8"">1.08044709683149E+15</Timestamp><Current dt:dt=""r8"">0</Current><DateUtc dt:dt=""string"">2014-06-08T01:01:02Z</DateUtc></FrequencyChange></FrequencyChanges></Clock>\n",60.03,1,1387177507,0,,-999999,15,15025,t,42824,57849,6/7/2014,18:01:02,1:01:02 AM,2,Session2,SessionsList,0,,-999999,9,703096,t,36843,739939,690386,2,1,2,4,,1209641,,,4,1,4,,,,Cued2,MiniBlocks1,,,,,2,1,b,-999999,5,1242925,b,446,1243371,White,Congruent,b,Green,0,,0,8,1232946,,0,0,,,,2,1,2,,,,,,,Pictures\green.bmp,9000,10000,Pictures\black.bmp,,,,,,,,,,,,,StimulusPr,Pictures\right.bmp,CuedStim2,Right
POP_2,27040,1,"<?xml version=""1.0""?>\n<Clock xmlns:dt=""urn:schemas-microsoft-com:datatypes""><Description dt:dt=""string"">E-Prime Primary Realtime Clock</Description><StartTime><Timestamp dt:dt=""int"">0</Timestamp><DateUtc dt:dt=""string"">2014-06-08T01:01:02Z</DateUtc></StartTime><FrequencyChanges><FrequencyChange><Frequency dt:dt=""r8"">2793040000</Frequency><Timestamp dt:dt=""r8"">1.08044709683149E+15</Timestamp><Current dt:dt=""r8"">0</Current><DateUtc dt:dt=""string"">2014-06-08T01:01:02Z</DateUtc></FrequencyChange></FrequencyChanges></Clock>\n",60.03,1,1387177507,0,,-999999,15,15025,t,42824,57849,6/7/2014,18:01:02,1:01:02 AM,2,Session2,SessionsList,0,,-999999,9,703096,t,36843,739939,690386,2,1,2,4,,1209641,,,4,1,4,,,,Cued2,MiniBlocks1,,,,,3,1,r,-999999,12,1258950,r,679,1259629,White,Incongruent,r,Red,0,,0,14,1254952,,0,0,,,,3,1,3,,,,,,,Pictures\red.bmp,3000,2000,Pictures\black.bmp,,,,,,,,,,,,,StimulusPr,Pictures\right.bmp,CuedStim2,Right
POP_2,27040,1,"<?xml version=""1.0""?>\n<Clock xmlns:dt=""urn:schemas-microsoft-com:datatypes""><Description dt:dt=""string"">E-Prime Primary Realtime Clock</Description><StartTime><Timestamp dt:dt=""int"">0</Timestamp><DateUtc dt:dt=""string"">2014-06-08T01:01:02Z</DateUtc></StartTime><FrequencyChanges><FrequencyChange><Frequency dt:dt=""r8"">2793040000</Frequency><Timestamp dt:dt=""r8"">1.08044709683149E+15</Timestamp><Current dt:dt=""r8"">0</Current><DateUtc dt:dt=""string"">2014-06-08T01:01:02Z</DateUtc></FrequencyChange></FrequencyChanges></Clock>\n",60.03,1,1387177507,0,,-999999,15,15025,t,42824,57849,6/7/2014,18:01:02,1:01:02 AM,2,Session2,SessionsList,0,,-999999,9,703096,t,36843,739939,690386,2,1,2,4,,1209641,,,4,1,4,,,,Cued2,MiniBlocks1,,,,,4,0,r,-999999,6,1269944,b,1170,1271114,White,Congruent,r,Green,0,,0,10,1262948,,0,0,,,,4,1,4,,,,,,,Pictures\green.bmp,6000,16000,Pictures\left.bmp,,,,,,,,,,,,,StimulusPr,Pictures\black.bmp,CuedStim2,Left
POP_2,27040,1,"<?xml version=""1.0""?>\n<Clock xmlns:dt=""urn:schemas-microsoft-com:datatypes""><Description dt:dt=""string"">E-Prime Primary Realtime Clock</Description><StartTime><Timestamp dt:dt=""int"">0</Timestamp><DateUtc dt:dt=""string"">2014-06-08T01:01:02Z</DateUtc></StartTime><FrequencyChanges><FrequencyChange><Frequency dt:dt=""r8"">2793040000</Frequency><Timestamp dt:dt=""r8"">1.08044709683149E+15</Timestamp><Current dt:dt=""r8"">0</Current><DateUtc dt:dt=""string"">2014-06-08T01:01:02Z</DateUtc></FrequencyChange></FrequencyChanges></Clock>\n",60.03,1,1387177507,0,,-999999,15,15025,t,42824,57849,6/7/2014,18:01:02,1:01:02 AM,2,Session2,SessionsList,0,,-999999,9,703096,t,36843,739939,690386,2,1,2,4,,1209641,,,4,1,4,,,,Cued2,MiniBlocks1,,,,,5,1,b,-999999,12,1292950,b,1506,1294456,White,Congruent,b,Green,0,,0,14,1288952,,0,0,,,,5,1,5,,,,,,,Pictures\green.bmp,3000,2000,Pictures\black.bmp,,,,,,,,,,,,,StimulusPr,Pictures\right.bmp,CuedStim2,Right
POP_2,27040,1,"<?xml version=""1.0""?>\n<Clock xmlns:dt=""urn:schemas-microsoft-com:datatypes""><Description dt:dt=""string"">E-Prime Primary Realtime Clock</Description><StartTime><Timestamp dt:dt=""int"">0</Timestamp><DateUtc dt:dt=""string"">2014-06-08T01:01:02Z</DateUtc></StartTime><FrequencyChanges><FrequencyChange><Frequency dt:dt=""r8"">2793040000</Frequency><Timestamp dt:dt=""r8"">1.08044709683149E+15</Timestamp><Current dt:dt=""r8"">0</Current><DateUtc dt:dt=""string"">2014-06-08T01:01:02Z</DateUtc></FrequencyChange></FrequencyChanges></Clock>\n",60.03,1,1387177507,0,,-999999,15,15025,t,42824,57849,6/7/2014,18:01:02,1:01:02 AM,2,Session2,SessionsList,0,,-999999,9,703096,t,36843,739939,690386,2,1,2,4,,1209641,,,4,1,4,,,,Cued2,MiniBlocks1,,,,,6,1,r,-999999,7,1301945,r,721,1302666,White,Congruent,r,Green,0,,0,9,1297947,,0,0,,,,6,1,6,,,,,,,Pictures\green.bmp,3000,2000,Pictures\left.bmp,,,,,,,,,,,,,StimulusPr,Pictures\black.bmp,CuedStim2,Left
POP_2,27040,1,"<?xml version=""1.0""?>\n<Clock xmlns:dt=""urn:schemas-microsoft-com:datatypes""><Description dt:dt=""string"">E-Prime Primary Realtime Clock</Description><StartTime><Timestamp dt:dt=""int"">0</Timestamp><DateUtc dt:dt=""string"">2014-06-08T01:01:02Z</DateUtc></StartTime><FrequencyChanges><FrequencyChange><Frequency dt:dt=""r8"">2793040000</Frequency><Timestamp dt:dt=""r8"">1.08044709683149E+15</Timestamp><Current dt:dt=""r8"">0</Current><DateUtc dt:dt=""string"">2014-06-08T01:01:02Z</DateUtc></FrequencyChange></FrequencyChanges></Clock>\n",60.03,1,1387177507,0,,-999999,15,15025,t,42824,57849,6/7/2014,18:01:02,1:01:02 AM,2,Session2,SessionsList,0,,-999999,9,703096,t,36843,739939,690386,2,1,2,4,,1209641,,,4,1,4,,,,Cued2,MiniBlocks1,,,,,7,1,b,-999999,18,1312956,b,1184,1314140,White,Incongruent,b,Red,0,,0,5,1305943,,0,0,,,,7,1,7,,,,,,,Pictures\red.bmp,6000,4000,Pictures\left.bmp,,,,,,,,,,,,,StimulusPr,Pictures\black.bmp,CuedStim2,Left
POP_2,27040,1,"<?xml version=""1.0""?>\n<Clock xmlns:dt=""urn:schemas-microsoft-com:datatypes""><Description dt:dt=""string"">E-Prime Primary Realtime Clock</Description><StartTime><Timestamp dt:dt=""int"">0</Timestamp><DateUtc dt:dt=""string"">2014-06-08T01:01:02Z</DateUtc></StartTime><FrequencyChanges><FrequencyChange><Frequency dt:dt=""r8"">2793040000</Frequency><Timestamp dt:dt=""r8"">1.08044709683149E+15</Timestamp><Current dt:dt=""r8"">0</Current><DateUtc dt:dt=""string"">2014-06-08T01:01:02Z</DateUtc></FrequencyChange></FrequencyChanges></Clock>\n",60.03,1,1387177507,0,,-999999,15,15025,t,42824,57849,6/7/2014,18:01:02,1:01:02 AM,2,Session2,SessionsList,0,,-999999,9,703096,t,36843,739939,690386,2,1,2,4,,1209641,,,4,1,4,,,,Cued2,MiniBlocks1,,,,,8,1,b,-999999,12,1324950,b,653,1325603,White,Congruent,b,Green,0,,0,15,1319953,,0,0,,,,8,1,8,,,,,,,Pictures\green.bmp,4000,4000,Pictures\black.bmp,,,,,,,,,,,,,StimulusPr,Pictures\right.bmp,CuedStim2,Right
POP_2,27040,1,"<?xml version=""1.0""?>\n<Clock xmlns:dt=""urn:schemas-microsoft-com:datatypes""><Description dt:dt=""string"">E-Prime Primary Realtime Clock</Description><StartTime><Timestamp dt:dt=""int"">0</Timestamp><DateUtc dt:dt=""string"">2014-06-08T01:01:02Z</DateUtc></StartTime><FrequencyChanges><FrequencyChange><Frequency dt:dt=""r8"">2793040000</Frequency><Timestamp dt:dt=""r8"">1.08044709683149E+15</Timestamp><Current dt:dt=""r8"">0</Current><DateUtc dt:dt=""string"">2014-06-08T01:01:02Z</DateUtc></FrequencyChange></FrequencyChanges></Clock>\n",60.03,1,1387177507,0,,-999999,15,15025,t,42824,57849,6/7/2014,18:01:02,1:01:02 AM,2,Session2,SessionsList,0,,-999999,9,703096,t,36843,739939,690386,2,1,2,4,,1209641,,,4,1,4,,,,Cued2,MiniBlocks1,,,,,9,0,b,-999999,5,1340942,r,626,1341568,White,Incongruent,b,Red,0,,0,9,1330947,,0,0,,,,9,1,9,,,,,,,Pictures\red.bmp,9000,10000,Pictures\left.bmp,,,,,,,,,,,,,StimulusPr,Pictures\black.bmp,CuedStim2,Left
POP_2,27040,1,"<?xml version=""1.0""?>\n<Clock xmlns:dt=""urn:schemas-microsoft-com:datatypes""><Description dt:dt=""string"">E-Prime Primary Realtime Clock</Description><StartTime><Timestamp dt:dt=""int"">0</Timestamp><DateUtc dt:dt=""string"">2014-06-08T01:01:02Z</DateUtc></StartTime><FrequencyChanges><FrequencyChange><Frequency dt:dt=""r8"">2793040000</Frequency><Timestamp dt:dt=""r8"">1.08044709683149E+15</Timestamp><Current dt:dt=""r8"">0</Current><DateUtc dt:dt=""string"">2014-06-08T01:01:02Z</DateUtc></FrequencyChange></FrequencyChanges></Clock>\n",60.03,1,1387177507,0,,-999999,15,15025,t,42824,57849,6/7/2014,18:01:02,1:01:02 AM,2,Session2,SessionsList,0,,-999999,9,703096,t,36843,739939,690386,2,1,2,4,,1209641,,,4,1,4,,,,Cued2,MiniBlocks1,,,,,10,1,r,-999999,11,1362948,r,846,1363794,White,Congruent,r,Green,0,,0,15,1352953,,0,0,,,,10,1,10,,,,,,,Pictures\green.bmp,9000,10000,Pictures\left.bmp,,,,,,,,,,,,,StimulusPr,Pictures\black.bmp,CuedStim2,Left
