ExperimentName,Subject,Session,Clock.Information,Display.RefreshRate,Group,RandomSeed,Session1Onset.ACC,Session1Onset.CRESP,Session1Onset.DurationError,Session1Onset.OnsetDelay,Session1Onset.OnsetTime,Session1Onset.RESP,Session1Onset.RT,Session1Onset.RTTime,SessionDate,SessionTime,SessionTimeUtc,Block,Procedure[Block],Running[Block],Session2Onset.ACC,Session2Onset.CRESP,Session2Onset.DurationError,Session2Onset.OnsetDelay,Session2Onset.OnsetTime,Session2Onset.RESP,Session2Onset.RT,Session2Onset.RTTime,SessionBreak.OnsetTime,SessionsList,SessionsList.Cycle,SessionsList.Sample,Trial,CuedPrompt1.OnsetTime,CuedPrompt2.OnsetTime,MiniBlocks1,MiniBlocks1.Cycle,MiniBlocks1.Sample,MiniBlocks2,MiniBlocks2.Cycle,MiniBlocks2.Sample,Procedure[Trial],Running[Trial],UncuedPrompt1.OnsetTime,UncuedPrompt2.OnsetTime,SubTrial,Arrow1.ACC,Arrow1.CRESP,Arrow1.DurationError,Arrow1.OnsetDelay,Arrow1.OnsetTime,Arrow1.RESP,Arrow1.RT,Arrow1.RTTime,ArrowColor,Congruence,CorrectResp,Cue,Cue.ACC,Cue.CRESP,Cue.DurationError,Cue.OnsetDelay,Cue.OnsetTime,Cue.RESP,Cue.RT,Cue.RTTime,CuedStim1,CuedStim1.Cycle,CuedStim1.Sample,CuedStim2,CuedStim2.Cycle,CuedStim2.Sample,CuedStim3,CuedStim3.Cycle,CuedStim3.Sample,CuedStim4,CuedStim4.Cycle,CuedStim4.Sample,CueImage,JitterCue,JitterTrial,LeftImage,NonCuedStim1,NonCuedStim1.Cycle,NonCuedStim1.Sample,NonCuedStim2,NonCuedStim2.Cycle,NonCuedStim2.Sample,NonCuedStim3,NonCuedStim3.Cycle,NonCuedStim3.Sample,NonCuedStim4,NonCuedStim4.Cycle,NonCuedStim4.Sample,Procedure[SubTrial],RightImage,Running[SubTrial],Stimulus
POP_2,27009,1,"<?xml version=""1.0""?>\n<Clock xmlns:dt=""urn:schemas-microsoft-com:datatypes""><Description dt:dt=""string"">E-Prime Primary Realtime Clock</Description><StartTime><Timestamp dt:dt=""int"">0</Timestamp><DateUtc dt:dt=""string"">2014-04-23T22:21:35Z</DateUtc></StartTime><FrequencyChanges><FrequencyChange><Frequency dt:dt=""r8"">2793030000</Frequency><Timestamp dt:dt=""r8"">231735262625300</Timestamp><Current dt:dt=""r8"">0</Current><DateUtc dt:dt=""string"">2014-04-23T22:21:35Z</DateUtc></FrequencyChange></FrequencyChanges></Clock>\n",60.03,1,867860621,0,,-999999,6,30695,t,83492,114187,4/23/2014,15:21:35,,1,Session1,SessionsList,,,,,,,,,,1,1,1,1,114220,,1,1,1,,,,Cued1,MiniBlocks1,,,1,1,r,-999999,59,128246,r,894,129140,White,Congruent,r,Green,0,,0,28,123215,,0,0,1,1,1,,,,,,,,,,Pictures\green.bmp,4000,4000,Pictures\left.bmp,,,,,,,,,,,,,StimulusPr,Pictures\black.bmp,CuedStim1,Left
POP_2,27009,1,"<?xml version=""1.0""?>\n<Clock xmlns:dt=""urn:schemas-microsoft-com:datatypes""><Description dt:dt=""string"">E-Prime Primary Realtime Clock</Description><StartTime><Timestamp dt:dt=""int"">0</Timestamp><DateUtc dt:dt=""string"">2014-04-23T22:21:35Z</DateUtc></StartTime><FrequencyChanges><FrequencyChange><Frequency dt:dt=""r8"">2793030000</Frequency><Timestamp dt:dt=""r8"">231735262625300</Timestamp><Current dt:dt=""r8"">0</Current><DateUtc dt:dt=""string"">2014-04-23T22:21:35Z</DateUtc></FrequencyChange></FrequencyChanges></Clock>\n",60.03,1,867860621,0,,-999999,6,30695,t,83492,114187,4/23/2014,15:21:35,,1,Session1,SessionsList,,,,,,,,,,1,1,1,1,114220,,1,1,1,,,,Cued1,MiniBlocks1,,,2,1,b,-999999,35,141206,b,387,141593,White,Congruent,b,Green,0,,0,23,134210,,0,0,2,1,2,,,,,,,,,,Pictures\green.bmp,6000,2000,Pictures\black.bmp,,,,,,,,,,,,,StimulusPr,Pictures\right.bmp,CuedStim1,Right
POP_2,27009,1,"<?xml version=""1.0""?>\n<Clock xmlns:dt=""urn:schemas-microsoft-com:datatypes""><Description dt:dt=""string"">E-Prime Primary Realtime Clock</Description><StartTime><Timestamp dt:dt=""int"">0</Timestamp><DateUtc dt:dt=""string"">2014-04-23T22:21:35Z</DateUtc></StartTime><FrequencyChanges><FrequencyChange><Frequency dt:dt=""r8"">2793030000</Frequency><Timestamp dt:dt=""r8"">231735262625300</Timestamp><Current dt:dt=""r8"">0</Current><DateUtc dt:dt=""string"">2014-04-23T22:21:35Z</DateUtc></FrequencyChange></FrequencyChanges></Clock>\n",60.03,1,867860621,0,,-999999,6,30695,t,83492,114187,4/23/2014,15:21:35,,1,Session1,SessionsList,,,,,,,,,,1,1,1,1,114220,,1,1,1,,,,Cued1,MiniBlocks1,,,3,1,b,-999999,22,149202,b,485,149687,White,Congruent,b,Green,0,,0,18,145188,,0,0,3,1,3,,,,,,,,,,Pictures\green.bmp,3000,2000,Pictures\black.bmp,,,,,,,,,,,,,StimulusPr,Pictures\right.bmp,CuedStim1,Right
POP_2,27009,1,"<?xml version=""1.0""?>\n<Clock xmlns:dt=""urn:schemas-microsoft-com:datatypes""><Description dt:dt=""string"">E-Prime Primary Realtime Clock</Description><StartTime><Timestamp dt:dt=""int"">0</Timestamp><DateUtc dt:dt=""string"">2014-04-23T22:21:35Z</DateUtc></StartTime><FrequencyChanges><FrequencyChange><Frequency dt:dt=""r8"">2793030000</Frequency><Timestamp dt:dt=""r8"">231735262625300</Timestamp><Current dt:dt=""r8"">0</Current><DateUtc dt:dt=""string"">2014-04-23T22:21:35Z</DateUtc></FrequencyChange></FrequencyChanges></Clock>\n",60.03,1,867860621,0,,-999999,6,30695,t,83492,114187,4/23/2014,15:21:35,,1,Session1,SessionsList,,,,,,,,,,1,1,1,1,114220,,1,1,1,,,,Cued1,MiniBlocks1,,,4,1,b,-999999,11,157198,b,504,157702,White,Incongruent,b,Red,0,,0,29,153200,,0,0,4,1,4,,,,,,,,,,Pictures\red.bmp,3000,16000,Pictures\left.bmp,,,,,,,,,,,,,StimulusPr,Pictures\black.bmp,CuedStim1,Left
POP_2,27009,1,"<?xml version=""1.0""?>\n<Clock xmlns:dt=""urn:schemas-microsoft-com:datatypes""><Description dt:dt=""string"">E-Prime Primary Realtime Clock</Description><StartTime><Timestamp dt:dt=""int"">0</Timestamp><DateUtc dt:dt=""string"">2014-04-23T22:21:35Z</DateUtc></StartTime><FrequencyChanges><FrequencyChange><Frequency dt:dt=""r8"">2793030000</Frequency><Timestamp dt:dt=""r8"">231735262625300</Timestamp><Current dt:dt=""r8"">0</Current><DateUtc dt:dt=""string"">2014-04-23T22:21:35Z</DateUtc></FrequencyChange></FrequencyChanges></Clock>\n",60.03,1,867860621,0,,-999999,6,30695,t,83492,114187,4/23/2014,15:21:35,,1,Session1,SessionsList,,,,,,,,,,1,1,1,1,114220,,1,1,1,,,,Cued1,MiniBlocks1,,,5,1,r,-999999,11,179187,r,515,179702,White,Congruent,r,Green,0,,0,19,175206,,0,0,5,1,5,,,,,,,,,,Pictures\green.bmp,3000,16000,Pictures\left.bmp,,,,,,,,,,,,,StimulusPr,Pictures\black.bmp,CuedStim1,Left
POP_2,27009,1,"<?xml version=""1.0""?>\n<Clock xmlns:dt=""urn:schemas-microsoft-com:datatypes""><Description dt:dt=""string"">E-Prime Primary Realtime Clock</Description><StartTime><Timestamp dt:dt=""int"">0</Timestamp><DateUtc dt:dt=""string"">2014-04-23T22:21:35Z</DateUtc></StartTime><FrequencyChanges><FrequencyChange><Frequency dt:dt=""r8"">2793030000</Frequency><Timestamp dt:dt=""r8"">231735262625300</Timestamp><Current dt:dt=""r8"">0</Current><DateUtc dt:dt=""string"">2014-04-23T22:21:35Z</DateUtc></FrequencyChange></FrequencyChanges></Clock>\n",60.03,1,867860621,0,,-999999,6,30695,t,83492,114187,4/23/2014,15:21:35,,1,Session1,SessionsList,,,,,,,,,,1,1,1,1,114220,,1,1,1,,,,Cued1,MiniBlocks1,,,6,1,r,-999999,19,207190,r,528,207718,White,Congruent,r,Green,0,,0,8,197179,,0,0,6,1,6,,,,,,,,,,Pictures\green.bmp,9000,10000,Pictures\left.bmp,,,,,,,,,,,,,StimulusPr,Pictures\black.bmp,CuedStim1,Left
POP_2,27009,1,"<?xml version=""1.0""?>\n<Clock xmlns:dt=""urn:schemas-microsoft-com:datatypes""><Description dt:dt=""string"">E-Prime Primary Realtime Clock</Description><StartTime><Timestamp dt:dt=""int"">0</Timestamp><DateUtc dt:dt=""string"">2014-04-23T22:21:35Z</DateUtc></StartTime><FrequencyChanges><FrequencyChange><Frequency dt:dt=""r8"">2793030000</Frequency><Timestamp dt:dt=""r8"">231735262625300</Timestamp><Current dt:dt=""r8"">0</Current><DateUtc dt:dt=""string"">2014-04-23T22:21:35Z</DateUtc></FrequencyChange></FrequencyChanges></Clock>\n",60.03,1,867860621,0,,-999999,6,30695,t,83492,114187,4/23/2014,15:21:35,,1,Session1,SessionsList,,,,,,,,,,1,1,1,1,114220,,1,1,1,,,,Cued1,MiniBlocks1,,,7,1,b,-999999,11,223182,b,416,223598,White,Congruent,b,Green,0,,0,15,219201,,0,0,7,1,7,,,,,,,,,,Pictures\green.bmp,3000,16000,Pictures\black.bmp,,,,,,,,,,,,,StimulusPr,Pictures\right.bmp,CuedStim1,Right
POP_2,27009,1,"<?xml version=""1.0""?>\n<Clock xmlns:dt=""urn:schemas-microsoft-com:datatypes""><Description dt:dt=""string"">E-Prime Primary Realtime Clock</Description><StartTime><Timestamp dt:dt=""int"">0</Timestamp><DateUtc dt:dt=""string"">2014-04-23T22:21:35Z</DateUtc></StartTime><FrequencyChanges><FrequencyChange><Frequency dt:dt=""r8"">2793030000</Frequency><Timestamp dt:dt=""r8"">231735262625300</Timestamp><Current dt:dt=""r8"">0</Current><DateUtc dt:dt=""string"">2014-04-23T22:21:35Z</DateUtc></FrequencyChange></FrequencyChanges></Clock>\n",60.03,1,867860621,0,,-999999,6,30695,t,83492,114187,4/23/2014,15:21:35,,1,Session1,SessionsList,,,,,,,,,,1,1,1,1,114220,,1,1,1,,,,Cued1,MiniBlocks1,,,8,1,r,-999999,18,246204,r,686,246890,White,Incongruent,r,Red,0,,0,20,241206,,0,0,8,1,8,,,,,,,,,,Pictures\red.bmp,4000,2000,Pictures\black.bmp,,,,,,,,,,,,,StimulusPr,Pictures\right.bmp,CuedStim1,Right
POP_2,27009,1,"<?xml version=""1.0""?>\n<Clock xmlns:dt=""urn:schemas-microsoft-com:datatypes""><Description dt:dt=""string"">E-Prime Primary Realtime Clock</Description><StartTime><Timestamp dt:dt=""int"">0</Timestamp><DateUtc dt:dt=""string"">2014-04-23T22:21:35Z</DateUtc></StartTime><FrequencyChanges><FrequencyChange><Frequency dt:dt=""r8"">2793030000</Frequency><Timestamp dt:dt=""r8"">231735262625300</Timestamp><Current dt:dt=""r8"">0</Current><DateUtc dt:dt=""string"">2014-04-23T22:21:35Z</DateUtc></FrequencyChange></FrequencyChanges></Clock>\n",60.03,1,867860621,0,,-999999,6,30695,t,83492,114187,4/23/2014,15:21:35,,1,Session1,SessionsList,,,,,,,,,,1,1,1,1,114220,,1,1,1,,,,Cued1,MiniBlocks1,,,9,1,b,-999999,14,255200,b,627,255827,White,Congruent,b,Green,0,,0,20,250202,,0,0,9,1,9,,,,,,,,,,Pictures\green.bmp,4000,2000,Pictures\black.bmp,,,,,,,,,,,,,StimulusPr,Pictures\right.bmp,CuedStim1,Right
POP_2,27009,1,"<?xml version=""1.0""?>\n<Clock xmlns:dt=""urn:schemas-microsoft-com:datatypes""><Description dt:dt=""string"">E-Prime Primary Realtime Clock</Description><StartTime><Timestamp dt:dt=""int"">0</Timestamp><DateUtc dt:dt=""string"">2014-04-23T22:21:35Z</DateUtc></StartTime><FrequencyChanges><FrequencyChange><Frequency dt:dt=""r8"">2793030000</Frequency><Timestamp dt:dt=""r8"">231735262625300</Timestamp><Current dt:dt=""r8"">0</Current><DateUtc dt:dt=""string"">2014-04-23T22:21:35Z</DateUtc></FrequencyChange></FrequencyChanges></Clock>\n",60.03,1,867860621,0,,-999999,6,30695,t,83492,114187,4/23/2014,15:21:35,,1,Session1,SessionsList,,,,,,,,,,1,1,1,1,114220,,1,1,1,,,,Cued1,MiniBlocks1,,,10,1,r,-999999,25,263196,r,443,263639,White,Congruent,r,Green,0,,0,10,259181,,0,0,10,1,10,,,,,,,,,,Pictures\green.bmp,3000,2000,Pictures\left.bmp,,,,,,,,,,,,,StimulusPr,Pictures\black.bmp,CuedStim1,Left
POP_2,27009,1,"<?xml version=""1.0""?>\n<Clock xmlns:dt=""urn:schemas-microsoft-com:datatypes""><Description dt:dt=""string"">E-Prime Primary Realtime Clock</Description><StartTime><Timestamp dt:dt=""int"">0</Timestamp><DateUtc dt:dt=""string"">2014-04-23T22:21:35Z</DateUtc></StartTime><FrequencyChanges><FrequencyChange><Frequency dt:dt=""r8"">2793030000</Frequency><Timestamp dt:dt=""r8"">231735262625300</Timestamp><Current dt:dt=""r8"">0</Current><DateUtc dt:dt=""string"">2014-04-23T22:21:35Z</DateUtc></FrequencyChange></FrequencyChanges></Clock>\n",60.03,1,867860621,0,,-999999,6,30695,t,83492,114187,4/23/2014,15:21:35,,1,Session1,SessionsList,,,,,,,,,,1,1,1,2,,,2,1,2,,,,NonCued1,MiniBlocks1,265661,,1,0,r,-999999,38,281220,b,544,281764,Green,Congruent,r,White,0,,0,38,276222,,0,0,,,,,,,,,,,,,Pictures\white.bmp,4000,2000,Pictures\GreenLeft.bmp,1,1,1,,,,,,,,,,StimulusPr,Pictures\black.bmp,NonCuedStim1,Left
POP_2,27009,1,"<?xml version=""1.0""?>\n<Clock xmlns:dt=""urn:schemas-microsoft-com:datatypes""><Description dt:dt=""string"">E-Prime Primary Realtime Clock</Description><StartTime><Timestamp dt:dt=""int"">0</Timestamp><DateUtc dt:dt=""string"">2014-04-23T22:21:35Z</DateUtc></StartTime><FrequencyChanges><FrequencyChange><Frequency dt:dt=""r8"">2793030000</Frequency><Timestamp dt:dt=""r8"">231735262625300</Timestamp><Current dt:dt=""r8"">0</Current><DateUtc dt:dt=""string"">2014-04-23T22:21:35Z</DateUtc></FrequencyChange></FrequencyChanges></Clock>\n",60.03,1,867860621,0,,-999999,6,30695,t,83492,114187,4/23/2014,15:21:35,,1,Session1,SessionsList,,,,,,,,,,1,1,1,2,,,2,1,2,,,,NonCued1,MiniBlocks1,265661,,2,1,b,-999999,34,292214,b,426,292640,Green,Congruent,b,White,0,,0,15,285201,,0,0,,,,,,,,,,,,,Pictures\white.bmp,6000,16000,Pictures\black.bmp,2,1,2,,,,,,,,,,StimulusPr,Pictures\GreenRight.bmp,NonCuedStim1,Right
POP_2,27009,1,"<?xml version=""1.0""?>\n<Clock xmlns:dt=""urn:schemas-microsoft-com:datatypes""><Description dt:dt=""string"">E-Prime Primary Realtime Clock</Description><StartTime><Timestamp dt:dt=""int"">0</Timestamp><DateUtc dt:dt=""string"">2014-04-23T22:21:35Z</DateUtc></StartTime><FrequencyChanges><FrequencyChange><Frequency dt:dt=""r8"">2793030000</Frequency><Timestamp dt:dt=""r8"">231735262625300</Timestamp><Current dt:dt=""r8"">0</Current><DateUtc dt:dt=""string"">2014-04-23T22:21:35Z</DateUtc></FrequencyChange></FrequencyChanges></Clock>\n",60.03,1,867860621,0,,-999999,6,30695,t,83492,114187,4/23/2014,15:21:35,,1,Session1,SessionsList,,,,,,,,,,1,1,1,2,,,2,1,2,,,,NonCued1,MiniBlocks1,265661,,3,1,r,-999999,33,317202,r,776,317978,Red,Incongruent,r,White,0,,0,19,310205,,0,0,,,,,,,,,,,,,Pictures\white.bmp,6000,10000,Pictures\black.bmp,3,1,3,,,,,,,,,,StimulusPr,Pictures\RedRight.bmp,NonCuedStim1,Right
POP_2,27009,1,"<?xml version=""1.0""?>\n<Clock xmlns:dt=""urn:schemas-microsoft-com:datatypes""><Description dt:dt=""string"">E-Prime Primary Realtime Clock</Description><StartTime><Timestamp dt:dt=""int"">0</Timestamp><DateUtc dt:dt=""string"">2014-04-23T22:21:35Z</DateUtc></StartTime><FrequencyChanges><FrequencyChange><Frequency dt:dt=""r8"">2793030000</Frequency><Timestamp dt:dt=""r8"">231735262625300</Timestamp><Current dt:dt=""r8"">0</Current><DateUtc dt:dt=""string"">2014-04-23T22:21:35Z</DateUtc></FrequencyChange></FrequencyChanges></Clock>\n",60.03,1,867860621,0,,-999999,6,30695,t,83492,114187,4/23/2014,15:21:35,,1,Session1,SessionsList,,,,,,,,,,1,1,1,2,,,2,1,2,,,,NonCued1,MiniBlocks1,265661,,4,1,r,-999999,20,339191,r,417,339608,Green,Congruent,r,White,0,,0,18,329196,,0,0,,,,,,,,,,,,,Pictures\white.bmp,9000,10000,Pictures\GreenLeft.bmp,4,1,4,,,,,,,,,,StimulusPr,Pictures\black.bmp,NonCuedStim1,Left
POP_2,27009,1,"<?xml version=""1.0""?>\n<Clock xmlns:dt=""urn:schemas-microsoft-com:datatypes""><Description dt:dt=""string"">E-Prime Primary Realtime Clock</Description><StartTime><Timestamp dt:dt=""int"">0</Timestamp><DateUtc dt:dt=""string"">2014-04-23T22:21:35Z</DateUtc></StartTime><FrequencyChanges><FrequencyChange><Frequency dt:dt=""r8"">2793030000</Frequency><Timestamp dt:dt=""r8"">231735262625300</Timestamp><Current dt:dt=""r8"">0</Current><DateUtc dt:dt=""string"">2014-04-23T22:21:35Z</DateUtc></FrequencyChange></FrequencyChanges></Clock>\n",60.03,1,867860621,0,,-999999,6,30695,t,83492,114187,4/23/2014,15:21:35,,1,Session1,SessionsList,,,,,,,,,,1,1,1,2,,,2,1,2,,,,NonCued1,MiniBlocks1,265661,,5,1,b,-999999,14,355200,b,580,355780,Green,Congruent,b,White,0,,0,16,351202,,0,0,,,,,,,,,,,,,Pictures\white.bmp,3000,2000,Pictures\black.bmp,5,1,5,,,,,,,,,,StimulusPr,Pictures\GreenRight.bmp,NonCuedStim1,Right
POP_2,27009,1,"<?xml version=""1.0""?>\n<Clock xmlns:dt=""urn:schemas-microsoft-com:datatypes""><Description dt:dt=""string"">E-Prime Primary Realtime Clock</Description><StartTime><Timestamp dt:dt=""int"">0</Timestamp><DateUtc dt:dt=""string"">2014-04-23T22:21:35Z</DateUtc></StartTime><FrequencyChanges><FrequencyChange><Frequency dt:dt=""r8"">2793030000</Frequency><Timestamp dt:dt=""r8"">231735262625300</Timestamp><Current dt:dt=""r8"">0</Current><DateUtc dt:dt=""string"">2014-04-23T22:21:35Z</DateUtc></FrequencyChange></FrequencyChanges></Clock>\n",60.03,1,867860621,0,,-999999,6,30695,t,83492,114187,4/23/2014,15:21:35,,1,Session1,SessionsList,,,,,,,,,,1,1,1,2,,,2,1,2,,,,NonCued1,MiniBlocks1,265661,,6,1,b,-999999,26,364212,b,927,365139,Red,Incongruent,b,White,0,,0,12,359198,,0,0,,,,,,,,,,,,,Pictures\white.bmp,4000,16000,Pictures\RedLeft.bmp,6,1,6,,,,,,,,,,StimulusPr,Pictures\black.bmp,NonCuedStim1,Left
POP_2,27009,1,"<?xml version=""1.0""?>\n<Clock xmlns:dt=""urn:schemas-microsoft-com:datatypes""><Description dt:dt=""string"">E-Prime Primary Realtime Clock</Description><StartTime><Timestamp dt:dt=""int"">0</Timestamp><DateUtc dt:dt=""string"">2014-04-23T22:21:35Z</DateUtc></StartTime><FrequencyChanges><FrequencyChange><Frequency dt:dt=""r8"">2793030000</Frequency><Timestamp dt:dt=""r8"">231735262625300</Timestamp><Current dt:dt=""r8"">0</Current><DateUtc dt:dt=""string"">2014-04-23T22:21:35Z</DateUtc></FrequencyChange></FrequencyChanges></Clock>\n",60.03,1,867860621,0,,-999999,6,30695,t,83492,114187,4/23/2014,15:21:35,,1,Session1,SessionsList,,,,,,,,,,1,1,1,2,,,2,1,2,,,,NonCued1,MiniBlocks1,265661,,7,1,b,-999999,14,386184,b,768,386952,Green,Congruent,b,White,0,,0,17,382203,,0,0,,,,,,,,,,,,,Pictures\white.bmp,3000,4000,Pictures\black.bmp,7,1,7,,,,,,,,,,StimulusPr,Pictures\GreenRight.bmp,NonCuedStim1,Right
POP_2,27009,1,"<?xml version=""1.0""?>\n<Clock xmlns:dt=""urn:schemas-microsoft-com:datatypes""><Description dt:dt=""string"">E-Prime Primary Realtime Clock</Description><StartTime><Timestamp dt:dt=""int"">0</Timestamp><DateUtc dt:dt=""string"">2014-04-23T22:21:35Z</DateUtc></StartTime><FrequencyChanges><FrequencyChange><Frequency dt:dt=""r8"">2793030000</Frequency><Timestamp dt:dt=""r8"">231735262625300</Timestamp><Current dt:dt=""r8"">0</Current><DateUtc dt:dt=""string"">2014-04-23T22:21:35Z</DateUtc></FrequencyChange></FrequencyChanges></Clock>\n",60.03,1,867860621,0,,-999999,6,30695,t,83492,114187,4/23/2014,15:21:35,,1,Session1,SessionsList,,,,,,,,,,1,1,1,2,,,2,1,2,,,,NonCued1,MiniBlocks1,265661,,8,1,b,-999999,10,396196,b,428,396624,Green,Congruent,b,White,0,,0,9,392181,,0,0,,,,,,,,,,,,,Pictures\white.bmp,3000,4000,Pictures\black.bmp,8,1,8,,,,,,,,,,StimulusPr,Pictures\GreenRight.bmp,NonCuedStim1,Right
POP_2,27009,1,"<?xml version=""1.0""?>\n<Clock xmlns:dt=""urn:schemas-microsoft-com:datatypes""><Description dt:dt=""string"">E-Prime Primary Realtime Clock</Description><StartTime><Timestamp dt:dt=""int"">0</Timestamp><DateUtc dt:dt=""string"">2014-04-23T22:21:35Z</DateUtc></StartTime><FrequencyChanges><FrequencyChange><Frequency dt:dt=""r8"">2793030000</Frequency><Timestamp dt:dt=""r8"">231735262625300</Timestamp><Current dt:dt=""r8"">0</Current><DateUtc dt:dt=""string"">2014-04-23T22:21:35Z</DateUtc></FrequencyChange></FrequencyChanges></Clock>\n",60.03,1,867860621,0,,-999999,6,30695,t,83492,114187,4/23/2014,15:21:35,,1,Session1,SessionsList,,,,,,,,,,1,1,1,2,,,2,1,2,,,,NonCued1,MiniBlocks1,265661,,9,1,b,-999999,18,412204,b,732,412936,Red,Incongruent,b,White,0,,0,23,402209,,0,0,,,,,,,,,,,,,Pictures\white.bmp,9000,2000,Pictures\RedLeft.bmp,9,1,9,,,,,,,,,,StimulusPr,Pictures\black.bmp,NonCuedStim1,Left
POP_2,27009,1,"<?xml version=""1.0""?>\n<Clock xmlns:dt=""urn:schemas-microsoft-com:datatypes""><Description dt:dt=""string"">E-Prime Primary Realtime Clock</Description><StartTime><Timestamp dt:dt=""int"">0</Timestamp><DateUtc dt:dt=""string"">2014-04-23T22:21:35Z</DateUtc></StartTime><FrequencyChanges><FrequencyChange><Frequency dt:dt=""r8"">2793030000</Frequency><Timestamp dt:dt=""r8"">231735262625300</Timestamp><Current dt:dt=""r8"">0</Current><DateUtc dt:dt=""string"">2014-04-23T22:21:35Z</DateUtc></FrequencyChange></FrequencyChanges></Clock>\n",60.03,1,867860621,0,,-999999,6,30695,t,83492,114187,4/23/2014,15:21:35,,1,Session1,SessionsList,,,,,,,,,,1,1,1,2,,,2,1,2,,,,NonCued1,MiniBlocks1,265661,,10,1,r,-999999,13,423199,r,690,423889,Green,Congruent,r,White,0,,0,16,416202,,0,0,,,,,,,,,,,,,Pictures\white.bmp,6000,2000,Pictures\GreenLeft.bmp,10,1,10,,,,,,,,,,StimulusPr,Pictures\black.bmp,NonCuedStim1,Left
POP_2,27009,1,"<?xml version=""1.0""?>\n<Clock xmlns:dt=""urn:schemas-microsoft-com:datatypes""><Description dt:dt=""string"">E-Prime Primary Realtime Clock</Description><StartTime><Timestamp dt:dt=""int"">0</Timestamp><DateUtc dt:dt=""string"">2014-04-23T22:21:35Z</DateUtc></StartTime><FrequencyChanges><FrequencyChange><Frequency dt:dt=""r8"">2793030000</Frequency><Timestamp dt:dt=""r8"">231735262625300</Timestamp><Current dt:dt=""r8"">0</Current><DateUtc dt:dt=""string"">2014-04-23T22:21:35Z</DateUtc></FrequencyChange></FrequencyChanges></Clock>\n",60.03,1,867860621,0,,-999999,6,30695,t,83492,114187,4/23/2014,15:21:35,,1,Session1,SessionsList,,,,,,,,,,1,1,1,3,,,3,1,3,,,,NonCued2,MiniBlocks1,,425914,1,1,b,-999999,18,446204,b,638,446842,Green,Congruent,b,White,0,,0,21,436192,,0,0,,,,,,,,,,,,,Pictures\white.bmp,9000,10000,Pictures\black.bmp,,,,1,1,1,,,,,,,StimulusPr,Pictures\GreenRight.bmp,NonCuedStim2,Right
POP_2,27009,1,"<?xml version=""1.0""?>\n<Clock xmlns:dt=""urn:schemas-microsoft-com:datatypes""><Description dt:dt=""string"">E-Prime Primary Realtime Clock</Description><StartTime><Timestamp dt:dt=""int"">0</Timestamp><DateUtc dt:dt=""string"">2014-04-23T22:21:35Z</DateUtc></StartTime><FrequencyChanges><FrequencyChange><Frequency dt:dt=""r8"">2793030000</Frequency><Timestamp dt:dt=""r8"">231735262625300</Timestamp><Current dt:dt=""r8"">0</Current><DateUtc dt:dt=""string"">2014-04-23T22:21:35Z</DateUtc></FrequencyChange></FrequencyChanges></Clock>\n",60.03,1,867860621,0,,-999999,6,30695,t,83492,114187,4/23/2014,15:21:35,,1,Session1,SessionsList,,,,,,,,,,1,1,1,3,,,3,1,3,,,,NonCued2,MiniBlocks1,,425914,2,1,r,-999999,9,462180,r,553,462733,Green,Congruent,r,White,0,,0,10,458181,,0,0,,,,,,,,,,,,,Pictures\white.bmp,3000,2000,Pictures\GreenLeft.bmp,,,,2,1,2,,,,,,,StimulusPr,Pictures\black.bmp,NonCuedStim2,Left
POP_2,27009,1,"<?xml version=""1.0""?>\n<Clock xmlns:dt=""urn:schemas-microsoft-com:datatypes""><Description dt:dt=""string"">E-Prime Primary Realtime Clock</Description><StartTime><Timestamp dt:dt=""int"">0</Timestamp><DateUtc dt:dt=""string"">2014-04-23T22:21:35Z</DateUtc></StartTime><FrequencyChanges><FrequencyChange><Frequency dt:dt=""r8"">2793030000</Frequency><Timestamp dt:dt=""r8"">231735262625300</Timestamp><Current dt:dt=""r8"">0</Current><DateUtc dt:dt=""string"">2014-04-23T22:21:35Z</DateUtc></FrequencyChange></FrequencyChanges></Clock>\n",60.03,1,867860621,0,,-999999,6,30695,t,83492,114187,4/23/2014,15:21:35,,1,Session1,SessionsList,,,,,,,,,,1,1,1,3,,,3,1,3,,,,NonCued2,MiniBlocks1,,425914,3,1,r,-999999,21,470192,r,655,470847,Red,Incongruent,r,White,0,,0,10,466194,,0,0,,,,,,,,,,,,,Pictures\white.bmp,3000,2000,Pictures\black.bmp,,,,3,1,3,,,,,,,StimulusPr,Pictures\RedRight.bmp,NonCuedStim2,Right
POP_2,27009,1,"<?xml version=""1.0""?>\n<Clock xmlns:dt=""urn:schemas-microsoft-com:datatypes""><Description dt:dt=""string"">E-Prime Primary Realtime Clock</Description><StartTime><Timestamp dt:dt=""int"">0</Timestamp><DateUtc dt:dt=""string"">2014-04-23T22:21:35Z</DateUtc></StartTime><FrequencyChanges><FrequencyChange><Frequency dt:dt=""r8"">2793030000</Frequency><Timestamp dt:dt=""r8"">231735262625300</Timestamp><Current dt:dt=""r8"">0</Current><DateUtc dt:dt=""string"">2014-04-23T22:21:35Z</DateUtc></FrequencyChange></FrequencyChanges></Clock>\n",60.03,1,867860621,0,,-999999,6,30695,t,83492,114187,4/23/2014,15:21:35,,1,Session1,SessionsList,,,,,,,,,,1,1,1,3,,,3,1,3,,,,NonCued2,MiniBlocks1,,425914,4,1,r,-999999,18,479188,r,639,479827,Green,Congruent,r,White,0,,0,19,474190,,0,0,,,,,,,,,,,,,Pictures\white.bmp,4000,16000,Pictures\GreenLeft.bmp,,,,4,1,4,,,,,,,StimulusPr,Pictures\black.bmp,NonCuedStim2,Left
POP_2,27009,1,"<?xml version=""1.0""?>\n<Clock xmlns:dt=""urn:schemas-microsoft-com:datatypes""><Description dt:dt=""string"">E-Prime Primary Realtime Clock</Description><StartTime><Timestamp dt:dt=""int"">0</Timestamp><DateUtc dt:dt=""string"">2014-04-23T22:21:35Z</DateUtc></StartTime><FrequencyChanges><FrequencyChange><Frequency dt:dt=""r8"">2793030000</Frequency><Timestamp dt:dt=""r8"">231735262625300</Timestamp><Current dt:dt=""r8"">0</Current><DateUtc dt:dt=""string"">2014-04-23T22:21:35Z</DateUtc></FrequencyChange></FrequencyChanges></Clock>\n",60.03,1,867860621,0,,-999999,6,30695,t,83492,114187,4/23/2014,15:21:35,,1,Session1,SessionsList,,,,,,,,,,1,1,1,3,,,3,1,3,,,,NonCued2,MiniBlocks1,,425914,5,1,r,-999999,22,504208,r,635,504843,Green,Congruent,r,White,0,,0,24,497195,,0,0,,,,,,,,,,,,,Pictures\white.bmp,6000,4000,Pictures\GreenLeft.bmp,,,,5,1,5,,,,,,,StimulusPr,Pictures\black.bmp,NonCuedStim2,Left
POP_2,27009,1,"<?xml version=""1.0""?>\n<Clock xmlns:dt=""urn:schemas-microsoft-com:datatypes""><Description dt:dt=""string"">E-Prime Primary Realtime Clock</Description><StartTime><Timestamp dt:dt=""int"">0</Timestamp><DateUtc dt:dt=""string"">2014-04-23T22:21:35Z</DateUtc></StartTime><FrequencyChanges><FrequencyChange><Frequency dt:dt=""r8"">2793030000</Frequency><Timestamp dt:dt=""r8"">231735262625300</Timestamp><Current dt:dt=""r8"">0</Current><DateUtc dt:dt=""string"">2014-04-23T22:21:35Z</DateUtc></FrequencyChange></FrequencyChanges></Clock>\n",60.03,1,867860621,0,,-999999,6,30695,t,83492,114187,4/23/2014,15:21:35,,1,Session1,SessionsList,,,,,,,,,,1,1,1,3,,,3,1,3,,,,NonCued2,MiniBlocks1,,425914,6,1,b,-999999,17,514203,b,733,514936,Red,Incongruent,b,White,0,,0,18,510189,,0,0,,,,,,,,,,,,,Pictures\white.bmp,3000,4000,Pictures\RedLeft.bmp,,,,6,1,6,,,,,,,StimulusPr,Pictures\black.bmp,NonCuedStim2,Left
POP_2,27009,1,"<?xml version=""1.0""?>\n<Clock xmlns:dt=""urn:schemas-microsoft-com:datatypes""><Description dt:dt=""string"">E-Prime Primary Realtime Clock</Description><StartTime><Timestamp dt:dt=""int"">0</Timestamp><DateUtc dt:dt=""string"">2014-04-23T22:21:35Z</DateUtc></StartTime><FrequencyChanges><FrequencyChange><Frequency dt:dt=""r8"">2793030000</Frequency><Timestamp dt:dt=""r8"">231735262625300</Timestamp><Current dt:dt=""r8"">0</Current><DateUtc dt:dt=""string"">2014-04-23T22:21:35Z</DateUtc></FrequencyChange></FrequencyChanges></Clock>\n",60.03,1,867860621,0,,-999999,6,30695,t,83492,114187,4/23/2014,15:21:35,,1,Session1,SessionsList,,,,,,,,,,1,1,1,3,,,3,1,3,,,,NonCued2,MiniBlocks1,,425914,7,1,b,-999999,12,525198,b,769,525967,Green,Congruent,b,White,0,,0,14,520184,,0,0,,,,,,,,,,,,,Pictures\white.bmp,4000,16000,Pictures\black.bmp,,,,7,1,7,,,,,,,StimulusPr,Pictures\GreenRight.bmp,NonCuedStim2,Right
POP_2,27009,1,"<?xml version=""1.0""?>\n<Clock xmlns:dt=""urn:schemas-microsoft-com:datatypes""><Description dt:dt=""string"">E-Prime Primary Realtime Clock</Description><StartTime><Timestamp dt:dt=""int"">0</Timestamp><DateUtc dt:dt=""string"">2014-04-23T22:21:35Z</DateUtc></StartTime><FrequencyChanges><FrequencyChange><Frequency dt:dt=""r8"">2793030000</Frequency><Timestamp dt:dt=""r8"">231735262625300</Timestamp><Current dt:dt=""r8"">0</Current><DateUtc dt:dt=""string"">2014-04-23T22:21:35Z</DateUtc></FrequencyChange></FrequencyChanges></Clock>\n",60.03,1,867860621,0,,-999999,6,30695,t,83492,114187,4/23/2014,15:21:35,,1,Session1,SessionsList,,,,,,,,,,1,1,1,3,,,3,1,3,,,,NonCued2,MiniBlocks1,,425914,8,1,r,-999999,14,553184,r,697,553881,Green,Congruent,r,White,0,,0,11,543189,,0,0,,,,,,,,,,,,,Pictures\white.bmp,9000,2000,Pictures\GreenLeft.bmp,,,,8,1,8,,,,,,,StimulusPr,Pictures\black.bmp,NonCuedStim2,Left
POP_2,27009,1,"<?xml version=""1.0""?>\n<Clock xmlns:dt=""urn:schemas-microsoft-com:datatypes""><Description dt:dt=""string"">E-Prime Primary Realtime Clock</Description><StartTime><Timestamp dt:dt=""int"">0</Timestamp><DateUtc dt:dt=""string"">2014-04-23T22:21:35Z</DateUtc></StartTime><FrequencyChanges><FrequencyChange><Frequency dt:dt=""r8"">2793030000</Frequency><Timestamp dt:dt=""r8"">231735262625300</Timestamp><Current dt:dt=""r8"">0</Current><DateUtc dt:dt=""string"">2014-04-23T22:21:35Z</DateUtc></FrequencyChange></FrequencyChanges></Clock>\n",60.03,1,867860621,0,,-999999,6,30695,t,83492,114187,4/23/2014,15:21:35,,1,Session1,SessionsList,,,,,,,,,,1,1,1,3,,,3,1,3,,,,NonCued2,MiniBlocks1,,425914,9,1,b,-999999,10,561180,b,740,561920,Green,Congruent,b,White,0,,0,13,557199,,0,0,,,,,,,,,,,,,Pictures\white.bmp,3000,10000,Pictures\black.bmp,,,,9,1,9,,,,,,,StimulusPr,Pictures\GreenRight.bmp,NonCuedStim2,Right
POP_2,27009,1,"<?xml version=""1.0""?>\n<Clock xmlns:dt=""urn:schemas-microsoft-com:datatypes""><Description dt:dt=""string"">E-Prime Primary Realtime Clock</Description><StartTime><Timestamp dt:dt=""int"">0</Timestamp><DateUtc dt:dt=""string"">2014-04-23T22:21:35Z</DateUtc></StartTime><FrequencyChanges><FrequencyChange><Frequency dt:dt=""r8"">2793030000</Frequency><Timestamp dt:dt=""r8"">231735262625300</Timestamp><Current dt:dt=""r8"">0</Current><DateUtc dt:dt=""string"">2014-04-23T22:21:35Z</DateUtc></FrequencyChange></FrequencyChanges></Clock>\n",60.03,1,867860621,0,,-999999,6,30695,t,83492,114187,4/23/2014,15:21:35,,1,Session1,SessionsList,,,,,,,,,,1,1,1,3,,,3,1,3,,,,NonCued2,MiniBlocks1,,425914,10,1,b,-999999,10,577189,b,653,577842,Green,Congruent,b,White,0,,0,21,573207,,0,0,,,,,,,,,,,,,Pictures\white.bmp,3000,2000,Pictures\black.bmp,,,,10,1,10,,,,,,,StimulusPr,Pictures\GreenRight.bmp,NonCuedStim2,Right
POP_2,27009,1,"<?xml version=""1.0""?>\n<Clock xmlns:dt=""urn:schemas-microsoft-com:datatypes""><Description dt:dt=""string"">E-Prime Primary Realtime Clock</Description><StartTime><Timestamp dt:dt=""int"">0</Timestamp><DateUtc dt:dt=""string"">2014-04-23T22:21:35Z</DateUtc></StartTime><FrequencyChanges><FrequencyChange><Frequency dt:dt=""r8"">2793030000</Frequency><Timestamp dt:dt=""r8"">231735262625300</Timestamp><Current dt:dt=""r8"">0</Current><DateUtc dt:dt=""string"">2014-04-23T22:21:35Z</DateUtc></FrequencyChange></FrequencyChanges></Clock>\n",60.03,1,867860621,0,,-999999,6,30695,t,83492,114187,4/23/2014,15:21:35,,1,Session1,SessionsList,,,,,,,,,,1,1,1,4,,579871,4,1,4,,,,Cued2,MiniBlocks1,,,1,1,b,-999999,9,597195,b,537,597732,White,Congruent,b,Green,0,,0,13,590199,,0,0,,,,1,1,1,,,,,,,Pictures\green.bmp,6000,4000,Pictures\black.bmp,,,,,,,,,,,,,StimulusPr,Pictures\right.bmp,CuedStim2,Right
POP_2,27009,1,"<?xml version=""1.0""?>\n<Clock xmlns:dt=""urn:schemas-microsoft-com:datatypes""><Description dt:dt=""string"">E-Prime Primary Realtime Clock</Description><StartTime><Timestamp dt:dt=""int"">0</Timestamp><DateUtc dt:dt=""string"">2014-04-23T22:21:35Z</DateUtc></StartTime><FrequencyChanges><FrequencyChange><Frequency dt:dt=""r8"">2793030000</Frequency><Timestamp dt:dt=""r8"">231735262625300</Timestamp><Current dt:dt=""r8"">0</Current><DateUtc dt:dt=""string"">2014-04-23T22:21:35Z</DateUtc></FrequencyChange></FrequencyChanges></Clock>\n",60.03,1,867860621,0,,-999999,6,30695,t,83492,114187,4/23/2014,15:21:35,,1,Session1,SessionsList,,,,,,,,,,1,1,1,4,,579871,4,1,4,,,,Cued2,MiniBlocks1,,,2,1,b,-999999,12,613187,b,499,613686,White,Congruent,b,Green,0,,0,22,603192,,0,0,,,,2,1,2,,,,,,,Pictures\green.bmp,9000,10000,Pictures\black.bmp,,,,,,,,,,,,,StimulusPr,Pictures\right.bmp,CuedStim2,Right
POP_2,27009,1,"<?xml version=""1.0""?>\n<Clock xmlns:dt=""urn:schemas-microsoft-com:datatypes""><Description dt:dt=""string"">E-Prime Primary Realtime Clock</Description><StartTime><Timestamp dt:dt=""int"">0</Timestamp><DateUtc dt:dt=""string"">2014-04-23T22:21:35Z</DateUtc></StartTime><FrequencyChanges><FrequencyChange><Frequency dt:dt=""r8"">2793030000</Frequency><Timestamp dt:dt=""r8"">231735262625300</Timestamp><Current dt:dt=""r8"">0</Current><DateUtc dt:dt=""string"">2014-04-23T22:21:35Z</DateUtc></FrequencyChange></FrequencyChanges></Clock>\n",60.03,1,867860621,0,,-999999,6,30695,t,83492,114187,4/23/2014,15:21:35,,1,Session1,SessionsList,,,,,,,,,,1,1,1,4,,579871,4,1,4,,,,Cued2,MiniBlocks1,,,3,1,r,-999999,16,629196,r,527,629723,White,Incongruent,r,Red,0,,0,21,625198,,0,0,,,,3,1,3,,,,,,,Pictures\red.bmp,3000,2000,Pictures\black.bmp,,,,,,,,,,,,,StimulusPr,Pictures\right.bmp,CuedStim2,Right
POP_2,27009,1,"<?xml version=""1.0""?>\n<Clock xmlns:dt=""urn:schemas-microsoft-com:datatypes""><Description dt:dt=""string"">E-Prime Primary Realtime Clock</Description><StartTime><Timestamp dt:dt=""int"">0</Timestamp><DateUtc dt:dt=""string"">2014-04-23T22:21:35Z</DateUtc></StartTime><FrequencyChanges><FrequencyChange><Frequency dt:dt=""r8"">2793030000</Frequency><Timestamp dt:dt=""r8"">231735262625300</Timestamp><Current dt:dt=""r8"">0</Current><DateUtc dt:dt=""string"">2014-04-23T22:21:35Z</DateUtc></FrequencyChange></FrequencyChanges></Clock>\n",60.03,1,867860621,0,,-999999,6,30695,t,83492,114187,4/23/2014,15:21:35,,1,Session1,SessionsList,,,,,,,,,,1,1,1,4,,579871,4,1,4,,,,Cued2,MiniBlocks1,,,4,1,r,-999999,21,640207,r,729,640936,White,Congruent,r,Green,0,,0,7,633177,,0,0,,,,4,1,4,,,,,,,Pictures\green.bmp,6000,16000,Pictures\left.bmp,,,,,,,,,,,,,StimulusPr,Pictures\black.bmp,CuedStim2,Left
POP_2,27009,1,"<?xml version=""1.0""?>\n<Clock xmlns:dt=""urn:schemas-microsoft-com:datatypes""><Description dt:dt=""string"">E-Prime Primary Realtime Clock</Description><StartTime><Timestamp dt:dt=""int"">0</Timestamp><DateUtc dt:dt=""string"">2014-04-23T22:21:35Z</DateUtc></StartTime><FrequencyChanges><FrequencyChange><Frequency dt:dt=""r8"">2793030000</Frequency><Timestamp dt:dt=""r8"">231735262625300</Timestamp><Current dt:dt=""r8"">0</Current><DateUtc dt:dt=""string"">2014-04-23T22:21:35Z</DateUtc></FrequencyChange></FrequencyChanges></Clock>\n",60.03,1,867860621,0,,-999999,6,30695,t,83492,114187,4/23/2014,15:21:35,,1,Session1,SessionsList,,,,,,,,,,1,1,1,4,,579871,4,1,4,,,,Cued2,MiniBlocks1,,,5,1,b,-999999,10,662180,b,771,662951,White,Congruent,b,Green,0,,0,12,658182,,0,0,,,,5,1,5,,,,,,,Pictures\green.bmp,3000,2000,Pictures\black.bmp,,,,,,,,,,,,,StimulusPr,Pictures\right.bmp,CuedStim2,Right
POP_2,27009,1,"<?xml version=""1.0""?>\n<Clock xmlns:dt=""urn:schemas-microsoft-com:datatypes""><Description dt:dt=""string"">E-Prime Primary Realtime Clock</Description><StartTime><Timestamp dt:dt=""int"">0</Timestamp><DateUtc dt:dt=""string"">2014-04-23T22:21:35Z</DateUtc></StartTime><FrequencyChanges><FrequencyChange><Frequency dt:dt=""r8"">2793030000</Frequency><Timestamp dt:dt=""r8"">231735262625300</Timestamp><Current dt:dt=""r8"">0</Current><DateUtc dt:dt=""string"">2014-04-23T22:21:35Z</DateUtc></FrequencyChange></FrequencyChanges></Clock>\n",60.03,1,867860621,0,,-999999,6,30695,t,83492,114187,4/23/2014,15:21:35,,1,Session1,SessionsList,,,,,,,,,,1,1,1,4,,579871,4,1,4,,,,Cued2,MiniBlocks1,,,6,1,r,-999999,22,670192,r,525,670717,White,Congruent,r,Green,0,,0,25,666211,,0,0,,,,6,1,6,,,,,,,Pictures\green.bmp,3000,2000,Pictures\left.bmp,,,,,,,,,,,,,StimulusPr,Pictures\black.bmp,CuedStim2,Left
POP_2,27009,1,"<?xml version=""1.0""?>\n<Clock xmlns:dt=""urn:schemas-microsoft-com:datatypes""><Description dt:dt=""string"">E-Prime Primary Realtime Clock</Description><StartTime><Timestamp dt:dt=""int"">0</Timestamp><DateUtc dt:dt=""string"">2014-04-23T22:21:35Z</DateUtc></StartTime><FrequencyChanges><FrequencyChange><Frequency dt:dt=""r8"">2793030000</Frequency><Timestamp dt:dt=""r8"">231735262625300</Timestamp><Current dt:dt=""r8"">0</Current><DateUtc dt:dt=""string"">2014-04-23T22:21:35Z</DateUtc></FrequencyChange></FrequencyChanges></Clock>\n",60.03,1,867860621,0,,-999999,6,30695,t,83492,114187,4/23/2014,15:21:35,,1,Session1,SessionsList,,,,,,,,,,1,1,1,4,,579871,4,1,4,,,,Cued2,MiniBlocks1,,,7,1,b,-999999,17,681203,b,608,681811,White,Incongruent,b,Red,0,,0,21,674207,,0,0,,,,7,1,7,,,,,,,Pictures\red.bmp,6000,4000,Pictures\left.bmp,,,,,,,,,,,,,StimulusPr,Pictures\black.bmp,CuedStim2,Left
POP_2,27009,1,"<?xml version=""1.0""?>\n<Clock xmlns:dt=""urn:schemas-microsoft-com:datatypes""><Description dt:dt=""string"">E-Prime Primary Realtime Clock</Description><StartTime><Timestamp dt:dt=""int"">0</Timestamp><DateUtc dt:dt=""string"">2014-04-23T22:21:35Z</DateUtc></StartTime><FrequencyChanges><FrequencyChange><Frequency dt:dt=""r8"">2793030000</Frequency><Timestamp dt:dt=""r8"">231735262625300</Timestamp><Current dt:dt=""r8"">0</Current><DateUtc dt:dt=""string"">2014-04-23T22:21:35Z</DateUtc></FrequencyChange></FrequencyChanges></Clock>\n",60.03,1,867860621,0,,-999999,6,30695,t,83492,114187,4/23/2014,15:21:35,,1,Session1,SessionsList,,,,,,,,,,1,1,1,4,,579871,4,1,4,,,,Cued2,MiniBlocks1,,,8,1,b,-999999,11,692181,b,645,692826,White,Congruent,b,Green,0,,0,19,687200,,0,0,,,,8,1,8,,,,,,,Pictures\green.bmp,4000,4000,Pictures\black.bmp,,,,,,,,,,,,,StimulusPr,Pictures\right.bmp,CuedStim2,Right
POP_2,27009,1,"<?xml version=""1.0""?>\n<Clock xmlns:dt=""urn:schemas-microsoft-com:datatypes""><Description dt:dt=""string"">E-Prime Primary Realtime Clock</Description><StartTime><Timestamp dt:dt=""int"">0</Timestamp><DateUtc dt:dt=""string"">2014-04-23T22:21:35Z</DateUtc></StartTime><FrequencyChanges><FrequencyChange><Frequency dt:dt=""r8"">2793030000</Frequency><Timestamp dt:dt=""r8"">231735262625300</Timestamp><Current dt:dt=""r8"">0</Current><DateUtc dt:dt=""string"">2014-04-23T22:21:35Z</DateUtc></FrequencyChange></FrequencyChanges></Clock>\n",60.03,1,867860621,0,,-999999,6,30695,t,83492,114187,4/23/2014,15:21:35,,1,Session1,SessionsList,,,,,,,,,,1,1,1,4,,579871,4,1,4,,,,Cued2,MiniBlocks1,,,9,1,b,-999999,21,708207,b,526,708733,White,Incongruent,b,Red,0,,0,26,698195,,0,0,,,,9,1,9,,,,,,,Pictures\red.bmp,9000,10000,Pictures\left.bmp,,,,,,,,,,,,,StimulusPr,Pictures\black.bmp,CuedStim2,Left
POP_2,27009,1,"<?xml version=""1.0""?>\n<Clock xmlns:dt=""urn:schemas-microsoft-com:datatypes""><Description dt:dt=""string"">E-Prime Primary Realtime Clock</Description><StartTime><Timestamp dt:dt=""int"">0</Timestamp><DateUtc dt:dt=""string"">2014-04-23T22:21:35Z</DateUtc></StartTime><FrequencyChanges><FrequencyChange><Frequency dt:dt=""r8"">2793030000</Frequency><Timestamp dt:dt=""r8"">231735262625300</Timestamp><Current dt:dt=""r8"">0</Current><DateUtc dt:dt=""string"">2014-04-23T22:21:35Z</DateUtc></FrequencyChange></FrequencyChanges></Clock>\n",60.03,1,867860621,0,,-999999,6,30695,t,83492,114187,4/23/2014,15:21:35,,1,Session1,SessionsList,,,,,,,,,,1,1,1,4,,579871,4,1,4,,,,Cued2,MiniBlocks1,,,10,1,r,-999999,10,730196,r,568,730764,White,Congruent,r,Green,0,,0,14,720184,,0,0,,,,10,1,10,,,,,,,Pictures\green.bmp,9000,10000,Pictures\left.bmp,,,,,,,,,,,,,StimulusPr,Pictures\black.bmp,CuedStim2,Left
POP_2,27009,1,"<?xml version=""1.0""?>\n<Clock xmlns:dt=""urn:schemas-microsoft-com:datatypes""><Description dt:dt=""string"">E-Prime Primary Realtime Clock</Description><StartTime><Timestamp dt:dt=""int"">0</Timestamp><DateUtc dt:dt=""string"">2014-04-23T22:21:35Z</DateUtc></StartTime><FrequencyChanges><FrequencyChange><Frequency dt:dt=""r8"">2793030000</Frequency><Timestamp dt:dt=""r8"">231735262625300</Timestamp><Current dt:dt=""r8"">0</Current><DateUtc dt:dt=""string"">2014-04-23T22:21:35Z</DateUtc></FrequencyChange></FrequencyChanges></Clock>\n",60.03,1,867860621,0,,-999999,6,30695,t,83492,114187,4/23/2014,15:21:35,,2,Session2,SessionsList,0,,-999999,6,769692,t,41853,811545,740790,2,1,2,1,,,,,,1,1,1,NonCued3,MiniBlocks2,,,1,1,b,-999999,17,831562,b,421,831983,Green,Congruent,b,White,0,,0,22,821583,,0,0,,,,,,,,,,,,,Pictures\white.bmp,9000,10000,Pictures\black.bmp,,,,,,,1,1,1,,,,StimulusPr,Pictures\GreenRight.bmp,NonCuedStim3,Right
POP_2,27009,1,"<?xml version=""1.0""?>\n<Clock xmlns:dt=""urn:schemas-microsoft-com:datatypes""><Description dt:dt=""string"">E-Prime Primary Realtime Clock</Description><StartTime><Timestamp dt:dt=""int"">0</Timestamp><DateUtc dt:dt=""string"">2014-04-23T22:21:35Z</DateUtc></StartTime><FrequencyChanges><FrequencyChange><Frequency dt:dt=""r8"">2793030000</Frequency><Timestamp dt:dt=""r8"">231735262625300</Timestamp><Current dt:dt=""r8"">0</Current><DateUtc dt:dt=""string"">2014-04-23T22:21:35Z</DateUtc></FrequencyChange></FrequencyChanges></Clock>\n",60.03,1,867860621,0,,-999999,6,30695,t,83492,114187,4/23/2014,15:21:35,,2,Session2,SessionsList,0,,-999999,6,769692,t,41853,811545,740790,2,1,2,1,,,,,,1,1,1,NonCued3,MiniBlocks2,,,2,1,r,-999999,22,853567,r,791,854358,Red,Incongruent,r,White,0,,0,11,843556,,0,0,,,,,,,,,,,,,Pictures\white.bmp,9000,10000,Pictures\black.bmp,,,,,,,2,1,2,,,,StimulusPr,Pictures\RedRight.bmp,NonCuedStim3,Right
POP_2,27009,1,"<?xml version=""1.0""?>\n<Clock xmlns:dt=""urn:schemas-microsoft-com:datatypes""><Description dt:dt=""string"">E-Prime Primary Realtime Clock</Description><StartTime><Timestamp dt:dt=""int"">0</Timestamp><DateUtc dt:dt=""string"">2014-04-23T22:21:35Z</DateUtc></StartTime><FrequencyChanges><FrequencyChange><Frequency dt:dt=""r8"">2793030000</Frequency><Timestamp dt:dt=""r8"">231735262625300</Timestamp><Current dt:dt=""r8"">0</Current><DateUtc dt:dt=""string"">2014-04-23T22:21:35Z</DateUtc></FrequencyChange></FrequencyChanges></Clock>\n",60.03,1,867860621,0,,-999999,6,30695,t,83492,114187,4/23/2014,15:21:35,,2,Session2,SessionsList,0,,-999999,6,769692,t,41853,811545,740790,2,1,2,1,,,,,,1,1,1,NonCued3,MiniBlocks2,,,3,1,r,-999999,14,870559,r,542,871101,Green,Congruent,r,White,0,,0,17,865578,,0,0,,,,,,,,,,,,,Pictures\white.bmp,4000,4000,Pictures\GreenLeft.bmp,,,,,,,3,1,3,,,,StimulusPr,Pictures\black.bmp,NonCuedStim3,Left
POP_2,27009,1,"<?xml version=""1.0""?>\n<Clock xmlns:dt=""urn:schemas-microsoft-com:datatypes""><Description dt:dt=""string"">E-Prime Primary Realtime Clock</Description><StartTime><Timestamp dt:dt=""int"">0</Timestamp><DateUtc dt:dt=""string"">2014-04-23T22:21:35Z</DateUtc></StartTime><FrequencyChanges><FrequencyChange><Frequency dt:dt=""r8"">2793030000</Frequency><Timestamp dt:dt=""r8"">231735262625300</Timestamp><Current dt:dt=""r8"">0</Current><DateUtc dt:dt=""string"">2014-04-23T22:21:35Z</DateUtc></FrequencyChange></FrequencyChanges></Clock>\n",60.03,1,867860621,0,,-999999,6,30695,t,83492,114187,4/23/2014,15:21:35,,2,Session2,SessionsList,0,,-999999,6,769692,t,41853,811545,740790,2,1,2,1,,,,,,1,1,1,NonCued3,MiniBlocks2,,,4,1,b,-999999,25,883586,b,584,884170,Red,Incongruent,b,White,0,,0,11,876572,,0,0,,,,,,,,,,,,,Pictures\white.bmp,6000,4000,Pictures\RedLeft.bmp,,,,,,,4,1,4,,,,StimulusPr,Pictures\black.bmp,NonCuedStim3,Left
POP_2,27009,1,"<?xml version=""1.0""?>\n<Clock xmlns:dt=""urn:schemas-microsoft-com:datatypes""><Description dt:dt=""string"">E-Prime Primary Realtime Clock</Description><StartTime><Timestamp dt:dt=""int"">0</Timestamp><DateUtc dt:dt=""string"">2014-04-23T22:21:35Z</DateUtc></StartTime><FrequencyChanges><FrequencyChange><Frequency dt:dt=""r8"">2793030000</Frequency><Timestamp dt:dt=""r8"">231735262625300</Timestamp><Current dt:dt=""r8"">0</Current><DateUtc dt:dt=""string"">2014-04-23T22:21:35Z</DateUtc></FrequencyChange></FrequencyChanges></Clock>\n",60.03,1,867860621,0,,-999999,6,30695,t,83492,114187,4/23/2014,15:21:35,,2,Session2,SessionsList,0,,-999999,6,769692,t,41853,811545,740790,2,1,2,1,,,,,,1,1,1,NonCued3,MiniBlocks2,,,5,1,b,-999999,20,893581,b,698,894279,Green,Congruent,b,White,0,,0,22,889583,,0,0,,,,,,,,,,,,,Pictures\white.bmp,3000,2000,Pictures\black.bmp,,,,,,,5,1,5,,,,StimulusPr,Pictures\GreenRight.bmp,NonCuedStim3,Right
POP_2,27009,1,"<?xml version=""1.0""?>\n<Clock xmlns:dt=""urn:schemas-microsoft-com:datatypes""><Description dt:dt=""string"">E-Prime Primary Realtime Clock</Description><StartTime><Timestamp dt:dt=""int"">0</Timestamp><DateUtc dt:dt=""string"">2014-04-23T22:21:35Z</DateUtc></StartTime><FrequencyChanges><FrequencyChange><Frequency dt:dt=""r8"">2793030000</Frequency><Timestamp dt:dt=""r8"">231735262625300</Timestamp><Current dt:dt=""r8"">0</Current><DateUtc dt:dt=""string"">2014-04-23T22:21:35Z</DateUtc></FrequencyChange></FrequencyChanges></Clock>\n",60.03,1,867860621,0,,-999999,6,30695,t,83492,114187,4/23/2014,15:21:35,,2,Session2,SessionsList,0,,-999999,6,769692,t,41853,811545,740790,2,1,2,1,,,,,,1,1,1,NonCued3,MiniBlocks2,,,6,1,r,-999999,16,901577,r,593,902170,Green,Congruent,r,White,0,,0,18,897579,,0,0,,,,,,,,,,,,,Pictures\white.bmp,3000,2000,Pictures\GreenLeft.bmp,,,,,,,6,1,6,,,,StimulusPr,Pictures\black.bmp,NonCuedStim3,Left
POP_2,27009,1,"<?xml version=""1.0""?>\n<Clock xmlns:dt=""urn:schemas-microsoft-com:datatypes""><Description dt:dt=""string"">E-Prime Primary Realtime Clock</Description><StartTime><Timestamp dt:dt=""int"">0</Timestamp><DateUtc dt:dt=""string"">2014-04-23T22:21:35Z</DateUtc></StartTime><FrequencyChanges><FrequencyChange><Frequency dt:dt=""r8"">2793030000</Frequency><Timestamp dt:dt=""r8"">231735262625300</Timestamp><Current dt:dt=""r8"">0</Current><DateUtc dt:dt=""string"">2014-04-23T22:21:35Z</DateUtc></FrequencyChange></FrequencyChanges></Clock>\n",60.03,1,867860621,0,,-999999,6,30695,t,83492,114187,4/23/2014,15:21:35,,2,Session2,SessionsList,0,,-999999,6,769692,t,41853,811545,740790,2,1,2,1,,,,,,1,1,1,NonCued3,MiniBlocks2,,,7,1,b,-999999,10,912571,b,737,913308,Green,Congruent,b,White,0,,0,14,905575,,0,0,,,,,,,,,,,,,Pictures\white.bmp,6000,16000,Pictures\black.bmp,,,,,,,7,1,7,,,,StimulusPr,Pictures\GreenRight.bmp,NonCuedStim3,Right
POP_2,27009,1,"<?xml version=""1.0""?>\n<Clock xmlns:dt=""urn:schemas-microsoft-com:datatypes""><Description dt:dt=""string"">E-Prime Primary Realtime Clock</Description><StartTime><Timestamp dt:dt=""int"">0</Timestamp><DateUtc dt:dt=""string"">2014-04-23T22:21:35Z</DateUtc></StartTime><FrequencyChanges><FrequencyChange><Frequency dt:dt=""r8"">2793030000</Frequency><Timestamp dt:dt=""r8"">231735262625300</Timestamp><Current dt:dt=""r8"">0</Current><DateUtc dt:dt=""string"">2014-04-23T22:21:35Z</DateUtc></FrequencyChange></FrequencyChanges></Clock>\n",60.03,1,867860621,0,,-999999,6,30695,t,83492,114187,4/23/2014,15:21:35,,2,Session2,SessionsList,0,,-999999,6,769692,t,41853,811545,740790,2,1,2,1,,,,,,1,1,1,NonCued3,MiniBlocks2,,,8,1,r,-999999,21,934577,r,640,935217,Red,Incongruent,r,White,0,,0,17,930562,,0,0,,,,,,,,,,,,,Pictures\white.bmp,3000,2000,Pictures\black.bmp,,,,,,,8,1,8,,,,StimulusPr,Pictures\RedRight.bmp,NonCuedStim3,Right
POP_2,27009,1,"<?xml version=""1.0""?>\n<Clock xmlns:dt=""urn:schemas-microsoft-com:datatypes""><Description dt:dt=""string"">E-Prime Primary Realtime Clock</Description><StartTime><Timestamp dt:dt=""int"">0</Timestamp><DateUtc dt:dt=""string"">2014-04-23T22:21:35Z</DateUtc></StartTime><FrequencyChanges><FrequencyChange><Frequency dt:dt=""r8"">2793030000</Frequency><Timestamp dt:dt=""r8"">231735262625300</Timestamp><Current dt:dt=""r8"">0</Current><DateUtc dt:dt=""string"">2014-04-23T22:21:35Z</DateUtc></FrequencyChange></FrequencyChanges></Clock>\n",60.03,1,867860621,0,,-999999,6,30695,t,83492,114187,4/23/2014,15:21:35,,2,Session2,SessionsList,0,,-999999,6,769692,t,41853,811545,740790,2,1,2,1,,,,,,1,1,1,NonCued3,MiniBlocks2,,,9,1,r,-999999,15,948570,r,788,949358,Green,Congruent,r,White,0,,0,13,938558,,0,0,,,,,,,,,,,,,Pictures\white.bmp,9000,10000,Pictures\GreenLeft.bmp,,,,,,,9,1,9,,,,StimulusPr,Pictures\black.bmp,NonCuedStim3,Left
POP_2,27009,1,"<?xml version=""1.0""?>\n<Clock xmlns:dt=""urn:schemas-microsoft-com:datatypes""><Description dt:dt=""string"">E-Prime Primary Realtime Clock</Description><StartTime><Timestamp dt:dt=""int"">0</Timestamp><DateUtc dt:dt=""string"">2014-04-23T22:21:35Z</DateUtc></StartTime><FrequencyChanges><FrequencyChange><Frequency dt:dt=""r8"">2793030000</Frequency><Timestamp dt:dt=""r8"">231735262625300</Timestamp><Current dt:dt=""r8"">0</Current><DateUtc dt:dt=""string"">2014-04-23T22:21:35Z</DateUtc></FrequencyChange></FrequencyChanges></Clock>\n",60.03,1,867860621,0,,-999999,6,30695,t,83492,114187,4/23/2014,15:21:35,,2,Session2,SessionsList,0,,-999999,6,769692,t,41853,811545,740790,2,1,2,1,,,,,,1,1,1,NonCued3,MiniBlocks2,,,10,1,r,-999999,17,967577,r,687,968264,Green,Congruent,r,White,0,,0,19,960580,,0,0,,,,,,,,,,,,,Pictures\white.bmp,6000,4000,Pictures\GreenLeft.bmp,,,,,,,10,1,10,,,,StimulusPr,Pictures\black.bmp,NonCuedStim3,Left
POP_2,27009,1,"<?xml version=""1.0""?>\n<Clock xmlns:dt=""urn:schemas-microsoft-com:datatypes""><Description dt:dt=""string"">E-Prime Primary Realtime Clock</Description><StartTime><Timestamp dt:dt=""int"">0</Timestamp><DateUtc dt:dt=""string"">2014-04-23T22:21:35Z</DateUtc></StartTime><FrequencyChanges><FrequencyChange><Frequency dt:dt=""r8"">2793030000</Frequency><Timestamp dt:dt=""r8"">231735262625300</Timestamp><Current dt:dt=""r8"">0</Current><DateUtc dt:dt=""string"">2014-04-23T22:21:35Z</DateUtc></FrequencyChange></FrequencyChanges></Clock>\n",60.03,1,867860621,0,,-999999,6,30695,t,83492,114187,4/23/2014,15:21:35,,2,Session2,SessionsList,0,,-999999,6,769692,t,41853,811545,740790,2,1,2,2,,,,,,2,1,2,Cued3,MiniBlocks2,,,1,1,b,-999999,22,986567,b,415,986982,White,Congruent,b,Green,0,,0,8,982569,,0,0,,,,,,,1,1,1,,,,Pictures\green.bmp,3000,2000,Pictures\black.bmp,,,,,,,,,,,,,StimulusPr,Pictures\right.bmp,CuedStim3,Right
POP_2,27009,1,"<?xml version=""1.0""?>\n<Clock xmlns:dt=""urn:schemas-microsoft-com:datatypes""><Description dt:dt=""string"">E-Prime Primary Realtime Clock</Description><StartTime><Timestamp dt:dt=""int"">0</Timestamp><DateUtc dt:dt=""string"">2014-04-23T22:21:35Z</DateUtc></StartTime><FrequencyChanges><FrequencyChange><Frequency dt:dt=""r8"">2793030000</Frequency><Timestamp dt:dt=""r8"">231735262625300</Timestamp><Current dt:dt=""r8"">0</Current><DateUtc dt:dt=""string"">2014-04-23T22:21:35Z</DateUtc></FrequencyChange></FrequencyChanges></Clock>\n",60.03,1,867860621,0,,-999999,6,30695,t,83492,114187,4/23/2014,15:21:35,,2,Session2,SessionsList,0,,-999999,6,769692,t,41853,811545,740790,2,1,2,2,,,,,,2,1,2,Cued3,MiniBlocks2,,,2,1,b,-999999,14,994563,b,482,995045,White,Congruent,b,Green,0,,0,20,990565,,0,0,,,,,,,2,1,2,,,,Pictures\green.bmp,3000,10000,Pictures\black.bmp,,,,,,,,,,,,,StimulusPr,Pictures\right.bmp,CuedStim3,Right
POP_2,27009,1,"<?xml version=""1.0""?>\n<Clock xmlns:dt=""urn:schemas-microsoft-com:datatypes""><Description dt:dt=""string"">E-Prime Primary Realtime Clock</Description><StartTime><Timestamp dt:dt=""int"">0</Timestamp><DateUtc dt:dt=""string"">2014-04-23T22:21:35Z</DateUtc></StartTime><FrequencyChanges><FrequencyChange><Frequency dt:dt=""r8"">2793030000</Frequency><Timestamp dt:dt=""r8"">231735262625300</Timestamp><Current dt:dt=""r8"">0</Current><DateUtc dt:dt=""string"">2014-04-23T22:21:35Z</DateUtc></FrequencyChange></FrequencyChanges></Clock>\n",60.03,1,867860621,0,,-999999,6,30695,t,83492,114187,4/23/2014,15:21:35,,2,Session2,SessionsList,0,,-999999,6,769692,t,41853,811545,740790,2,1,2,2,,,,,,2,1,2,Cued3,MiniBlocks2,,,3,1,r,-999999,25,1016586,r,747,1017333,White,Congruent,r,Green,0,,0,12,1006557,,0,0,,,,,,,3,1,3,,,,Pictures\green.bmp,9000,2000,Pictures\left.bmp,,,,,,,,,,,,,StimulusPr,Pictures\black.bmp,CuedStim3,Left
POP_2,27009,1,"<?xml version=""1.0""?>\n<Clock xmlns:dt=""urn:schemas-microsoft-com:datatypes""><Description dt:dt=""string"">E-Prime Primary Realtime Clock</Description><StartTime><Timestamp dt:dt=""int"">0</Timestamp><DateUtc dt:dt=""string"">2014-04-23T22:21:35Z</DateUtc></StartTime><FrequencyChanges><FrequencyChange><Frequency dt:dt=""r8"">2793030000</Frequency><Timestamp dt:dt=""r8"">231735262625300</Timestamp><Current dt:dt=""r8"">0</Current><DateUtc dt:dt=""string"">2014-04-23T22:21:35Z</DateUtc></FrequencyChange></FrequencyChanges></Clock>\n",60.03,1,867860621,0,,-999999,6,30695,t,83492,114187,4/23/2014,15:21:35,,2,Session2,SessionsList,0,,-999999,6,769692,t,41853,811545,740790,2,1,2,2,,,,,,2,1,2,Cued3,MiniBlocks2,,,4,1,r,-999999,24,1025581,r,902,1026483,White,Congruent,r,Green,0,,0,22,1020567,,0,0,,,,,,,4,1,4,,,,Pictures\green.bmp,4000,16000,Pictures\left.bmp,,,,,,,,,,,,,StimulusPr,Pictures\black.bmp,CuedStim3,Left
POP_2,27009,1,"<?xml version=""1.0""?>\n<Clock xmlns:dt=""urn:schemas-microsoft-com:datatypes""><Description dt:dt=""string"">E-Prime Primary Realtime Clock</Description><StartTime><Timestamp dt:dt=""int"">0</Timestamp><DateUtc dt:dt=""string"">2014-04-23T22:21:35Z</DateUtc></StartTime><FrequencyChanges><FrequencyChange><Frequency dt:dt=""r8"">2793030000</Frequency><Timestamp dt:dt=""r8"">231735262625300</Timestamp><Current dt:dt=""r8"">0</Current><DateUtc dt:dt=""string"">2014-04-23T22:21:35Z</DateUtc></FrequencyChange></FrequencyChanges></Clock>\n",60.03,1,867860621,0,,-999999,6,30695,t,83492,114187,4/23/2014,15:21:35,,2,Session2,SessionsList,0,,-999999,6,769692,t,41853,811545,740790,2,1,2,2,,,,,,2,1,2,Cued3,MiniBlocks2,,,5,1,r,-999999,16,1047570,r,569,1048139,White,Incongruent,r,Red,0,,0,346,1043906,,0,0,,,,,,,5,1,5,,,,Pictures\red.bmp,3000,4000,Pictures\black.bmp,,,,,,,,,,,,,StimulusPr,Pictures\right.bmp,CuedStim3,Right
POP_2,27009,1,"<?xml version=""1.0""?>\n<Clock xmlns:dt=""urn:schemas-microsoft-com:datatypes""><Description dt:dt=""string"">E-Prime Primary Realtime Clock</Description><StartTime><Timestamp dt:dt=""int"">0</Timestamp><DateUtc dt:dt=""string"">2014-04-23T22:21:35Z</DateUtc></StartTime><FrequencyChanges><FrequencyChange><Frequency dt:dt=""r8"">2793030000</Frequency><Timestamp dt:dt=""r8"">231735262625300</Timestamp><Current dt:dt=""r8"">0</Current><DateUtc dt:dt=""string"">2014-04-23T22:21:35Z</DateUtc></FrequencyChange></FrequencyChanges></Clock>\n",60.03,1,867860621,0,,-999999,6,30695,t,83492,114187,4/23/2014,15:21:35,,2,Session2,SessionsList,0,,-999999,6,769692,t,41853,811545,740790,2,1,2,2,,,,,,2,1,2,Cued3,MiniBlocks2,,,6,1,b,-999999,20,1060581,b,683,1061264,White,Congruent,b,Green,0,,0,7,1053568,,0,0,,,,,,,6,1,6,,,,Pictures\green.bmp,6000,4000,Pictures\black.bmp,,,,,,,,,,,,,StimulusPr,Pictures\right.bmp,CuedStim3,Right
POP_2,27009,1,"<?xml version=""1.0""?>\n<Clock xmlns:dt=""urn:schemas-microsoft-com:datatypes""><Description dt:dt=""string"">E-Prime Primary Realtime Clock</Description><StartTime><Timestamp dt:dt=""int"">0</Timestamp><DateUtc dt:dt=""string"">2014-04-23T22:21:35Z</DateUtc></StartTime><FrequencyChanges><FrequencyChange><Frequency dt:dt=""r8"">2793030000</Frequency><Timestamp dt:dt=""r8"">231735262625300</Timestamp><Current dt:dt=""r8"">0</Current><DateUtc dt:dt=""string"">2014-04-23T22:21:35Z</DateUtc></FrequencyChange></FrequencyChanges></Clock>\n",60.03,1,867860621,0,,-999999,6,30695,t,83492,114187,4/23/2014,15:21:35,,2,Session2,SessionsList,0,,-999999,6,769692,t,41853,811545,740790,2,1,2,2,,,,,,2,1,2,Cued3,MiniBlocks2,,,7,1,r,-999999,15,1071575,r,532,1072107,White,Congruent,r,Green,0,,0,351,1066911,,0,0,,,,,,,7,1,7,,,,Pictures\green.bmp,4000,16000,Pictures\left.bmp,,,,,,,,,,,,,StimulusPr,Pictures\black.bmp,CuedStim3,Left
POP_2,27009,1,"<?xml version=""1.0""?>\n<Clock xmlns:dt=""urn:schemas-microsoft-com:datatypes""><Description dt:dt=""string"">E-Prime Primary Realtime Clock</Description><StartTime><Timestamp dt:dt=""int"">0</Timestamp><DateUtc dt:dt=""string"">2014-04-23T22:21:35Z</DateUtc></StartTime><FrequencyChanges><FrequencyChange><Frequency dt:dt=""r8"">2793030000</Frequency><Timestamp dt:dt=""r8"">231735262625300</Timestamp><Current dt:dt=""r8"">0</Current><DateUtc dt:dt=""string"">2014-04-23T22:21:35Z</DateUtc></FrequencyChange></FrequencyChanges></Clock>\n",60.03,1,867860621,0,,-999999,6,30695,t,83492,114187,4/23/2014,15:21:35,,2,Session2,SessionsList,0,,-999999,6,769692,t,41853,811545,740790,2,1,2,2,,,,,,2,1,2,Cued3,MiniBlocks2,,,8,0,b,-999999,21,1093581,r,682,1094263,White,Incongruent,b,Red,0,,0,23,1089583,,0,0,,,,,,,8,1,8,,,,Pictures\red.bmp,3000,2000,Pictures\left.bmp,,,,,,,,,,,,,StimulusPr,Pictures\black.bmp,CuedStim3,Left
POP_2,27009,1,"<?xml version=""1.0""?>\n<Clock xmlns:dt=""urn:schemas-microsoft-com:datatypes""><Description dt:dt=""string"">E-Prime Primary Realtime Clock</Description><StartTime><Timestamp dt:dt=""int"">0</Timestamp><DateUtc dt:dt=""string"">2014-04-23T22:21:35Z</DateUtc></StartTime><FrequencyChanges><FrequencyChange><Frequency dt:dt=""r8"">2793030000</Frequency><Timestamp dt:dt=""r8"">231735262625300</Timestamp><Current dt:dt=""r8"">0</Current><DateUtc dt:dt=""string"">2014-04-23T22:21:35Z</DateUtc></FrequencyChange></FrequencyChanges></Clock>\n",60.03,1,867860621,0,,-999999,6,30695,t,83492,114187,4/23/2014,15:21:35,,2,Session2,SessionsList,0,,-999999,6,769692,t,41853,811545,740790,2,1,2,2,,,,,,2,1,2,Cued3,MiniBlocks2,,,9,1,r,-999999,17,1101577,r,890,1102467,White,Congruent,r,Green,0,,0,19,1097579,,0,0,,,,,,,9,1,9,,,,Pictures\green.bmp,3000,2000,Pictures\left.bmp,,,,,,,,,,,,,StimulusPr,Pictures\black.bmp,CuedStim3,Left
POP_2,27009,1,"<?xml version=""1.0""?>\n<Clock xmlns:dt=""urn:schemas-microsoft-com:datatypes""><Description dt:dt=""string"">E-Prime Primary Realtime Clock</Description><StartTime><Timestamp dt:dt=""int"">0</Timestamp><DateUtc dt:dt=""string"">2014-04-23T22:21:35Z</DateUtc></StartTime><FrequencyChanges><FrequencyChange><Frequency dt:dt=""r8"">2793030000</Frequency><Timestamp dt:dt=""r8"">231735262625300</Timestamp><Current dt:dt=""r8"">0</Current><DateUtc dt:dt=""string"">2014-04-23T22:21:35Z</DateUtc></FrequencyChange></FrequencyChanges></Clock>\n",60.03,1,867860621,0,,-999999,6,30695,t,83492,114187,4/23/2014,15:21:35,,2,Session2,SessionsList,0,,-999999,6,769692,t,41853,811545,740790,2,1,2,2,,,,,,2,1,2,Cued3,MiniBlocks2,,,10,1,b,-999999,10,1115570,b,571,1116141,White,Congruent,b,Green,0,,0,353,1105908,,0,0,,,,,,,10,1,10,,,,Pictures\green.bmp,9000,10000,Pictures\black.bmp,,,,,,,,,,,,,StimulusPr,Pictures\right.bmp,CuedStim3,Right
POP_2,27009,1,"<?xml version=""1.0""?>\n<Clock xmlns:dt=""urn:schemas-microsoft-com:datatypes""><Description dt:dt=""string"">E-Prime Primary Realtime Clock</Description><StartTime><Timestamp dt:dt=""int"">0</Timestamp><DateUtc dt:dt=""string"">2014-04-23T22:21:35Z</DateUtc></StartTime><FrequencyChanges><FrequencyChange><Frequency dt:dt=""r8"">2793030000</Frequency><Timestamp dt:dt=""r8"">231735262625300</Timestamp><Current dt:dt=""r8"">0</Current><DateUtc dt:dt=""string"">2014-04-23T22:21:35Z</DateUtc></FrequencyChange></FrequencyChanges></Clock>\n",60.03,1,867860621,0,,-999999,6,30695,t,83492,114187,4/23/2014,15:21:35,,2,Session2,SessionsList,0,,-999999,6,769692,t,41853,811545,740790,2,1,2,3,,,,,,3,1,3,Cued4,MiniBlocks2,,,1,1,b,-999999,12,1143572,b,598,1144170,White,Congruent,b,Green,0,,0,16,1136576,,0,0,,,,,,,,,,1,1,1,Pictures\green.bmp,6000,2000,Pictures\black.bmp,,,,,,,,,,,,,StimulusPr,Pictures\right.bmp,CuedStim4,Right
POP_2,27009,1,"<?xml version=""1.0""?>\n<Clock xmlns:dt=""urn:schemas-microsoft-com:datatypes""><Description dt:dt=""string"">E-Prime Primary Realtime Clock</Description><StartTime><Timestamp dt:dt=""int"">0</Timestamp><DateUtc dt:dt=""string"">2014-04-23T22:21:35Z</DateUtc></StartTime><FrequencyChanges><FrequencyChange><Frequency dt:dt=""r8"">2793030000</Frequency><Timestamp dt:dt=""r8"">231735262625300</Timestamp><Current dt:dt=""r8"">0</Current><DateUtc dt:dt=""string"">2014-04-23T22:21:35Z</DateUtc></FrequencyChange></FrequencyChanges></Clock>\n",60.03,1,867860621,0,,-999999,6,30695,t,83492,114187,4/23/2014,15:21:35,,2,Session2,SessionsList,0,,-999999,6,769692,t,41853,811545,740790,2,1,2,3,,,,,,3,1,3,Cued4,MiniBlocks2,,,2,0,r,-999999,20,1157565,b,620,1158185,White,Incongruent,r,Red,0,,0,10,1147570,,0,0,,,,,,,,,,2,1,2,Pictures\red.bmp,9000,2000,Pictures\black.bmp,,,,,,,,,,,,,StimulusPr,Pictures\right.bmp,CuedStim4,Right
POP_2,27009,1,"<?xml version=""1.0""?>\n<Clock xmlns:dt=""urn:schemas-microsoft-com:datatypes""><Description dt:dt=""string"">E-Prime Primary Realtime Clock</Description><StartTime><Timestamp dt:dt=""int"">0</Timestamp><DateUtc dt:dt=""string"">2014-04-23T22:21:35Z</DateUtc></StartTime><FrequencyChanges><FrequencyChange><Frequency dt:dt=""r8"">2793030000</Frequency><Timestamp dt:dt=""r8"">231735262625300</Timestamp><Current dt:dt=""r8"">0</Current><DateUtc dt:dt=""string"">2014-04-23T22:21:35Z</DateUtc></FrequencyChange></FrequencyChanges></Clock>\n",60.03,1,867860621,0,,-999999,6,30695,t,83492,114187,4/23/2014,15:21:35,,2,Session2,SessionsList,0,,-999999,6,769692,t,41853,811545,740790,2,1,2,3,,,,,,3,1,3,Cued4,MiniBlocks2,,,3,1,b,-999999,18,1165578,b,685,1166263,White,Congruent,b,Green,0,,0,23,1161580,,0,0,,,,,,,,,,3,1,3,Pictures\green.bmp,3000,4000,Pictures\black.bmp,,,,,,,,,,,,,StimulusPr,Pictures\right.bmp,CuedStim4,Right
POP_2,27009,1,"<?xml version=""1.0""?>\n<Clock xmlns:dt=""urn:schemas-microsoft-com:datatypes""><Description dt:dt=""string"">E-Prime Primary Realtime Clock</Description><StartTime><Timestamp dt:dt=""int"">0</Timestamp><DateUtc dt:dt=""string"">2014-04-23T22:21:35Z</DateUtc></StartTime><FrequencyChanges><FrequencyChange><Frequency dt:dt=""r8"">2793030000</Frequency><Timestamp dt:dt=""r8"">231735262625300</Timestamp><Current dt:dt=""r8"">0</Current><DateUtc dt:dt=""string"">2014-04-23T22:21:35Z</DateUtc></FrequencyChange></FrequencyChanges></Clock>\n",60.03,1,867860621,0,,-999999,6,30695,t,83492,114187,4/23/2014,15:21:35,,2,Session2,SessionsList,0,,-999999,6,769692,t,41853,811545,740790,2,1,2,3,,,,,,3,1,3,Cued4,MiniBlocks2,,,4,1,r,-999999,11,1175556,r,770,1176326,White,Congruent,r,Green,0,,0,23,1171575,,0,0,,,,,,,,,,4,1,4,Pictures\green.bmp,3000,4000,Pictures\left.bmp,,,,,,,,,,,,,StimulusPr,Pictures\black.bmp,CuedStim4,Left
POP_2,27009,1,"<?xml version=""1.0""?>\n<Clock xmlns:dt=""urn:schemas-microsoft-com:datatypes""><Description dt:dt=""string"">E-Prime Primary Realtime Clock</Description><StartTime><Timestamp dt:dt=""int"">0</Timestamp><DateUtc dt:dt=""string"">2014-04-23T22:21:35Z</DateUtc></StartTime><FrequencyChanges><FrequencyChange><Frequency dt:dt=""r8"">2793030000</Frequency><Timestamp dt:dt=""r8"">231735262625300</Timestamp><Current dt:dt=""r8"">0</Current><DateUtc dt:dt=""string"">2014-04-23T22:21:35Z</DateUtc></FrequencyChange></FrequencyChanges></Clock>\n",60.03,1,867860621,0,,-999999,6,30695,t,83492,114187,4/23/2014,15:21:35,,2,Session2,SessionsList,0,,-999999,6,769692,t,41853,811545,740790,2,1,2,3,,,,,,3,1,3,Cued4,MiniBlocks2,,,5,1,b,-999999,14,1186568,b,852,1187420,White,Incongruent,b,Red,0,,0,8,1181553,,0,0,,,,,,,,,,5,1,5,Pictures\red.bmp,4000,16000,Pictures\left.bmp,,,,,,,,,,,,,StimulusPr,Pictures\black.bmp,CuedStim4,Left
POP_2,27009,1,"<?xml version=""1.0""?>\n<Clock xmlns:dt=""urn:schemas-microsoft-com:datatypes""><Description dt:dt=""string"">E-Prime Primary Realtime Clock</Description><StartTime><Timestamp dt:dt=""int"">0</Timestamp><DateUtc dt:dt=""string"">2014-04-23T22:21:35Z</DateUtc></StartTime><FrequencyChanges><FrequencyChange><Frequency dt:dt=""r8"">2793030000</Frequency><Timestamp dt:dt=""r8"">231735262625300</Timestamp><Current dt:dt=""r8"">0</Current><DateUtc dt:dt=""string"">2014-04-23T22:21:35Z</DateUtc></FrequencyChange></FrequencyChanges></Clock>\n",60.03,1,867860621,0,,-999999,6,30695,t,83492,114187,4/23/2014,15:21:35,,2,Session2,SessionsList,0,,-999999,6,769692,t,41853,811545,740790,2,1,2,3,,,,,,3,1,3,Cued4,MiniBlocks2,,,6,1,b,-999999,9,1208557,b,743,1209300,White,Congruent,b,Green,0,,0,348,1204908,,0,0,,,,,,,,,,6,1,6,Pictures\green.bmp,3000,2000,Pictures\black.bmp,,,,,,,,,,,,,StimulusPr,Pictures\right.bmp,CuedStim4,Right
POP_2,27009,1,"<?xml version=""1.0""?>\n<Clock xmlns:dt=""urn:schemas-microsoft-com:datatypes""><Description dt:dt=""string"">E-Prime Primary Realtime Clock</Description><StartTime><Timestamp dt:dt=""int"">0</Timestamp><DateUtc dt:dt=""string"">2014-04-23T22:21:35Z</DateUtc></StartTime><FrequencyChanges><FrequencyChange><Frequency dt:dt=""r8"">2793030000</Frequency><Timestamp dt:dt=""r8"">231735262625300</Timestamp><Current dt:dt=""r8"">0</Current><DateUtc dt:dt=""string"">2014-04-23T22:21:35Z</DateUtc></FrequencyChange></FrequencyChanges></Clock>\n",60.03,1,867860621,0,,-999999,6,30695,t,83492,114187,4/23/2014,15:21:35,,2,Session2,SessionsList,0,,-999999,6,769692,t,41853,811545,740790,2,1,2,3,,,,,,3,1,3,Cued4,MiniBlocks2,,,7,1,b,-999999,21,1222566,b,729,1223295,White,Congruent,b,Green,0,,0,11,1212571,,0,0,,,,,,,,,,7,1,7,Pictures\green.bmp,9000,10000,Pictures\black.bmp,,,,,,,,,,,,,StimulusPr,Pictures\right.bmp,CuedStim4,Right
POP_2,27009,1,"<?xml version=""1.0""?>\n<Clock xmlns:dt=""urn:schemas-microsoft-com:datatypes""><Description dt:dt=""string"">E-Prime Primary Realtime Clock</Description><StartTime><Timestamp dt:dt=""int"">0</Timestamp><DateUtc dt:dt=""string"">2014-04-23T22:21:35Z</DateUtc></StartTime><FrequencyChanges><FrequencyChange><Frequency dt:dt=""r8"">2793030000</Frequency><Timestamp dt:dt=""r8"">231735262625300</Timestamp><Current dt:dt=""r8"">0</Current><DateUtc dt:dt=""string"">2014-04-23T22:21:35Z</DateUtc></FrequencyChange></FrequencyChanges></Clock>\n",60.03,1,867860621,0,,-999999,6,30695,t,83492,114187,4/23/2014,15:21:35,,2,Session2,SessionsList,0,,-999999,6,769692,t,41853,811545,740790,2,1,2,3,,,,,,3,1,3,Cued4,MiniBlocks2,,,8,1,b,-999999,13,1241573,b,518,1242091,White,Incongruent,b,Red,0,,0,362,1234910,,0,0,,,,,,,,,,8,1,8,Pictures\red.bmp,6000,10000,Pictures\left.bmp,,,,,,,,,,,,,StimulusPr,Pictures\black.bmp,CuedStim4,Left
POP_2,27009,1,"<?xml version=""1.0""?>\n<Clock xmlns:dt=""urn:schemas-microsoft-com:datatypes""><Description dt:dt=""string"">E-Prime Primary Realtime Clock</Description><StartTime><Timestamp dt:dt=""int"">0</Timestamp><DateUtc dt:dt=""string"">2014-04-23T22:21:35Z</DateUtc></StartTime><FrequencyChanges><FrequencyChange><Frequency dt:dt=""r8"">2793030000</Frequency><Timestamp dt:dt=""r8"">231735262625300</Timestamp><Current dt:dt=""r8"">0</Current><DateUtc dt:dt=""string"">2014-04-23T22:21:35Z</DateUtc></FrequencyChange></FrequencyChanges></Clock>\n",60.03,1,867860621,0,,-999999,6,30695,t,83492,114187,4/23/2014,15:21:35,,2,Session2,SessionsList,0,,-999999,6,769692,t,41853,811545,740790,2,1,2,3,,,,,,3,1,3,Cued4,MiniBlocks2,,,9,1,r,-999999,21,1260581,r,1620,1262201,White,Congruent,r,Green,0,,0,7,1253567,,0,0,,,,,,,,,,9,1,9,Pictures\green.bmp,6000,16000,Pictures\left.bmp,,,,,,,,,,,,,StimulusPr,Pictures\black.bmp,CuedStim4,Left
POP_2,27009,1,"<?xml version=""1.0""?>\n<Clock xmlns:dt=""urn:schemas-microsoft-com:datatypes""><Description dt:dt=""string"">E-Prime Primary Realtime Clock</Description><StartTime><Timestamp dt:dt=""int"">0</Timestamp><DateUtc dt:dt=""string"">2014-04-23T22:21:35Z</DateUtc></StartTime><FrequencyChanges><FrequencyChange><Frequency dt:dt=""r8"">2793030000</Frequency><Timestamp dt:dt=""r8"">231735262625300</Timestamp><Current dt:dt=""r8"">0</Current><DateUtc dt:dt=""string"">2014-04-23T22:21:35Z</DateUtc></FrequencyChange></FrequencyChanges></Clock>\n",60.03,1,867860621,0,,-999999,6,30695,t,83492,114187,4/23/2014,15:21:35,,2,Session2,SessionsList,0,,-999999,6,769692,t,41853,811545,740790,2,1,2,3,,,,,,3,1,3,Cued4,MiniBlocks2,,,10,1,r,-999999,21,1284585,r,428,1285013,White,Congruent,r,Green,0,,0,11,1279571,,0,0,,,,,,,,,,10,1,10,Pictures\green.bmp,4000,2000,Pictures\left.bmp,,,,,,,,,,,,,StimulusPr,Pictures\black.bmp,CuedStim4,Left
POP_2,27009,1,"<?xml version=""1.0""?>\n<Clock xmlns:dt=""urn:schemas-microsoft-com:datatypes""><Description dt:dt=""string"">E-Prime Primary Realtime Clock</Description><StartTime><Timestamp dt:dt=""int"">0</Timestamp><DateUtc dt:dt=""string"">2014-04-23T22:21:35Z</DateUtc></StartTime><FrequencyChanges><FrequencyChange><Frequency dt:dt=""r8"">2793030000</Frequency><Timestamp dt:dt=""r8"">231735262625300</Timestamp><Current dt:dt=""r8"">0</Current><DateUtc dt:dt=""string"">2014-04-23T22:21:35Z</DateUtc></FrequencyChange></FrequencyChanges></Clock>\n",60.03,1,867860621,0,,-999999,6,30695,t,83492,114187,4/23/2014,15:21:35,,2,Session2,SessionsList,0,,-999999,6,769692,t,41853,811545,740790,2,1,2,4,,,,,,4,1,4,NonCued4,MiniBlocks2,,,1,1,r,-999999,17,1301577,r,686,1302263,Green,Congruent,r,White,0,,0,19,1297579,,0,0,,,,,,,,,,,,,Pictures\white.bmp,3000,2000,Pictures\GreenLeft.bmp,,,,,,,,,,1,1,1,StimulusPr,Pictures\black.bmp,NonCuedStim4,Left
POP_2,27009,1,"<?xml version=""1.0""?>\n<Clock xmlns:dt=""urn:schemas-microsoft-com:datatypes""><Description dt:dt=""string"">E-Prime Primary Realtime Clock</Description><StartTime><Timestamp dt:dt=""int"">0</Timestamp><DateUtc dt:dt=""string"">2014-04-23T22:21:35Z</DateUtc></StartTime><FrequencyChanges><FrequencyChange><Frequency dt:dt=""r8"">2793030000</Frequency><Timestamp dt:dt=""r8"">231735262625300</Timestamp><Current dt:dt=""r8"">0</Current><DateUtc dt:dt=""string"">2014-04-23T22:21:35Z</DateUtc></FrequencyChange></FrequencyChanges></Clock>\n",60.03,1,867860621,0,,-999999,6,30695,t,83492,114187,4/23/2014,15:21:35,,2,Session2,SessionsList,0,,-999999,6,769692,t,41853,811545,740790,2,1,2,4,,,,,,4,1,4,NonCued4,MiniBlocks2,,,2,1,r,-999999,12,1310572,r,473,1311045,Green,Congruent,r,White,0,,0,19,1305575,,0,0,,,,,,,,,,,,,Pictures\white.bmp,4000,2000,Pictures\GreenLeft.bmp,,,,,,,,,,2,1,2,StimulusPr,Pictures\black.bmp,NonCuedStim4,Left
POP_2,27009,1,"<?xml version=""1.0""?>\n<Clock xmlns:dt=""urn:schemas-microsoft-com:datatypes""><Description dt:dt=""string"">E-Prime Primary Realtime Clock</Description><StartTime><Timestamp dt:dt=""int"">0</Timestamp><DateUtc dt:dt=""string"">2014-04-23T22:21:35Z</DateUtc></StartTime><FrequencyChanges><FrequencyChange><Frequency dt:dt=""r8"">2793030000</Frequency><Timestamp dt:dt=""r8"">231735262625300</Timestamp><Current dt:dt=""r8"">0</Current><DateUtc dt:dt=""string"">2014-04-23T22:21:35Z</DateUtc></FrequencyChange></FrequencyChanges></Clock>\n",60.03,1,867860621,0,,-999999,6,30695,t,83492,114187,4/23/2014,15:21:35,,2,Session2,SessionsList,0,,-999999,6,769692,t,41853,811545,740790,2,1,2,4,,,,,,4,1,4,NonCued4,MiniBlocks2,,,3,0,r,-999999,24,1319584,b,648,1320232,Red,Incongruent,r,White,0,,0,13,1314570,,0,0,,,,,,,,,,,,,Pictures\white.bmp,4000,2000,Pictures\black.bmp,,,,,,,,,,3,1,3,StimulusPr,Pictures\RedRight.bmp,NonCuedStim4,Right
POP_2,27009,1,"<?xml version=""1.0""?>\n<Clock xmlns:dt=""urn:schemas-microsoft-com:datatypes""><Description dt:dt=""string"">E-Prime Primary Realtime Clock</Description><StartTime><Timestamp dt:dt=""int"">0</Timestamp><DateUtc dt:dt=""string"">2014-04-23T22:21:35Z</DateUtc></StartTime><FrequencyChanges><FrequencyChange><Frequency dt:dt=""r8"">2793030000</Frequency><Timestamp dt:dt=""r8"">231735262625300</Timestamp><Current dt:dt=""r8"">0</Current><DateUtc dt:dt=""string"">2014-04-23T22:21:35Z</DateUtc></FrequencyChange></FrequencyChanges></Clock>\n",60.03,1,867860621,0,,-999999,6,30695,t,83492,114187,4/23/2014,15:21:35,,2,Session2,SessionsList,0,,-999999,6,769692,t,41853,811545,740790,2,1,2,4,,,,,,4,1,4,NonCued4,MiniBlocks2,,,4,1,b,-999999,21,1327581,b,807,1328388,Green,Congruent,b,White,0,,0,22,1323582,,0,0,,,,,,,,,,,,,Pictures\white.bmp,3000,16000,Pictures\black.bmp,,,,,,,,,,4,1,4,StimulusPr,Pictures\GreenRight.bmp,NonCuedStim4,Right
POP_2,27009,1,"<?xml version=""1.0""?>\n<Clock xmlns:dt=""urn:schemas-microsoft-com:datatypes""><Description dt:dt=""string"">E-Prime Primary Realtime Clock</Description><StartTime><Timestamp dt:dt=""int"">0</Timestamp><DateUtc dt:dt=""string"">2014-04-23T22:21:35Z</DateUtc></StartTime><FrequencyChanges><FrequencyChange><Frequency dt:dt=""r8"">2793030000</Frequency><Timestamp dt:dt=""r8"">231735262625300</Timestamp><Current dt:dt=""r8"">0</Current><DateUtc dt:dt=""string"">2014-04-23T22:21:35Z</DateUtc></FrequencyChange></FrequencyChanges></Clock>\n",60.03,1,867860621,0,,-999999,6,30695,t,83492,114187,4/23/2014,15:21:35,,2,Session2,SessionsList,0,,-999999,6,769692,t,41853,811545,740790,2,1,2,4,,,,,,4,1,4,NonCued4,MiniBlocks2,,,5,1,r,-999999,22,1355566,r,697,1356263,Green,Congruent,r,White,0,,0,11,1345571,,0,0,,,,,,,,,,,,,Pictures\white.bmp,9000,10000,Pictures\GreenLeft.bmp,,,,,,,,,,5,1,5,StimulusPr,Pictures\black.bmp,NonCuedStim4,Left
POP_2,27009,1,"<?xml version=""1.0""?>\n<Clock xmlns:dt=""urn:schemas-microsoft-com:datatypes""><Description dt:dt=""string"">E-Prime Primary Realtime Clock</Description><StartTime><Timestamp dt:dt=""int"">0</Timestamp><DateUtc dt:dt=""string"">2014-04-23T22:21:35Z</DateUtc></StartTime><FrequencyChanges><FrequencyChange><Frequency dt:dt=""r8"">2793030000</Frequency><Timestamp dt:dt=""r8"">231735262625300</Timestamp><Current dt:dt=""r8"">0</Current><DateUtc dt:dt=""string"">2014-04-23T22:21:35Z</DateUtc></FrequencyChange></FrequencyChanges></Clock>\n",60.03,1,867860621,0,,-999999,6,30695,t,83492,114187,4/23/2014,15:21:35,,2,Session2,SessionsList,0,,-999999,6,769692,t,41853,811545,740790,2,1,2,4,,,,,,4,1,4,NonCued4,MiniBlocks2,,,6,1,b,-999999,10,1371575,b,766,1372341,Green,Congruent,b,White,0,,0,13,1367577,,0,0,,,,,,,,,,,,,Pictures\white.bmp,3000,16000,Pictures\black.bmp,,,,,,,,,,6,1,6,StimulusPr,Pictures\GreenRight.bmp,NonCuedStim4,Right
POP_2,27009,1,"<?xml version=""1.0""?>\n<Clock xmlns:dt=""urn:schemas-microsoft-com:datatypes""><Description dt:dt=""string"">E-Prime Primary Realtime Clock</Description><StartTime><Timestamp dt:dt=""int"">0</Timestamp><DateUtc dt:dt=""string"">2014-04-23T22:21:35Z</DateUtc></StartTime><FrequencyChanges><FrequencyChange><Frequency dt:dt=""r8"">2793030000</Frequency><Timestamp dt:dt=""r8"">231735262625300</Timestamp><Current dt:dt=""r8"">0</Current><DateUtc dt:dt=""string"">2014-04-23T22:21:35Z</DateUtc></FrequencyChange></FrequencyChanges></Clock>\n",60.03,1,867860621,0,,-999999,6,30695,t,83492,114187,4/23/2014,15:21:35,,2,Session2,SessionsList,0,,-999999,6,769692,t,41853,811545,740790,2,1,2,4,,,,,,4,1,4,NonCued4,MiniBlocks2,,,7,1,b,-999999,21,1393581,b,776,1394357,Red,Incongruent,b,White,0,,0,15,1389566,,0,0,,,,,,,,,,,,,Pictures\white.bmp,3000,16000,Pictures\RedLeft.bmp,,,,,,,,,,7,1,7,StimulusPr,Pictures\black.bmp,NonCuedStim4,Left
POP_2,27009,1,"<?xml version=""1.0""?>\n<Clock xmlns:dt=""urn:schemas-microsoft-com:datatypes""><Description dt:dt=""string"">E-Prime Primary Realtime Clock</Description><StartTime><Timestamp dt:dt=""int"">0</Timestamp><DateUtc dt:dt=""string"">2014-04-23T22:21:35Z</DateUtc></StartTime><FrequencyChanges><FrequencyChange><Frequency dt:dt=""r8"">2793030000</Frequency><Timestamp dt:dt=""r8"">231735262625300</Timestamp><Current dt:dt=""r8"">0</Current><DateUtc dt:dt=""string"">2014-04-23T22:21:35Z</DateUtc></FrequencyChange></FrequencyChanges></Clock>\n",60.03,1,867860621,0,,-999999,6,30695,t,83492,114187,4/23/2014,15:21:35,,2,Session2,SessionsList,0,,-999999,6,769692,t,41853,811545,740790,2,1,2,4,,,,,,4,1,4,NonCued4,MiniBlocks2,,,8,0,r,-999999,23,1415587,b,582,1416169,Green,Congruent,r,White,0,,0,8,1411572,,0,0,,,,,,,,,,,,,Pictures\white.bmp,3000,2000,Pictures\GreenLeft.bmp,,,,,,,,,,8,1,8,StimulusPr,Pictures\black.bmp,NonCuedStim4,Left
POP_2,27009,1,"<?xml version=""1.0""?>\n<Clock xmlns:dt=""urn:schemas-microsoft-com:datatypes""><Description dt:dt=""string"">E-Prime Primary Realtime Clock</Description><StartTime><Timestamp dt:dt=""int"">0</Timestamp><DateUtc dt:dt=""string"">2014-04-23T22:21:35Z</DateUtc></StartTime><FrequencyChanges><FrequencyChange><Frequency dt:dt=""r8"">2793030000</Frequency><Timestamp dt:dt=""r8"">231735262625300</Timestamp><Current dt:dt=""r8"">0</Current><DateUtc dt:dt=""string"">2014-04-23T22:21:35Z</DateUtc></FrequencyChange></FrequencyChanges></Clock>\n",60.03,1,867860621,0,,-999999,6,30695,t,83492,114187,4/23/2014,15:21:35,,2,Session2,SessionsList,0,,-999999,6,769692,t,41853,811545,740790,2,1,2,4,,,,,,4,1,4,NonCued4,MiniBlocks2,,,9,1,b,-999999,21,1426581,b,697,1427278,Green,Congruent,b,White,0,,0,24,1419584,,0,0,,,,,,,,,,,,,Pictures\white.bmp,6000,2000,Pictures\black.bmp,,,,,,,,,,9,1,9,StimulusPr,Pictures\GreenRight.bmp,NonCuedStim4,Right
POP_2,27009,1,"<?xml version=""1.0""?>\n<Clock xmlns:dt=""urn:schemas-microsoft-com:datatypes""><Description dt:dt=""string"">E-Prime Primary Realtime Clock</Description><StartTime><Timestamp dt:dt=""int"">0</Timestamp><DateUtc dt:dt=""string"">2014-04-23T22:21:35Z</DateUtc></StartTime><FrequencyChanges><FrequencyChange><Frequency dt:dt=""r8"">2793030000</Frequency><Timestamp dt:dt=""r8"">231735262625300</Timestamp><Current dt:dt=""r8"">0</Current><DateUtc dt:dt=""string"">2014-04-23T22:21:35Z</DateUtc></FrequencyChange></FrequencyChanges></Clock>\n",60.03,1,867860621,0,,-999999,6,30695,t,83492,114187,4/23/2014,15:21:35,,2,Session2,SessionsList,0,,-999999,6,769692,t,41853,811545,740790,2,1,2,4,,,,,,4,1,4,NonCued4,MiniBlocks2,,,10,1,b,-999999,16,1435560,b,797,1436357,Green,Congruent,b,White,0,,0,19,1430579,,0,0,,,,,,,,,,,,,Pictures\white.bmp,4000,4000,Pictures\black.bmp,,,,,,,,,,10,1,10,StimulusPr,Pictures\GreenRight.bmp,NonCuedStim4,Right
