ExperimentName,Subject,Session,Clock.Information,Display.RefreshRate,Group,RandomSeed,Session1Onset.ACC,Session1Onset.CRESP,Session1Onset.DurationError,Session1Onset.OnsetDelay,Session1Onset.OnsetTime,Session1Onset.RESP,Session1Onset.RT,Session1Onset.RTTime,SessionDate,SessionTime,SessionTimeUtc,Block,Procedure[Block],Running[Block],Session2Onset.ACC,Session2Onset.CRESP,Session2Onset.DurationError,Session2Onset.OnsetDelay,Session2Onset.OnsetTime,Session2Onset.RESP,Session2Onset.RT,Session2Onset.RTTime,SessionBreak.OnsetTime,SessionsList,SessionsList.Cycle,SessionsList.Sample,Trial,CuedPrompt1.OnsetTime,CuedPrompt2.OnsetTime,CuedPrompt3.OnsetTime,CuedPrompt4.OnsetTime,MiniBlocks1,MiniBlocks1.Cycle,MiniBlocks1.Sample,MiniBlocks2,MiniBlocks2.Cycle,MiniBlocks2.Sample,Procedure[Trial],Running[Trial],UncuedPrompt1.OnsetTime,UncuedPrompt2.OnsetTime,UncuedPrompt3.OnsetTime,UncuedPrompt4.OnsetTime,SubTrial,Arrow1.ACC,Arrow1.CRESP,Arrow1.DurationError,Arrow1.OnsetDelay,Arrow1.OnsetTime,Arrow1.RESP,Arrow1.RT,Arrow1.RTTime,ArrowColor,Congruence,CorrectResp,Cue,Cue.ACC,Cue.CRESP,Cue.DurationError,Cue.OnsetDelay,Cue.OnsetTime,Cue.RESP,Cue.RT,Cue.RTTime,CuedStim1,CuedStim1.Cycle,CuedStim1.Sample,CuedStim2,CuedStim2.Cycle,CuedStim2.Sample,CuedStim3,CuedStim3.Cycle,CuedStim3.Sample,CuedStim4,CuedStim4.Cycle,CuedStim4.Sample,CueImage,JitterCue,JitterTrial,LeftImage,NonCuedStim1,NonCuedStim1.Cycle,NonCuedStim1.Sample,NonCuedStim2,NonCuedStim2.Cycle,NonCuedStim2.Sample,NonCuedStim3,NonCuedStim3.Cycle,NonCuedStim3.Sample,NonCuedStim4,NonCuedStim4.Cycle,NonCuedStim4.Sample,Procedure[SubTrial],RightImage,Running[SubTrial],Stimulus
POP_2,27038,1,"<?xml version=""1.0""?>\n<Clock xmlns:dt=""urn:schemas-microsoft-com:datatypes""><Description dt:dt=""string"">E-Prime Primary Realtime Clock</Description><StartTime><Timestamp dt:dt=""int"">0</Timestamp><DateUtc dt:dt=""string"">2014-06-07T22:35:42Z</DateUtc></StartTime><FrequencyChanges><FrequencyChange><Frequency dt:dt=""r8"">2793040000</Frequency><Timestamp dt:dt=""r8"">1.05609261747605E+15</Timestamp><Current dt:dt=""r8"">0</Current><DateUtc dt:dt=""string"">2014-06-07T22:35:42Z</DateUtc></FrequencyChange></FrequencyChanges></Clock>\n",60.033,1,-643403195,0,,-999999,7,28046,t,107554,135600,6/7/2014,15:35:42,,1,Session1,SessionsList,,,,,,,,,,1,1,1,1,135608,,,,1,1,1,,,,Cued1,MiniBlocks1,,,,,1,1,r,-999999,18,149618,r,511,150129,White,Congruent,r,Green,0,,0,4,144604,,0,0,1,1,1,,,,,,,,,,Pictures\green.bmp,4000,4000,Pictures\left.bmp,,,,,,,,,,,,,StimulusPr,Pictures\black.bmp,CuedStim1,Left
POP_2,27038,1,"<?xml version=""1.0""?>\n<Clock xmlns:dt=""urn:schemas-microsoft-com:datatypes""><Description dt:dt=""string"">E-Prime Primary Realtime Clock</Description><StartTime><Timestamp dt:dt=""int"">0</Timestamp><DateUtc dt:dt=""string"">2014-06-07T22:35:42Z</DateUtc></StartTime><FrequencyChanges><FrequencyChange><Frequency dt:dt=""r8"">2793040000</Frequency><Timestamp dt:dt=""r8"">1.05609261747605E+15</Timestamp><Current dt:dt=""r8"">0</Current><DateUtc dt:dt=""string"">2014-06-07T22:35:42Z</DateUtc></FrequencyChange></FrequencyChanges></Clock>\n",60.033,1,-643403195,0,,-999999,7,28046,t,107554,135600,6/7/2014,15:35:42,,1,Session1,SessionsList,,,,,,,,,,1,1,1,1,135608,,,,1,1,1,,,,Cued1,MiniBlocks1,,,,,2,1,b,-999999,11,162611,b,519,163130,White,Congruent,b,Green,0,,0,15,155615,,0,0,2,1,2,,,,,,,,,,Pictures\green.bmp,6000,2000,Pictures\black.bmp,,,,,,,,,,,,,StimulusPr,Pictures\right.bmp,CuedStim1,Right
POP_2,27038,1,"<?xml version=""1.0""?>\n<Clock xmlns:dt=""urn:schemas-microsoft-com:datatypes""><Description dt:dt=""string"">E-Prime Primary Realtime Clock</Description><StartTime><Timestamp dt:dt=""int"">0</Timestamp><DateUtc dt:dt=""string"">2014-06-07T22:35:42Z</DateUtc></StartTime><FrequencyChanges><FrequencyChange><Frequency dt:dt=""r8"">2793040000</Frequency><Timestamp dt:dt=""r8"">1.05609261747605E+15</Timestamp><Current dt:dt=""r8"">0</Current><DateUtc dt:dt=""string"">2014-06-07T22:35:42Z</DateUtc></FrequencyChange></FrequencyChanges></Clock>\n",60.033,1,-643403195,0,,-999999,7,28046,t,107554,135600,6/7/2014,15:35:42,,1,Session1,SessionsList,,,,,,,,,,1,1,1,1,135608,,,,1,1,1,,,,Cued1,MiniBlocks1,,,,,3,1,b,-999999,7,170607,b,409,171016,White,Congruent,b,Green,0,,0,9,166609,,0,0,3,1,3,,,,,,,,,,Pictures\green.bmp,3000,2000,Pictures\black.bmp,,,,,,,,,,,,,StimulusPr,Pictures\right.bmp,CuedStim1,Right
POP_2,27038,1,"<?xml version=""1.0""?>\n<Clock xmlns:dt=""urn:schemas-microsoft-com:datatypes""><Description dt:dt=""string"">E-Prime Primary Realtime Clock</Description><StartTime><Timestamp dt:dt=""int"">0</Timestamp><DateUtc dt:dt=""string"">2014-06-07T22:35:42Z</DateUtc></StartTime><FrequencyChanges><FrequencyChange><Frequency dt:dt=""r8"">2793040000</Frequency><Timestamp dt:dt=""r8"">1.05609261747605E+15</Timestamp><Current dt:dt=""r8"">0</Current><DateUtc dt:dt=""string"">2014-06-07T22:35:42Z</DateUtc></FrequencyChange></FrequencyChanges></Clock>\n",60.033,1,-643403195,0,,-999999,7,28046,t,107554,135600,6/7/2014,15:35:42,,1,Session1,SessionsList,,,,,,,,,,1,1,1,1,135608,,,,1,1,1,,,,Cued1,MiniBlocks1,,,,,4,1,b,-999999,3,178603,b,493,179096,White,Incongruent,b,Red,0,,0,4,174605,,0,0,4,1,4,,,,,,,,,,Pictures\red.bmp,3000,16000,Pictures\left.bmp,,,,,,,,,,,,,StimulusPr,Pictures\black.bmp,CuedStim1,Left
POP_2,27038,1,"<?xml version=""1.0""?>\n<Clock xmlns:dt=""urn:schemas-microsoft-com:datatypes""><Description dt:dt=""string"">E-Prime Primary Realtime Clock</Description><StartTime><Timestamp dt:dt=""int"">0</Timestamp><DateUtc dt:dt=""string"">2014-06-07T22:35:42Z</DateUtc></StartTime><FrequencyChanges><FrequencyChange><Frequency dt:dt=""r8"">2793040000</Frequency><Timestamp dt:dt=""r8"">1.05609261747605E+15</Timestamp><Current dt:dt=""r8"">0</Current><DateUtc dt:dt=""string"">2014-06-07T22:35:42Z</DateUtc></FrequencyChange></FrequencyChanges></Clock>\n",60.033,1,-643403195,0,,-999999,7,28046,t,107554,135600,6/7/2014,15:35:42,,1,Session1,SessionsList,,,,,,,,,,1,1,1,1,135608,,,,1,1,1,,,,Cued1,MiniBlocks1,,,,,5,1,r,-999999,10,200609,r,547,201156,White,Congruent,r,Green,0,,0,12,196611,,0,0,5,1,5,,,,,,,,,,Pictures\green.bmp,3000,16000,Pictures\left.bmp,,,,,,,,,,,,,StimulusPr,Pictures\black.bmp,CuedStim1,Left
POP_2,27038,1,"<?xml version=""1.0""?>\n<Clock xmlns:dt=""urn:schemas-microsoft-com:datatypes""><Description dt:dt=""string"">E-Prime Primary Realtime Clock</Description><StartTime><Timestamp dt:dt=""int"">0</Timestamp><DateUtc dt:dt=""string"">2014-06-07T22:35:42Z</DateUtc></StartTime><FrequencyChanges><FrequencyChange><Frequency dt:dt=""r8"">2793040000</Frequency><Timestamp dt:dt=""r8"">1.05609261747605E+15</Timestamp><Current dt:dt=""r8"">0</Current><DateUtc dt:dt=""string"">2014-06-07T22:35:42Z</DateUtc></FrequencyChange></FrequencyChanges></Clock>\n",60.033,1,-643403195,0,,-999999,7,28046,t,107554,135600,6/7/2014,15:35:42,,1,Session1,SessionsList,,,,,,,,,,1,1,1,1,135608,,,,1,1,1,,,,Cued1,MiniBlocks1,,,,,6,1,r,-999999,13,228612,r,431,229043,White,Congruent,r,Green,0,,0,18,218617,,0,0,6,1,6,,,,,,,,,,Pictures\green.bmp,9000,10000,Pictures\left.bmp,,,,,,,,,,,,,StimulusPr,Pictures\black.bmp,CuedStim1,Left
POP_2,27038,1,"<?xml version=""1.0""?>\n<Clock xmlns:dt=""urn:schemas-microsoft-com:datatypes""><Description dt:dt=""string"">E-Prime Primary Realtime Clock</Description><StartTime><Timestamp dt:dt=""int"">0</Timestamp><DateUtc dt:dt=""string"">2014-06-07T22:35:42Z</DateUtc></StartTime><FrequencyChanges><FrequencyChange><Frequency dt:dt=""r8"">2793040000</Frequency><Timestamp dt:dt=""r8"">1.05609261747605E+15</Timestamp><Current dt:dt=""r8"">0</Current><DateUtc dt:dt=""string"">2014-06-07T22:35:42Z</DateUtc></FrequencyChange></FrequencyChanges></Clock>\n",60.033,1,-643403195,0,,-999999,7,28046,t,107554,135600,6/7/2014,15:35:42,,1,Session1,SessionsList,,,,,,,,,,1,1,1,1,135608,,,,1,1,1,,,,Cued1,MiniBlocks1,,,,,7,1,b,-999999,5,244604,b,469,245073,White,Congruent,b,Green,0,,0,7,240606,,0,0,7,1,7,,,,,,,,,,Pictures\green.bmp,3000,16000,Pictures\black.bmp,,,,,,,,,,,,,StimulusPr,Pictures\right.bmp,CuedStim1,Right
POP_2,27038,1,"<?xml version=""1.0""?>\n<Clock xmlns:dt=""urn:schemas-microsoft-com:datatypes""><Description dt:dt=""string"">E-Prime Primary Realtime Clock</Description><StartTime><Timestamp dt:dt=""int"">0</Timestamp><DateUtc dt:dt=""string"">2014-06-07T22:35:42Z</DateUtc></StartTime><FrequencyChanges><FrequencyChange><Frequency dt:dt=""r8"">2793040000</Frequency><Timestamp dt:dt=""r8"">1.05609261747605E+15</Timestamp><Current dt:dt=""r8"">0</Current><DateUtc dt:dt=""string"">2014-06-07T22:35:42Z</DateUtc></FrequencyChange></FrequencyChanges></Clock>\n",60.033,1,-643403195,0,,-999999,7,28046,t,107554,135600,6/7/2014,15:35:42,,1,Session1,SessionsList,,,,,,,,,,1,1,1,1,135608,,,,1,1,1,,,,Cued1,MiniBlocks1,,,,,8,1,r,-999999,10,267609,r,539,268148,White,Incongruent,r,Red,0,,0,12,262611,,0,0,8,1,8,,,,,,,,,,Pictures\red.bmp,4000,2000,Pictures\black.bmp,,,,,,,,,,,,,StimulusPr,Pictures\right.bmp,CuedStim1,Right
POP_2,27038,1,"<?xml version=""1.0""?>\n<Clock xmlns:dt=""urn:schemas-microsoft-com:datatypes""><Description dt:dt=""string"">E-Prime Primary Realtime Clock</Description><StartTime><Timestamp dt:dt=""int"">0</Timestamp><DateUtc dt:dt=""string"">2014-06-07T22:35:42Z</DateUtc></StartTime><FrequencyChanges><FrequencyChange><Frequency dt:dt=""r8"">2793040000</Frequency><Timestamp dt:dt=""r8"">1.05609261747605E+15</Timestamp><Current dt:dt=""r8"">0</Current><DateUtc dt:dt=""string"">2014-06-07T22:35:42Z</DateUtc></FrequencyChange></FrequencyChanges></Clock>\n",60.033,1,-643403195,0,,-999999,7,28046,t,107554,135600,6/7/2014,15:35:42,,1,Session1,SessionsList,,,,,,,,,,1,1,1,1,135608,,,,1,1,1,,,,Cued1,MiniBlocks1,,,,,9,1,b,-999999,5,276604,b,497,277101,White,Congruent,b,Green,0,,0,8,271607,,0,0,9,1,9,,,,,,,,,,Pictures\green.bmp,4000,2000,Pictures\black.bmp,,,,,,,,,,,,,StimulusPr,Pictures\right.bmp,CuedStim1,Right
POP_2,27038,1,"<?xml version=""1.0""?>\n<Clock xmlns:dt=""urn:schemas-microsoft-com:datatypes""><Description dt:dt=""string"">E-Prime Primary Realtime Clock</Description><StartTime><Timestamp dt:dt=""int"">0</Timestamp><DateUtc dt:dt=""string"">2014-06-07T22:35:42Z</DateUtc></StartTime><FrequencyChanges><FrequencyChange><Frequency dt:dt=""r8"">2793040000</Frequency><Timestamp dt:dt=""r8"">1.05609261747605E+15</Timestamp><Current dt:dt=""r8"">0</Current><DateUtc dt:dt=""string"">2014-06-07T22:35:42Z</DateUtc></FrequencyChange></FrequencyChanges></Clock>\n",60.033,1,-643403195,0,,-999999,7,28046,t,107554,135600,6/7/2014,15:35:42,,1,Session1,SessionsList,,,,,,,,,,1,1,1,1,135608,,,,1,1,1,,,,Cued1,MiniBlocks1,,,,,10,1,r,-999999,18,284617,r,349,284966,White,Congruent,r,Green,0,,0,3,280602,,0,0,10,1,10,,,,,,,,,,Pictures\green.bmp,3000,2000,Pictures\left.bmp,,,,,,,,,,,,,StimulusPr,Pictures\black.bmp,CuedStim1,Left
POP_2,27038,1,"<?xml version=""1.0""?>\n<Clock xmlns:dt=""urn:schemas-microsoft-com:datatypes""><Description dt:dt=""string"">E-Prime Primary Realtime Clock</Description><StartTime><Timestamp dt:dt=""int"">0</Timestamp><DateUtc dt:dt=""string"">2014-06-07T22:35:42Z</DateUtc></StartTime><FrequencyChanges><FrequencyChange><Frequency dt:dt=""r8"">2793040000</Frequency><Timestamp dt:dt=""r8"">1.05609261747605E+15</Timestamp><Current dt:dt=""r8"">0</Current><DateUtc dt:dt=""string"">2014-06-07T22:35:42Z</DateUtc></FrequencyChange></FrequencyChanges></Clock>\n",60.033,1,-643403195,0,,-999999,7,28046,t,107554,135600,6/7/2014,15:35:42,,1,Session1,SessionsList,,,,,,,,,,1,1,1,2,,,,,2,1,2,,,,NonCued1,MiniBlocks1,286982,,,,1,1,r,-999999,9,301608,r,514,302122,Green,Congruent,r,White,0,,0,12,296611,,0,0,,,,,,,,,,,,,Pictures\white.bmp,4000,2000,Pictures\GreenLeft.bmp,1,1,1,,,,,,,,,,StimulusPr,Pictures\black.bmp,NonCuedStim1,Left
POP_2,27038,1,"<?xml version=""1.0""?>\n<Clock xmlns:dt=""urn:schemas-microsoft-com:datatypes""><Description dt:dt=""string"">E-Prime Primary Realtime Clock</Description><StartTime><Timestamp dt:dt=""int"">0</Timestamp><DateUtc dt:dt=""string"">2014-06-07T22:35:42Z</DateUtc></StartTime><FrequencyChanges><FrequencyChange><Frequency dt:dt=""r8"">2793040000</Frequency><Timestamp dt:dt=""r8"">1.05609261747605E+15</Timestamp><Current dt:dt=""r8"">0</Current><DateUtc dt:dt=""string"">2014-06-07T22:35:42Z</DateUtc></FrequencyChange></FrequencyChanges></Clock>\n",60.033,1,-643403195,0,,-999999,7,28046,t,107554,135600,6/7/2014,15:35:42,,1,Session1,SessionsList,,,,,,,,,,1,1,1,2,,,,,2,1,2,,,,NonCued1,MiniBlocks1,286982,,,,2,1,b,-999999,18,312603,b,452,313055,Green,Congruent,b,White,0,,0,7,305606,,0,0,,,,,,,,,,,,,Pictures\white.bmp,6000,16000,Pictures\black.bmp,2,1,2,,,,,,,,,,StimulusPr,Pictures\GreenRight.bmp,NonCuedStim1,Right
POP_2,27038,1,"<?xml version=""1.0""?>\n<Clock xmlns:dt=""urn:schemas-microsoft-com:datatypes""><Description dt:dt=""string"">E-Prime Primary Realtime Clock</Description><StartTime><Timestamp dt:dt=""int"">0</Timestamp><DateUtc dt:dt=""string"">2014-06-07T22:35:42Z</DateUtc></StartTime><FrequencyChanges><FrequencyChange><Frequency dt:dt=""r8"">2793040000</Frequency><Timestamp dt:dt=""r8"">1.05609261747605E+15</Timestamp><Current dt:dt=""r8"">0</Current><DateUtc dt:dt=""string"">2014-06-07T22:35:42Z</DateUtc></FrequencyChange></FrequencyChanges></Clock>\n",60.033,1,-643403195,0,,-999999,7,28046,t,107554,135600,6/7/2014,15:35:42,,1,Session1,SessionsList,,,,,,,,,,1,1,1,2,,,,,2,1,2,,,,NonCued1,MiniBlocks1,286982,,,,3,1,r,-999999,8,337607,r,645,338252,Red,Incongruent,r,White,0,,0,11,330610,,0,0,,,,,,,,,,,,,Pictures\white.bmp,6000,10000,Pictures\black.bmp,3,1,3,,,,,,,,,,StimulusPr,Pictures\RedRight.bmp,NonCuedStim1,Right
POP_2,27038,1,"<?xml version=""1.0""?>\n<Clock xmlns:dt=""urn:schemas-microsoft-com:datatypes""><Description dt:dt=""string"">E-Prime Primary Realtime Clock</Description><StartTime><Timestamp dt:dt=""int"">0</Timestamp><DateUtc dt:dt=""string"">2014-06-07T22:35:42Z</DateUtc></StartTime><FrequencyChanges><FrequencyChange><Frequency dt:dt=""r8"">2793040000</Frequency><Timestamp dt:dt=""r8"">1.05609261747605E+15</Timestamp><Current dt:dt=""r8"">0</Current><DateUtc dt:dt=""string"">2014-06-07T22:35:42Z</DateUtc></FrequencyChange></FrequencyChanges></Clock>\n",60.033,1,-643403195,0,,-999999,7,28046,t,107554,135600,6/7/2014,15:35:42,,1,Session1,SessionsList,,,,,,,,,,1,1,1,2,,,,,2,1,2,,,,NonCued1,MiniBlocks1,286982,,,,4,1,r,-999999,13,359612,r,532,360144,Green,Congruent,r,White,0,,0,2,349601,,0,0,,,,,,,,,,,,,Pictures\white.bmp,9000,10000,Pictures\GreenLeft.bmp,4,1,4,,,,,,,,,,StimulusPr,Pictures\black.bmp,NonCuedStim1,Left
POP_2,27038,1,"<?xml version=""1.0""?>\n<Clock xmlns:dt=""urn:schemas-microsoft-com:datatypes""><Description dt:dt=""string"">E-Prime Primary Realtime Clock</Description><StartTime><Timestamp dt:dt=""int"">0</Timestamp><DateUtc dt:dt=""string"">2014-06-07T22:35:42Z</DateUtc></StartTime><FrequencyChanges><FrequencyChange><Frequency dt:dt=""r8"">2793040000</Frequency><Timestamp dt:dt=""r8"">1.05609261747605E+15</Timestamp><Current dt:dt=""r8"">0</Current><DateUtc dt:dt=""string"">2014-06-07T22:35:42Z</DateUtc></FrequencyChange></FrequencyChanges></Clock>\n",60.033,1,-643403195,0,,-999999,7,28046,t,107554,135600,6/7/2014,15:35:42,,1,Session1,SessionsList,,,,,,,,,,1,1,1,2,,,,,2,1,2,,,,NonCued1,MiniBlocks1,286982,,,,5,1,b,-999999,5,375604,b,623,376227,Green,Congruent,b,White,0,,0,7,371606,,0,0,,,,,,,,,,,,,Pictures\white.bmp,3000,2000,Pictures\black.bmp,5,1,5,,,,,,,,,,StimulusPr,Pictures\GreenRight.bmp,NonCuedStim1,Right
POP_2,27038,1,"<?xml version=""1.0""?>\n<Clock xmlns:dt=""urn:schemas-microsoft-com:datatypes""><Description dt:dt=""string"">E-Prime Primary Realtime Clock</Description><StartTime><Timestamp dt:dt=""int"">0</Timestamp><DateUtc dt:dt=""string"">2014-06-07T22:35:42Z</DateUtc></StartTime><FrequencyChanges><FrequencyChange><Frequency dt:dt=""r8"">2793040000</Frequency><Timestamp dt:dt=""r8"">1.05609261747605E+15</Timestamp><Current dt:dt=""r8"">0</Current><DateUtc dt:dt=""string"">2014-06-07T22:35:42Z</DateUtc></FrequencyChange></FrequencyChanges></Clock>\n",60.033,1,-643403195,0,,-999999,7,28046,t,107554,135600,6/7/2014,15:35:42,,1,Session1,SessionsList,,,,,,,,,,1,1,1,2,,,,,2,1,2,,,,NonCued1,MiniBlocks1,286982,,,,6,1,b,-999999,18,384617,b,585,385202,Red,Incongruent,b,White,0,,0,4,379602,,0,0,,,,,,,,,,,,,Pictures\white.bmp,4000,16000,Pictures\RedLeft.bmp,6,1,6,,,,,,,,,,StimulusPr,Pictures\black.bmp,NonCuedStim1,Left
POP_2,27038,1,"<?xml version=""1.0""?>\n<Clock xmlns:dt=""urn:schemas-microsoft-com:datatypes""><Description dt:dt=""string"">E-Prime Primary Realtime Clock</Description><StartTime><Timestamp dt:dt=""int"">0</Timestamp><DateUtc dt:dt=""string"">2014-06-07T22:35:42Z</DateUtc></StartTime><FrequencyChanges><FrequencyChange><Frequency dt:dt=""r8"">2793040000</Frequency><Timestamp dt:dt=""r8"">1.05609261747605E+15</Timestamp><Current dt:dt=""r8"">0</Current><DateUtc dt:dt=""string"">2014-06-07T22:35:42Z</DateUtc></FrequencyChange></FrequencyChanges></Clock>\n",60.033,1,-643403195,0,,-999999,7,28046,t,107554,135600,6/7/2014,15:35:42,,1,Session1,SessionsList,,,,,,,,,,1,1,1,2,,,,,2,1,2,,,,NonCued1,MiniBlocks1,286982,,,,7,1,b,-999999,7,406605,b,392,406997,Green,Congruent,b,White,0,,0,9,402607,,0,0,,,,,,,,,,,,,Pictures\white.bmp,3000,4000,Pictures\black.bmp,7,1,7,,,,,,,,,,StimulusPr,Pictures\GreenRight.bmp,NonCuedStim1,Right
POP_2,27038,1,"<?xml version=""1.0""?>\n<Clock xmlns:dt=""urn:schemas-microsoft-com:datatypes""><Description dt:dt=""string"">E-Prime Primary Realtime Clock</Description><StartTime><Timestamp dt:dt=""int"">0</Timestamp><DateUtc dt:dt=""string"">2014-06-07T22:35:42Z</DateUtc></StartTime><FrequencyChanges><FrequencyChange><Frequency dt:dt=""r8"">2793040000</Frequency><Timestamp dt:dt=""r8"">1.05609261747605E+15</Timestamp><Current dt:dt=""r8"">0</Current><DateUtc dt:dt=""string"">2014-06-07T22:35:42Z</DateUtc></FrequencyChange></FrequencyChanges></Clock>\n",60.033,1,-643403195,0,,-999999,7,28046,t,107554,135600,6/7/2014,15:35:42,,1,Session1,SessionsList,,,,,,,,,,1,1,1,2,,,,,2,1,2,,,,NonCued1,MiniBlocks1,286982,,,,8,1,b,-999999,3,416601,b,422,417023,Green,Congruent,b,White,0,,0,4,412602,,0,0,,,,,,,,,,,,,Pictures\white.bmp,3000,4000,Pictures\black.bmp,8,1,8,,,,,,,,,,StimulusPr,Pictures\GreenRight.bmp,NonCuedStim1,Right
POP_2,27038,1,"<?xml version=""1.0""?>\n<Clock xmlns:dt=""urn:schemas-microsoft-com:datatypes""><Description dt:dt=""string"">E-Prime Primary Realtime Clock</Description><StartTime><Timestamp dt:dt=""int"">0</Timestamp><DateUtc dt:dt=""string"">2014-06-07T22:35:42Z</DateUtc></StartTime><FrequencyChanges><FrequencyChange><Frequency dt:dt=""r8"">2793040000</Frequency><Timestamp dt:dt=""r8"">1.05609261747605E+15</Timestamp><Current dt:dt=""r8"">0</Current><DateUtc dt:dt=""string"">2014-06-07T22:35:42Z</DateUtc></FrequencyChange></FrequencyChanges></Clock>\n",60.033,1,-643403195,0,,-999999,7,28046,t,107554,135600,6/7/2014,15:35:42,,1,Session1,SessionsList,,,,,,,,,,1,1,1,2,,,,,2,1,2,,,,NonCued1,MiniBlocks1,286982,,,,9,1,b,-999999,11,432609,b,779,433388,Red,Incongruent,b,White,0,,0,16,422614,,0,0,,,,,,,,,,,,,Pictures\white.bmp,9000,2000,Pictures\RedLeft.bmp,9,1,9,,,,,,,,,,StimulusPr,Pictures\black.bmp,NonCuedStim1,Left
POP_2,27038,1,"<?xml version=""1.0""?>\n<Clock xmlns:dt=""urn:schemas-microsoft-com:datatypes""><Description dt:dt=""string"">E-Prime Primary Realtime Clock</Description><StartTime><Timestamp dt:dt=""int"">0</Timestamp><DateUtc dt:dt=""string"">2014-06-07T22:35:42Z</DateUtc></StartTime><FrequencyChanges><FrequencyChange><Frequency dt:dt=""r8"">2793040000</Frequency><Timestamp dt:dt=""r8"">1.05609261747605E+15</Timestamp><Current dt:dt=""r8"">0</Current><DateUtc dt:dt=""string"">2014-06-07T22:35:42Z</DateUtc></FrequencyChange></FrequencyChanges></Clock>\n",60.033,1,-643403195,0,,-999999,7,28046,t,107554,135600,6/7/2014,15:35:42,,1,Session1,SessionsList,,,,,,,,,,1,1,1,2,,,,,2,1,2,,,,NonCued1,MiniBlocks1,286982,,,,10,1,r,-999999,6,443604,r,560,444164,Green,Congruent,r,White,0,,0,9,436607,,0,0,,,,,,,,,,,,,Pictures\white.bmp,6000,2000,Pictures\GreenLeft.bmp,10,1,10,,,,,,,,,,StimulusPr,Pictures\black.bmp,NonCuedStim1,Left
POP_2,27038,1,"<?xml version=""1.0""?>\n<Clock xmlns:dt=""urn:schemas-microsoft-com:datatypes""><Description dt:dt=""string"">E-Prime Primary Realtime Clock</Description><StartTime><Timestamp dt:dt=""int"">0</Timestamp><DateUtc dt:dt=""string"">2014-06-07T22:35:42Z</DateUtc></StartTime><FrequencyChanges><FrequencyChange><Frequency dt:dt=""r8"">2793040000</Frequency><Timestamp dt:dt=""r8"">1.05609261747605E+15</Timestamp><Current dt:dt=""r8"">0</Current><DateUtc dt:dt=""string"">2014-06-07T22:35:42Z</DateUtc></FrequencyChange></FrequencyChanges></Clock>\n",60.033,1,-643403195,0,,-999999,7,28046,t,107554,135600,6/7/2014,15:35:42,,1,Session1,SessionsList,,,,,,,,,,1,1,1,3,,,,,3,1,3,,,,NonCued2,MiniBlocks1,,446186,,,1,1,b,-999999,11,466609,b,456,467065,Green,Congruent,b,White,0,,0,16,456614,,0,0,,,,,,,,,,,,,Pictures\white.bmp,9000,10000,Pictures\black.bmp,,,,1,1,1,,,,,,,StimulusPr,Pictures\GreenRight.bmp,NonCuedStim2,Right
POP_2,27038,1,"<?xml version=""1.0""?>\n<Clock xmlns:dt=""urn:schemas-microsoft-com:datatypes""><Description dt:dt=""string"">E-Prime Primary Realtime Clock</Description><StartTime><Timestamp dt:dt=""int"">0</Timestamp><DateUtc dt:dt=""string"">2014-06-07T22:35:42Z</DateUtc></StartTime><FrequencyChanges><FrequencyChange><Frequency dt:dt=""r8"">2793040000</Frequency><Timestamp dt:dt=""r8"">1.05609261747605E+15</Timestamp><Current dt:dt=""r8"">0</Current><DateUtc dt:dt=""string"">2014-06-07T22:35:42Z</DateUtc></FrequencyChange></FrequencyChanges></Clock>\n",60.033,1,-643403195,0,,-999999,7,28046,t,107554,135600,6/7/2014,15:35:42,,1,Session1,SessionsList,,,,,,,,,,1,1,1,3,,,,,3,1,3,,,,NonCued2,MiniBlocks1,,446186,,,2,1,r,-999999,3,482601,r,569,483170,Green,Congruent,r,White,0,,0,5,478603,,0,0,,,,,,,,,,,,,Pictures\white.bmp,3000,2000,Pictures\GreenLeft.bmp,,,,2,1,2,,,,,,,StimulusPr,Pictures\black.bmp,NonCuedStim2,Left
POP_2,27038,1,"<?xml version=""1.0""?>\n<Clock xmlns:dt=""urn:schemas-microsoft-com:datatypes""><Description dt:dt=""string"">E-Prime Primary Realtime Clock</Description><StartTime><Timestamp dt:dt=""int"">0</Timestamp><DateUtc dt:dt=""string"">2014-06-07T22:35:42Z</DateUtc></StartTime><FrequencyChanges><FrequencyChange><Frequency dt:dt=""r8"">2793040000</Frequency><Timestamp dt:dt=""r8"">1.05609261747605E+15</Timestamp><Current dt:dt=""r8"">0</Current><DateUtc dt:dt=""string"">2014-06-07T22:35:42Z</DateUtc></FrequencyChange></FrequencyChanges></Clock>\n",60.033,1,-643403195,0,,-999999,7,28046,t,107554,135600,6/7/2014,15:35:42,,1,Session1,SessionsList,,,,,,,,,,1,1,1,3,,,,,3,1,3,,,,NonCued2,MiniBlocks1,,446186,,,3,1,r,-999999,15,490613,r,636,491249,Red,Incongruent,r,White,0,,0,17,486615,,0,0,,,,,,,,,,,,,Pictures\white.bmp,3000,2000,Pictures\black.bmp,,,,3,1,3,,,,,,,StimulusPr,Pictures\RedRight.bmp,NonCuedStim2,Right
POP_2,27038,1,"<?xml version=""1.0""?>\n<Clock xmlns:dt=""urn:schemas-microsoft-com:datatypes""><Description dt:dt=""string"">E-Prime Primary Realtime Clock</Description><StartTime><Timestamp dt:dt=""int"">0</Timestamp><DateUtc dt:dt=""string"">2014-06-07T22:35:42Z</DateUtc></StartTime><FrequencyChanges><FrequencyChange><Frequency dt:dt=""r8"">2793040000</Frequency><Timestamp dt:dt=""r8"">1.05609261747605E+15</Timestamp><Current dt:dt=""r8"">0</Current><DateUtc dt:dt=""string"">2014-06-07T22:35:42Z</DateUtc></FrequencyChange></FrequencyChanges></Clock>\n",60.033,1,-643403195,0,,-999999,7,28046,t,107554,135600,6/7/2014,15:35:42,,1,Session1,SessionsList,,,,,,,,,,1,1,1,3,,,,,3,1,3,,,,NonCued2,MiniBlocks1,,446186,,,4,1,r,-999999,11,499609,r,524,500133,Green,Congruent,r,White,0,,0,13,494611,,0,0,,,,,,,,,,,,,Pictures\white.bmp,4000,16000,Pictures\GreenLeft.bmp,,,,4,1,4,,,,,,,StimulusPr,Pictures\black.bmp,NonCuedStim2,Left
POP_2,27038,1,"<?xml version=""1.0""?>\n<Clock xmlns:dt=""urn:schemas-microsoft-com:datatypes""><Description dt:dt=""string"">E-Prime Primary Realtime Clock</Description><StartTime><Timestamp dt:dt=""int"">0</Timestamp><DateUtc dt:dt=""string"">2014-06-07T22:35:42Z</DateUtc></StartTime><FrequencyChanges><FrequencyChange><Frequency dt:dt=""r8"">2793040000</Frequency><Timestamp dt:dt=""r8"">1.05609261747605E+15</Timestamp><Current dt:dt=""r8"">0</Current><DateUtc dt:dt=""string"">2014-06-07T22:35:42Z</DateUtc></FrequencyChange></FrequencyChanges></Clock>\n",60.033,1,-643403195,0,,-999999,7,28046,t,107554,135600,6/7/2014,15:35:42,,1,Session1,SessionsList,,,,,,,,,,1,1,1,3,,,,,3,1,3,,,,NonCued2,MiniBlocks1,,446186,,,5,1,r,-999999,15,524613,r,549,525162,Green,Congruent,r,White,0,,0,2,517600,,0,0,,,,,,,,,,,,,Pictures\white.bmp,6000,4000,Pictures\GreenLeft.bmp,,,,5,1,5,,,,,,,StimulusPr,Pictures\black.bmp,NonCuedStim2,Left
POP_2,27038,1,"<?xml version=""1.0""?>\n<Clock xmlns:dt=""urn:schemas-microsoft-com:datatypes""><Description dt:dt=""string"">E-Prime Primary Realtime Clock</Description><StartTime><Timestamp dt:dt=""int"">0</Timestamp><DateUtc dt:dt=""string"">2014-06-07T22:35:42Z</DateUtc></StartTime><FrequencyChanges><FrequencyChange><Frequency dt:dt=""r8"">2793040000</Frequency><Timestamp dt:dt=""r8"">1.05609261747605E+15</Timestamp><Current dt:dt=""r8"">0</Current><DateUtc dt:dt=""string"">2014-06-07T22:35:42Z</DateUtc></FrequencyChange></FrequencyChanges></Clock>\n",60.033,1,-643403195,0,,-999999,7,28046,t,107554,135600,6/7/2014,15:35:42,,1,Session1,SessionsList,,,,,,,,,,1,1,1,3,,,,,3,1,3,,,,NonCued2,MiniBlocks1,,446186,,,6,1,b,-999999,10,534608,b,432,535040,Red,Incongruent,b,White,0,,0,12,530610,,0,0,,,,,,,,,,,,,Pictures\white.bmp,3000,4000,Pictures\RedLeft.bmp,,,,6,1,6,,,,,,,StimulusPr,Pictures\black.bmp,NonCuedStim2,Left
POP_2,27038,1,"<?xml version=""1.0""?>\n<Clock xmlns:dt=""urn:schemas-microsoft-com:datatypes""><Description dt:dt=""string"">E-Prime Primary Realtime Clock</Description><StartTime><Timestamp dt:dt=""int"">0</Timestamp><DateUtc dt:dt=""string"">2014-06-07T22:35:42Z</DateUtc></StartTime><FrequencyChanges><FrequencyChange><Frequency dt:dt=""r8"">2793040000</Frequency><Timestamp dt:dt=""r8"">1.05609261747605E+15</Timestamp><Current dt:dt=""r8"">0</Current><DateUtc dt:dt=""string"">2014-06-07T22:35:42Z</DateUtc></FrequencyChange></FrequencyChanges></Clock>\n",60.033,1,-643403195,0,,-999999,7,28046,t,107554,135600,6/7/2014,15:35:42,,1,Session1,SessionsList,,,,,,,,,,1,1,1,3,,,,,3,1,3,,,,NonCued2,MiniBlocks1,,446186,,,7,1,b,-999999,4,545602,b,463,546065,Green,Congruent,b,White,0,,0,7,540605,,0,0,,,,,,,,,,,,,Pictures\white.bmp,4000,16000,Pictures\black.bmp,,,,7,1,7,,,,,,,StimulusPr,Pictures\GreenRight.bmp,NonCuedStim2,Right
POP_2,27038,1,"<?xml version=""1.0""?>\n<Clock xmlns:dt=""urn:schemas-microsoft-com:datatypes""><Description dt:dt=""string"">E-Prime Primary Realtime Clock</Description><StartTime><Timestamp dt:dt=""int"">0</Timestamp><DateUtc dt:dt=""string"">2014-06-07T22:35:42Z</DateUtc></StartTime><FrequencyChanges><FrequencyChange><Frequency dt:dt=""r8"">2793040000</Frequency><Timestamp dt:dt=""r8"">1.05609261747605E+15</Timestamp><Current dt:dt=""r8"">0</Current><DateUtc dt:dt=""string"">2014-06-07T22:35:42Z</DateUtc></FrequencyChange></FrequencyChanges></Clock>\n",60.033,1,-643403195,0,,-999999,7,28046,t,107554,135600,6/7/2014,15:35:42,,1,Session1,SessionsList,,,,,,,,,,1,1,1,3,,,,,3,1,3,,,,NonCued2,MiniBlocks1,,446186,,,8,1,r,-999999,7,573605,r,557,574162,Green,Congruent,r,White,0,,0,12,563610,,0,0,,,,,,,,,,,,,Pictures\white.bmp,9000,2000,Pictures\GreenLeft.bmp,,,,8,1,8,,,,,,,StimulusPr,Pictures\black.bmp,NonCuedStim2,Left
POP_2,27038,1,"<?xml version=""1.0""?>\n<Clock xmlns:dt=""urn:schemas-microsoft-com:datatypes""><Description dt:dt=""string"">E-Prime Primary Realtime Clock</Description><StartTime><Timestamp dt:dt=""int"">0</Timestamp><DateUtc dt:dt=""string"">2014-06-07T22:35:42Z</DateUtc></StartTime><FrequencyChanges><FrequencyChange><Frequency dt:dt=""r8"">2793040000</Frequency><Timestamp dt:dt=""r8"">1.05609261747605E+15</Timestamp><Current dt:dt=""r8"">0</Current><DateUtc dt:dt=""string"">2014-06-07T22:35:42Z</DateUtc></FrequencyChange></FrequencyChanges></Clock>\n",60.033,1,-643403195,0,,-999999,7,28046,t,107554,135600,6/7/2014,15:35:42,,1,Session1,SessionsList,,,,,,,,,,1,1,1,3,,,,,3,1,3,,,,NonCued2,MiniBlocks1,,446186,,,9,1,b,-999999,3,581601,b,388,581989,Green,Congruent,b,White,0,,0,5,577603,,0,0,,,,,,,,,,,,,Pictures\white.bmp,3000,10000,Pictures\black.bmp,,,,9,1,9,,,,,,,StimulusPr,Pictures\GreenRight.bmp,NonCuedStim2,Right
POP_2,27038,1,"<?xml version=""1.0""?>\n<Clock xmlns:dt=""urn:schemas-microsoft-com:datatypes""><Description dt:dt=""string"">E-Prime Primary Realtime Clock</Description><StartTime><Timestamp dt:dt=""int"">0</Timestamp><DateUtc dt:dt=""string"">2014-06-07T22:35:42Z</DateUtc></StartTime><FrequencyChanges><FrequencyChange><Frequency dt:dt=""r8"">2793040000</Frequency><Timestamp dt:dt=""r8"">1.05609261747605E+15</Timestamp><Current dt:dt=""r8"">0</Current><DateUtc dt:dt=""string"">2014-06-07T22:35:42Z</DateUtc></FrequencyChange></FrequencyChanges></Clock>\n",60.033,1,-643403195,0,,-999999,7,28046,t,107554,135600,6/7/2014,15:35:42,,1,Session1,SessionsList,,,,,,,,,,1,1,1,3,,,,,3,1,3,,,,NonCued2,MiniBlocks1,,446186,,,10,1,b,-999999,12,597609,b,361,597970,Green,Congruent,b,White,0,,0,14,593611,,0,0,,,,,,,,,,,,,Pictures\white.bmp,3000,2000,Pictures\black.bmp,,,,10,1,10,,,,,,,StimulusPr,Pictures\GreenRight.bmp,NonCuedStim2,Right
POP_2,27038,1,"<?xml version=""1.0""?>\n<Clock xmlns:dt=""urn:schemas-microsoft-com:datatypes""><Description dt:dt=""string"">E-Prime Primary Realtime Clock</Description><StartTime><Timestamp dt:dt=""int"">0</Timestamp><DateUtc dt:dt=""string"">2014-06-07T22:35:42Z</DateUtc></StartTime><FrequencyChanges><FrequencyChange><Frequency dt:dt=""r8"">2793040000</Frequency><Timestamp dt:dt=""r8"">1.05609261747605E+15</Timestamp><Current dt:dt=""r8"">0</Current><DateUtc dt:dt=""string"">2014-06-07T22:35:42Z</DateUtc></FrequencyChange></FrequencyChanges></Clock>\n",60.033,1,-643403195,0,,-999999,7,28046,t,107554,135600,6/7/2014,15:35:42,,1,Session1,SessionsList,,,,,,,,,,1,1,1,4,,599992,,,4,1,4,,,,Cued2,MiniBlocks1,,,,,1,1,b,-999999,3,616600,b,568,617168,White,Congruent,b,Green,0,,0,6,609603,,0,0,,,,1,1,1,,,,,,,Pictures\green.bmp,6000,4000,Pictures\black.bmp,,,,,,,,,,,,,StimulusPr,Pictures\right.bmp,CuedStim2,Right
POP_2,27038,1,"<?xml version=""1.0""?>\n<Clock xmlns:dt=""urn:schemas-microsoft-com:datatypes""><Description dt:dt=""string"">E-Prime Primary Realtime Clock</Description><StartTime><Timestamp dt:dt=""int"">0</Timestamp><DateUtc dt:dt=""string"">2014-06-07T22:35:42Z</DateUtc></StartTime><FrequencyChanges><FrequencyChange><Frequency dt:dt=""r8"">2793040000</Frequency><Timestamp dt:dt=""r8"">1.05609261747605E+15</Timestamp><Current dt:dt=""r8"">0</Current><DateUtc dt:dt=""string"">2014-06-07T22:35:42Z</DateUtc></FrequencyChange></FrequencyChanges></Clock>\n",60.033,1,-643403195,0,,-999999,7,28046,t,107554,135600,6/7/2014,15:35:42,,1,Session1,SessionsList,,,,,,,,,,1,1,1,4,,599992,,,4,1,4,,,,Cued2,MiniBlocks1,,,,,2,1,b,-999999,11,632608,b,350,632958,White,Congruent,b,Green,0,,0,17,622614,,0,0,,,,2,1,2,,,,,,,Pictures\green.bmp,9000,10000,Pictures\black.bmp,,,,,,,,,,,,,StimulusPr,Pictures\right.bmp,CuedStim2,Right
POP_2,27038,1,"<?xml version=""1.0""?>\n<Clock xmlns:dt=""urn:schemas-microsoft-com:datatypes""><Description dt:dt=""string"">E-Prime Primary Realtime Clock</Description><StartTime><Timestamp dt:dt=""int"">0</Timestamp><DateUtc dt:dt=""string"">2014-06-07T22:35:42Z</DateUtc></StartTime><FrequencyChanges><FrequencyChange><Frequency dt:dt=""r8"">2793040000</Frequency><Timestamp dt:dt=""r8"">1.05609261747605E+15</Timestamp><Current dt:dt=""r8"">0</Current><DateUtc dt:dt=""string"">2014-06-07T22:35:42Z</DateUtc></FrequencyChange></FrequencyChanges></Clock>\n",60.033,1,-643403195,0,,-999999,7,28046,t,107554,135600,6/7/2014,15:35:42,,1,Session1,SessionsList,,,,,,,,,,1,1,1,4,,599992,,,4,1,4,,,,Cued2,MiniBlocks1,,,,,3,1,r,-999999,3,648600,r,537,649137,White,Incongruent,r,Red,0,,0,5,644602,,0,0,,,,3,1,3,,,,,,,Pictures\red.bmp,3000,2000,Pictures\black.bmp,,,,,,,,,,,,,StimulusPr,Pictures\right.bmp,CuedStim2,Right
POP_2,27038,1,"<?xml version=""1.0""?>\n<Clock xmlns:dt=""urn:schemas-microsoft-com:datatypes""><Description dt:dt=""string"">E-Prime Primary Realtime Clock</Description><StartTime><Timestamp dt:dt=""int"">0</Timestamp><DateUtc dt:dt=""string"">2014-06-07T22:35:42Z</DateUtc></StartTime><FrequencyChanges><FrequencyChange><Frequency dt:dt=""r8"">2793040000</Frequency><Timestamp dt:dt=""r8"">1.05609261747605E+15</Timestamp><Current dt:dt=""r8"">0</Current><DateUtc dt:dt=""string"">2014-06-07T22:35:42Z</DateUtc></FrequencyChange></FrequencyChanges></Clock>\n",60.033,1,-643403195,0,,-999999,7,28046,t,107554,135600,6/7/2014,15:35:42,,1,Session1,SessionsList,,,,,,,,,,1,1,1,4,,599992,,,4,1,4,,,,Cued2,MiniBlocks1,,,,,4,1,r,-999999,15,659612,r,516,660128,White,Congruent,r,Green,0,,0,18,652615,,0,0,,,,4,1,4,,,,,,,Pictures\green.bmp,6000,16000,Pictures\left.bmp,,,,,,,,,,,,,StimulusPr,Pictures\black.bmp,CuedStim2,Left
POP_2,27038,1,"<?xml version=""1.0""?>\n<Clock xmlns:dt=""urn:schemas-microsoft-com:datatypes""><Description dt:dt=""string"">E-Prime Primary Realtime Clock</Description><StartTime><Timestamp dt:dt=""int"">0</Timestamp><DateUtc dt:dt=""string"">2014-06-07T22:35:42Z</DateUtc></StartTime><FrequencyChanges><FrequencyChange><Frequency dt:dt=""r8"">2793040000</Frequency><Timestamp dt:dt=""r8"">1.05609261747605E+15</Timestamp><Current dt:dt=""r8"">0</Current><DateUtc dt:dt=""string"">2014-06-07T22:35:42Z</DateUtc></FrequencyChange></FrequencyChanges></Clock>\n",60.033,1,-643403195,0,,-999999,7,28046,t,107554,135600,6/7/2014,15:35:42,,1,Session1,SessionsList,,,,,,,,,,1,1,1,4,,599992,,,4,1,4,,,,Cued2,MiniBlocks1,,,,,5,1,b,-999999,4,681601,b,421,682022,White,Congruent,b,Green,0,,0,6,677603,,0,0,,,,5,1,5,,,,,,,Pictures\green.bmp,3000,2000,Pictures\black.bmp,,,,,,,,,,,,,StimulusPr,Pictures\right.bmp,CuedStim2,Right
POP_2,27038,1,"<?xml version=""1.0""?>\n<Clock xmlns:dt=""urn:schemas-microsoft-com:datatypes""><Description dt:dt=""string"">E-Prime Primary Realtime Clock</Description><StartTime><Timestamp dt:dt=""int"">0</Timestamp><DateUtc dt:dt=""string"">2014-06-07T22:35:42Z</DateUtc></StartTime><FrequencyChanges><FrequencyChange><Frequency dt:dt=""r8"">2793040000</Frequency><Timestamp dt:dt=""r8"">1.05609261747605E+15</Timestamp><Current dt:dt=""r8"">0</Current><DateUtc dt:dt=""string"">2014-06-07T22:35:42Z</DateUtc></FrequencyChange></FrequencyChanges></Clock>\n",60.033,1,-643403195,0,,-999999,7,28046,t,107554,135600,6/7/2014,15:35:42,,1,Session1,SessionsList,,,,,,,,,,1,1,1,4,,599992,,,4,1,4,,,,Cued2,MiniBlocks1,,,,,6,1,r,-999999,16,689613,r,385,689998,White,Congruent,r,Green,0,,0,18,685615,,0,0,,,,6,1,6,,,,,,,Pictures\green.bmp,3000,2000,Pictures\left.bmp,,,,,,,,,,,,,StimulusPr,Pictures\black.bmp,CuedStim2,Left
POP_2,27038,1,"<?xml version=""1.0""?>\n<Clock xmlns:dt=""urn:schemas-microsoft-com:datatypes""><Description dt:dt=""string"">E-Prime Primary Realtime Clock</Description><StartTime><Timestamp dt:dt=""int"">0</Timestamp><DateUtc dt:dt=""string"">2014-06-07T22:35:42Z</DateUtc></StartTime><FrequencyChanges><FrequencyChange><Frequency dt:dt=""r8"">2793040000</Frequency><Timestamp dt:dt=""r8"">1.05609261747605E+15</Timestamp><Current dt:dt=""r8"">0</Current><DateUtc dt:dt=""string"">2014-06-07T22:35:42Z</DateUtc></FrequencyChange></FrequencyChanges></Clock>\n",60.033,1,-643403195,0,,-999999,7,28046,t,107554,135600,6/7/2014,15:35:42,,1,Session1,SessionsList,,,,,,,,,,1,1,1,4,,599992,,,4,1,4,,,,Cued2,MiniBlocks1,,,,,7,1,b,-999999,11,700608,b,606,701214,White,Incongruent,b,Red,0,,0,14,693611,,0,0,,,,7,1,7,,,,,,,Pictures\red.bmp,6000,4000,Pictures\left.bmp,,,,,,,,,,,,,StimulusPr,Pictures\black.bmp,CuedStim2,Left
POP_2,27038,1,"<?xml version=""1.0""?>\n<Clock xmlns:dt=""urn:schemas-microsoft-com:datatypes""><Description dt:dt=""string"">E-Prime Primary Realtime Clock</Description><StartTime><Timestamp dt:dt=""int"">0</Timestamp><DateUtc dt:dt=""string"">2014-06-07T22:35:42Z</DateUtc></StartTime><FrequencyChanges><FrequencyChange><Frequency dt:dt=""r8"">2793040000</Frequency><Timestamp dt:dt=""r8"">1.05609261747605E+15</Timestamp><Current dt:dt=""r8"">0</Current><DateUtc dt:dt=""string"">2014-06-07T22:35:42Z</DateUtc></FrequencyChange></FrequencyChanges></Clock>\n",60.033,1,-643403195,0,,-999999,7,28046,t,107554,135600,6/7/2014,15:35:42,,1,Session1,SessionsList,,,,,,,,,,1,1,1,4,,599992,,,4,1,4,,,,Cued2,MiniBlocks1,,,,,8,0,b,-999999,5,711602,r,524,712126,White,Congruent,b,Green,0,,0,8,706605,,0,0,,,,8,1,8,,,,,,,Pictures\green.bmp,4000,4000,Pictures\black.bmp,,,,,,,,,,,,,StimulusPr,Pictures\right.bmp,CuedStim2,Right
POP_2,27038,1,"<?xml version=""1.0""?>\n<Clock xmlns:dt=""urn:schemas-microsoft-com:datatypes""><Description dt:dt=""string"">E-Prime Primary Realtime Clock</Description><StartTime><Timestamp dt:dt=""int"">0</Timestamp><DateUtc dt:dt=""string"">2014-06-07T22:35:42Z</DateUtc></StartTime><FrequencyChanges><FrequencyChange><Frequency dt:dt=""r8"">2793040000</Frequency><Timestamp dt:dt=""r8"">1.05609261747605E+15</Timestamp><Current dt:dt=""r8"">0</Current><DateUtc dt:dt=""string"">2014-06-07T22:35:42Z</DateUtc></FrequencyChange></FrequencyChanges></Clock>\n",60.033,1,-643403195,0,,-999999,7,28046,t,107554,135600,6/7/2014,15:35:42,,1,Session1,SessionsList,,,,,,,,,,1,1,1,4,,599992,,,4,1,4,,,,Cued2,MiniBlocks1,,,,,9,1,b,-999999,14,727611,b,483,728094,White,Incongruent,b,Red,0,,0,2,717599,,0,0,,,,9,1,9,,,,,,,Pictures\red.bmp,9000,10000,Pictures\left.bmp,,,,,,,,,,,,,StimulusPr,Pictures\black.bmp,CuedStim2,Left
POP_2,27038,1,"<?xml version=""1.0""?>\n<Clock xmlns:dt=""urn:schemas-microsoft-com:datatypes""><Description dt:dt=""string"">E-Prime Primary Realtime Clock</Description><StartTime><Timestamp dt:dt=""int"">0</Timestamp><DateUtc dt:dt=""string"">2014-06-07T22:35:42Z</DateUtc></StartTime><FrequencyChanges><FrequencyChange><Frequency dt:dt=""r8"">2793040000</Frequency><Timestamp dt:dt=""r8"">1.05609261747605E+15</Timestamp><Current dt:dt=""r8"">0</Current><DateUtc dt:dt=""string"">2014-06-07T22:35:42Z</DateUtc></FrequencyChange></FrequencyChanges></Clock>\n",60.033,1,-643403195,0,,-999999,7,28046,t,107554,135600,6/7/2014,15:35:42,,1,Session1,SessionsList,,,,,,,,,,1,1,1,4,,599992,,,4,1,4,,,,Cued2,MiniBlocks1,,,,,10,1,r,-999999,3,749600,r,351,749951,White,Congruent,r,Green,0,,0,18,739605,,0,0,,,,10,1,10,,,,,,,Pictures\green.bmp,9000,10000,Pictures\left.bmp,,,,,,,,,,,,,StimulusPr,Pictures\black.bmp,CuedStim2,Left
POP_2,27038,1,"<?xml version=""1.0""?>\n<Clock xmlns:dt=""urn:schemas-microsoft-com:datatypes""><Description dt:dt=""string"">E-Prime Primary Realtime Clock</Description><StartTime><Timestamp dt:dt=""int"">0</Timestamp><DateUtc dt:dt=""string"">2014-06-07T22:35:42Z</DateUtc></StartTime><FrequencyChanges><FrequencyChange><Frequency dt:dt=""r8"">2793040000</Frequency><Timestamp dt:dt=""r8"">1.05609261747605E+15</Timestamp><Current dt:dt=""r8"">0</Current><DateUtc dt:dt=""string"">2014-06-07T22:35:42Z</DateUtc></FrequencyChange></FrequencyChanges></Clock>\n",60.033,1,-643403195,0,,-999999,7,28046,t,107554,135600,6/7/2014,15:35:42,,2,Session2,SessionsList,0,,-999999,4,777819,t,33112,810931,759978,2,1,2,1,,,,,,,,1,1,1,NonCued3,MiniBlocks2,,,810935,,1,1,b,-999999,11,830942,b,472,831414,Green,Congruent,b,White,0,,0,16,820947,,0,0,,,,,,,,,,,,,Pictures\white.bmp,9000,10000,Pictures\black.bmp,,,,,,,1,1,1,,,,StimulusPr,Pictures\GreenRight.bmp,NonCuedStim3,Right
POP_2,27038,1,"<?xml version=""1.0""?>\n<Clock xmlns:dt=""urn:schemas-microsoft-com:datatypes""><Description dt:dt=""string"">E-Prime Primary Realtime Clock</Description><StartTime><Timestamp dt:dt=""int"">0</Timestamp><DateUtc dt:dt=""string"">2014-06-07T22:35:42Z</DateUtc></StartTime><FrequencyChanges><FrequencyChange><Frequency dt:dt=""r8"">2793040000</Frequency><Timestamp dt:dt=""r8"">1.05609261747605E+15</Timestamp><Current dt:dt=""r8"">0</Current><DateUtc dt:dt=""string"">2014-06-07T22:35:42Z</DateUtc></FrequencyChange></FrequencyChanges></Clock>\n",60.033,1,-643403195,0,,-999999,7,28046,t,107554,135600,6/7/2014,15:35:42,,2,Session2,SessionsList,0,,-999999,4,777819,t,33112,810931,759978,2,1,2,1,,,,,,,,1,1,1,NonCued3,MiniBlocks2,,,810935,,2,1,r,-999999,16,852948,r,506,853454,Red,Incongruent,r,White,0,,0,5,842936,,0,0,,,,,,,,,,,,,Pictures\white.bmp,9000,10000,Pictures\black.bmp,,,,,,,2,1,2,,,,StimulusPr,Pictures\RedRight.bmp,NonCuedStim3,Right
POP_2,27038,1,"<?xml version=""1.0""?>\n<Clock xmlns:dt=""urn:schemas-microsoft-com:datatypes""><Description dt:dt=""string"">E-Prime Primary Realtime Clock</Description><StartTime><Timestamp dt:dt=""int"">0</Timestamp><DateUtc dt:dt=""string"">2014-06-07T22:35:42Z</DateUtc></StartTime><FrequencyChanges><FrequencyChange><Frequency dt:dt=""r8"">2793040000</Frequency><Timestamp dt:dt=""r8"">1.05609261747605E+15</Timestamp><Current dt:dt=""r8"">0</Current><DateUtc dt:dt=""string"">2014-06-07T22:35:42Z</DateUtc></FrequencyChange></FrequencyChanges></Clock>\n",60.033,1,-643403195,0,,-999999,7,28046,t,107554,135600,6/7/2014,15:35:42,,2,Session2,SessionsList,0,,-999999,4,777819,t,33112,810931,759978,2,1,2,1,,,,,,,,1,1,1,NonCued3,MiniBlocks2,,,810935,,3,1,r,-999999,8,869939,r,526,870465,Green,Congruent,r,White,0,,0,11,864942,,0,0,,,,,,,,,,,,,Pictures\white.bmp,4000,4000,Pictures\GreenLeft.bmp,,,,,,,3,1,3,,,,StimulusPr,Pictures\black.bmp,NonCuedStim3,Left
POP_2,27038,1,"<?xml version=""1.0""?>\n<Clock xmlns:dt=""urn:schemas-microsoft-com:datatypes""><Description dt:dt=""string"">E-Prime Primary Realtime Clock</Description><StartTime><Timestamp dt:dt=""int"">0</Timestamp><DateUtc dt:dt=""string"">2014-06-07T22:35:42Z</DateUtc></StartTime><FrequencyChanges><FrequencyChange><Frequency dt:dt=""r8"">2793040000</Frequency><Timestamp dt:dt=""r8"">1.05609261747605E+15</Timestamp><Current dt:dt=""r8"">0</Current><DateUtc dt:dt=""string"">2014-06-07T22:35:42Z</DateUtc></FrequencyChange></FrequencyChanges></Clock>\n",60.033,1,-643403195,0,,-999999,7,28046,t,107554,135600,6/7/2014,15:35:42,,2,Session2,SessionsList,0,,-999999,4,777819,t,33112,810931,759978,2,1,2,1,,,,,,,,1,1,1,NonCued3,MiniBlocks2,,,810935,,4,1,b,-999999,18,882949,b,515,883464,Red,Incongruent,b,White,0,,0,5,875936,,0,0,,,,,,,,,,,,,Pictures\white.bmp,6000,4000,Pictures\RedLeft.bmp,,,,,,,4,1,4,,,,StimulusPr,Pictures\black.bmp,NonCuedStim3,Left
POP_2,27038,1,"<?xml version=""1.0""?>\n<Clock xmlns:dt=""urn:schemas-microsoft-com:datatypes""><Description dt:dt=""string"">E-Prime Primary Realtime Clock</Description><StartTime><Timestamp dt:dt=""int"">0</Timestamp><DateUtc dt:dt=""string"">2014-06-07T22:35:42Z</DateUtc></StartTime><FrequencyChanges><FrequencyChange><Frequency dt:dt=""r8"">2793040000</Frequency><Timestamp dt:dt=""r8"">1.05609261747605E+15</Timestamp><Current dt:dt=""r8"">0</Current><DateUtc dt:dt=""string"">2014-06-07T22:35:42Z</DateUtc></FrequencyChange></FrequencyChanges></Clock>\n",60.033,1,-643403195,0,,-999999,7,28046,t,107554,135600,6/7/2014,15:35:42,,2,Session2,SessionsList,0,,-999999,4,777819,t,33112,810931,759978,2,1,2,1,,,,,,,,1,1,1,NonCued3,MiniBlocks2,,,810935,,5,1,b,-999999,13,892944,b,474,893418,Green,Congruent,b,White,0,,0,14,888946,,0,0,,,,,,,,,,,,,Pictures\white.bmp,3000,2000,Pictures\black.bmp,,,,,,,5,1,5,,,,StimulusPr,Pictures\GreenRight.bmp,NonCuedStim3,Right
POP_2,27038,1,"<?xml version=""1.0""?>\n<Clock xmlns:dt=""urn:schemas-microsoft-com:datatypes""><Description dt:dt=""string"">E-Prime Primary Realtime Clock</Description><StartTime><Timestamp dt:dt=""int"">0</Timestamp><DateUtc dt:dt=""string"">2014-06-07T22:35:42Z</DateUtc></StartTime><FrequencyChanges><FrequencyChange><Frequency dt:dt=""r8"">2793040000</Frequency><Timestamp dt:dt=""r8"">1.05609261747605E+15</Timestamp><Current dt:dt=""r8"">0</Current><DateUtc dt:dt=""string"">2014-06-07T22:35:42Z</DateUtc></FrequencyChange></FrequencyChanges></Clock>\n",60.033,1,-643403195,0,,-999999,7,28046,t,107554,135600,6/7/2014,15:35:42,,2,Session2,SessionsList,0,,-999999,4,777819,t,33112,810931,759978,2,1,2,1,,,,,,,,1,1,1,NonCued3,MiniBlocks2,,,810935,,6,1,r,-999999,9,900940,r,502,901442,Green,Congruent,r,White,0,,0,11,896942,,0,0,,,,,,,,,,,,,Pictures\white.bmp,3000,2000,Pictures\GreenLeft.bmp,,,,,,,6,1,6,,,,StimulusPr,Pictures\black.bmp,NonCuedStim3,Left
POP_2,27038,1,"<?xml version=""1.0""?>\n<Clock xmlns:dt=""urn:schemas-microsoft-com:datatypes""><Description dt:dt=""string"">E-Prime Primary Realtime Clock</Description><StartTime><Timestamp dt:dt=""int"">0</Timestamp><DateUtc dt:dt=""string"">2014-06-07T22:35:42Z</DateUtc></StartTime><FrequencyChanges><FrequencyChange><Frequency dt:dt=""r8"">2793040000</Frequency><Timestamp dt:dt=""r8"">1.05609261747605E+15</Timestamp><Current dt:dt=""r8"">0</Current><DateUtc dt:dt=""string"">2014-06-07T22:35:42Z</DateUtc></FrequencyChange></FrequencyChanges></Clock>\n",60.033,1,-643403195,0,,-999999,7,28046,t,107554,135600,6/7/2014,15:35:42,,2,Session2,SessionsList,0,,-999999,4,777819,t,33112,810931,759978,2,1,2,1,,,,,,,,1,1,1,NonCued3,MiniBlocks2,,,810935,,7,1,b,-999999,5,911935,b,426,912361,Green,Congruent,b,White,0,,0,7,904938,,0,0,,,,,,,,,,,,,Pictures\white.bmp,6000,16000,Pictures\black.bmp,,,,,,,7,1,7,,,,StimulusPr,Pictures\GreenRight.bmp,NonCuedStim3,Right
POP_2,27038,1,"<?xml version=""1.0""?>\n<Clock xmlns:dt=""urn:schemas-microsoft-com:datatypes""><Description dt:dt=""string"">E-Prime Primary Realtime Clock</Description><StartTime><Timestamp dt:dt=""int"">0</Timestamp><DateUtc dt:dt=""string"">2014-06-07T22:35:42Z</DateUtc></StartTime><FrequencyChanges><FrequencyChange><Frequency dt:dt=""r8"">2793040000</Frequency><Timestamp dt:dt=""r8"">1.05609261747605E+15</Timestamp><Current dt:dt=""r8"">0</Current><DateUtc dt:dt=""string"">2014-06-07T22:35:42Z</DateUtc></FrequencyChange></FrequencyChanges></Clock>\n",60.033,1,-643403195,0,,-999999,7,28046,t,107554,135600,6/7/2014,15:35:42,,2,Session2,SessionsList,0,,-999999,4,777819,t,33112,810931,759978,2,1,2,1,,,,,,,,1,1,1,NonCued3,MiniBlocks2,,,810935,,8,1,r,-999999,10,933940,r,613,934553,Red,Incongruent,r,White,0,,0,12,929942,,0,0,,,,,,,,,,,,,Pictures\white.bmp,3000,2000,Pictures\black.bmp,,,,,,,8,1,8,,,,StimulusPr,Pictures\RedRight.bmp,NonCuedStim3,Right
POP_2,27038,1,"<?xml version=""1.0""?>\n<Clock xmlns:dt=""urn:schemas-microsoft-com:datatypes""><Description dt:dt=""string"">E-Prime Primary Realtime Clock</Description><StartTime><Timestamp dt:dt=""int"">0</Timestamp><DateUtc dt:dt=""string"">2014-06-07T22:35:42Z</DateUtc></StartTime><FrequencyChanges><FrequencyChange><Frequency dt:dt=""r8"">2793040000</Frequency><Timestamp dt:dt=""r8"">1.05609261747605E+15</Timestamp><Current dt:dt=""r8"">0</Current><DateUtc dt:dt=""string"">2014-06-07T22:35:42Z</DateUtc></FrequencyChange></FrequencyChanges></Clock>\n",60.033,1,-643403195,0,,-999999,7,28046,t,107554,135600,6/7/2014,15:35:42,,2,Session2,SessionsList,0,,-999999,4,777819,t,33112,810931,759978,2,1,2,1,,,,,,,,1,1,1,NonCued3,MiniBlocks2,,,810935,,9,1,r,-999999,3,947934,r,463,948397,Green,Congruent,r,White,0,,0,7,937938,,0,0,,,,,,,,,,,,,Pictures\white.bmp,9000,10000,Pictures\GreenLeft.bmp,,,,,,,9,1,9,,,,StimulusPr,Pictures\black.bmp,NonCuedStim3,Left
POP_2,27038,1,"<?xml version=""1.0""?>\n<Clock xmlns:dt=""urn:schemas-microsoft-com:datatypes""><Description dt:dt=""string"">E-Prime Primary Realtime Clock</Description><StartTime><Timestamp dt:dt=""int"">0</Timestamp><DateUtc dt:dt=""string"">2014-06-07T22:35:42Z</DateUtc></StartTime><FrequencyChanges><FrequencyChange><Frequency dt:dt=""r8"">2793040000</Frequency><Timestamp dt:dt=""r8"">1.05609261747605E+15</Timestamp><Current dt:dt=""r8"">0</Current><DateUtc dt:dt=""string"">2014-06-07T22:35:42Z</DateUtc></FrequencyChange></FrequencyChanges></Clock>\n",60.033,1,-643403195,0,,-999999,7,28046,t,107554,135600,6/7/2014,15:35:42,,2,Session2,SessionsList,0,,-999999,4,777819,t,33112,810931,759978,2,1,2,1,,,,,,,,1,1,1,NonCued3,MiniBlocks2,,,810935,,10,1,r,-999999,12,966924,r,404,967328,Green,Congruent,r,White,0,,0,13,959944,,0,0,,,,,,,,,,,,,Pictures\white.bmp,6000,4000,Pictures\GreenLeft.bmp,,,,,,,10,1,10,,,,StimulusPr,Pictures\black.bmp,NonCuedStim3,Left
POP_2,27038,1,"<?xml version=""1.0""?>\n<Clock xmlns:dt=""urn:schemas-microsoft-com:datatypes""><Description dt:dt=""string"">E-Prime Primary Realtime Clock</Description><StartTime><Timestamp dt:dt=""int"">0</Timestamp><DateUtc dt:dt=""string"">2014-06-07T22:35:42Z</DateUtc></StartTime><FrequencyChanges><FrequencyChange><Frequency dt:dt=""r8"">2793040000</Frequency><Timestamp dt:dt=""r8"">1.05609261747605E+15</Timestamp><Current dt:dt=""r8"">0</Current><DateUtc dt:dt=""string"">2014-06-07T22:35:42Z</DateUtc></FrequencyChange></FrequencyChanges></Clock>\n",60.033,1,-643403195,0,,-999999,7,28046,t,107554,135600,6/7/2014,15:35:42,,2,Session2,SessionsList,0,,-999999,4,777819,t,33112,810931,759978,2,1,2,2,,,971355,,,,,2,1,2,Cued3,MiniBlocks2,,,,,1,1,b,-999999,17,984948,b,715,985663,White,Congruent,b,Green,0,,0,3,980933,,0,0,,,,,,,1,1,1,,,,Pictures\green.bmp,3000,2000,Pictures\black.bmp,,,,,,,,,,,,,StimulusPr,Pictures\right.bmp,CuedStim3,Right
POP_2,27038,1,"<?xml version=""1.0""?>\n<Clock xmlns:dt=""urn:schemas-microsoft-com:datatypes""><Description dt:dt=""string"">E-Prime Primary Realtime Clock</Description><StartTime><Timestamp dt:dt=""int"">0</Timestamp><DateUtc dt:dt=""string"">2014-06-07T22:35:42Z</DateUtc></StartTime><FrequencyChanges><FrequencyChange><Frequency dt:dt=""r8"">2793040000</Frequency><Timestamp dt:dt=""r8"">1.05609261747605E+15</Timestamp><Current dt:dt=""r8"">0</Current><DateUtc dt:dt=""string"">2014-06-07T22:35:42Z</DateUtc></FrequencyChange></FrequencyChanges></Clock>\n",60.033,1,-643403195,0,,-999999,7,28046,t,107554,135600,6/7/2014,15:35:42,,2,Session2,SessionsList,0,,-999999,4,777819,t,33112,810931,759978,2,1,2,2,,,971355,,,,,2,1,2,Cued3,MiniBlocks2,,,,,2,1,b,-999999,13,992944,b,555,993499,White,Congruent,b,Green,0,,0,16,988946,,0,0,,,,,,,2,1,2,,,,Pictures\green.bmp,3000,10000,Pictures\black.bmp,,,,,,,,,,,,,StimulusPr,Pictures\right.bmp,CuedStim3,Right
POP_2,27038,1,"<?xml version=""1.0""?>\n<Clock xmlns:dt=""urn:schemas-microsoft-com:datatypes""><Description dt:dt=""string"">E-Prime Primary Realtime Clock</Description><StartTime><Timestamp dt:dt=""int"">0</Timestamp><DateUtc dt:dt=""string"">2014-06-07T22:35:42Z</DateUtc></StartTime><FrequencyChanges><FrequencyChange><Frequency dt:dt=""r8"">2793040000</Frequency><Timestamp dt:dt=""r8"">1.05609261747605E+15</Timestamp><Current dt:dt=""r8"">0</Current><DateUtc dt:dt=""string"">2014-06-07T22:35:42Z</DateUtc></FrequencyChange></FrequencyChanges></Clock>\n",60.033,1,-643403195,0,,-999999,7,28046,t,107554,135600,6/7/2014,15:35:42,,2,Session2,SessionsList,0,,-999999,4,777819,t,33112,810931,759978,2,1,2,2,,,971355,,,,,2,1,2,Cued3,MiniBlocks2,,,,,3,1,r,-999999,3,1014933,r,418,1015351,White,Congruent,r,Green,0,,0,7,1004938,,0,0,,,,,,,3,1,3,,,,Pictures\green.bmp,9000,2000,Pictures\left.bmp,,,,,,,,,,,,,StimulusPr,Pictures\black.bmp,CuedStim3,Left
POP_2,27038,1,"<?xml version=""1.0""?>\n<Clock xmlns:dt=""urn:schemas-microsoft-com:datatypes""><Description dt:dt=""string"">E-Prime Primary Realtime Clock</Description><StartTime><Timestamp dt:dt=""int"">0</Timestamp><DateUtc dt:dt=""string"">2014-06-07T22:35:42Z</DateUtc></StartTime><FrequencyChanges><FrequencyChange><Frequency dt:dt=""r8"">2793040000</Frequency><Timestamp dt:dt=""r8"">1.05609261747605E+15</Timestamp><Current dt:dt=""r8"">0</Current><DateUtc dt:dt=""string"">2014-06-07T22:35:42Z</DateUtc></FrequencyChange></FrequencyChanges></Clock>\n",60.033,1,-643403195,0,,-999999,7,28046,t,107554,135600,6/7/2014,15:35:42,,2,Session2,SessionsList,0,,-999999,4,777819,t,33112,810931,759978,2,1,2,2,,,971355,,,,,2,1,2,Cued3,MiniBlocks2,,,,,4,1,r,-999999,15,1023945,r,394,1024339,White,Congruent,r,Green,0,,0,18,1018948,,0,0,,,,,,,4,1,4,,,,Pictures\green.bmp,4000,16000,Pictures\left.bmp,,,,,,,,,,,,,StimulusPr,Pictures\black.bmp,CuedStim3,Left
POP_2,27038,1,"<?xml version=""1.0""?>\n<Clock xmlns:dt=""urn:schemas-microsoft-com:datatypes""><Description dt:dt=""string"">E-Prime Primary Realtime Clock</Description><StartTime><Timestamp dt:dt=""int"">0</Timestamp><DateUtc dt:dt=""string"">2014-06-07T22:35:42Z</DateUtc></StartTime><FrequencyChanges><FrequencyChange><Frequency dt:dt=""r8"">2793040000</Frequency><Timestamp dt:dt=""r8"">1.05609261747605E+15</Timestamp><Current dt:dt=""r8"">0</Current><DateUtc dt:dt=""string"">2014-06-07T22:35:42Z</DateUtc></FrequencyChange></FrequencyChanges></Clock>\n",60.033,1,-643403195,0,,-999999,7,28046,t,107554,135600,6/7/2014,15:35:42,,2,Session2,SessionsList,0,,-999999,4,777819,t,33112,810931,759978,2,1,2,2,,,971355,,,,,2,1,2,Cued3,MiniBlocks2,,,,,5,1,r,-999999,3,1045934,r,724,1046658,White,Incongruent,r,Red,0,,0,5,1041936,,0,0,,,,,,,5,1,5,,,,Pictures\red.bmp,3000,4000,Pictures\black.bmp,,,,,,,,,,,,,StimulusPr,Pictures\right.bmp,CuedStim3,Right
POP_2,27038,1,"<?xml version=""1.0""?>\n<Clock xmlns:dt=""urn:schemas-microsoft-com:datatypes""><Description dt:dt=""string"">E-Prime Primary Realtime Clock</Description><StartTime><Timestamp dt:dt=""int"">0</Timestamp><DateUtc dt:dt=""string"">2014-06-07T22:35:42Z</DateUtc></StartTime><FrequencyChanges><FrequencyChange><Frequency dt:dt=""r8"">2793040000</Frequency><Timestamp dt:dt=""r8"">1.05609261747605E+15</Timestamp><Current dt:dt=""r8"">0</Current><DateUtc dt:dt=""string"">2014-06-07T22:35:42Z</DateUtc></FrequencyChange></FrequencyChanges></Clock>\n",60.033,1,-643403195,0,,-999999,7,28046,t,107554,135600,6/7/2014,15:35:42,,2,Session2,SessionsList,0,,-999999,4,777819,t,33112,810931,759978,2,1,2,2,,,971355,,,,,2,1,2,Cued3,MiniBlocks2,,,,,6,1,b,-999999,14,1058944,b,360,1059304,White,Congruent,b,Green,0,,0,18,1051948,,0,0,,,,,,,6,1,6,,,,Pictures\green.bmp,6000,4000,Pictures\black.bmp,,,,,,,,,,,,,StimulusPr,Pictures\right.bmp,CuedStim3,Right
POP_2,27038,1,"<?xml version=""1.0""?>\n<Clock xmlns:dt=""urn:schemas-microsoft-com:datatypes""><Description dt:dt=""string"">E-Prime Primary Realtime Clock</Description><StartTime><Timestamp dt:dt=""int"">0</Timestamp><DateUtc dt:dt=""string"">2014-06-07T22:35:42Z</DateUtc></StartTime><FrequencyChanges><FrequencyChange><Frequency dt:dt=""r8"">2793040000</Frequency><Timestamp dt:dt=""r8"">1.05609261747605E+15</Timestamp><Current dt:dt=""r8"">0</Current><DateUtc dt:dt=""string"">2014-06-07T22:35:42Z</DateUtc></FrequencyChange></FrequencyChanges></Clock>\n",60.033,1,-643403195,0,,-999999,7,28046,t,107554,135600,6/7/2014,15:35:42,,2,Session2,SessionsList,0,,-999999,4,777819,t,33112,810931,759978,2,1,2,2,,,971355,,,,,2,1,2,Cued3,MiniBlocks2,,,,,7,1,r,-999999,8,1069939,r,629,1070568,White,Congruent,r,Green,0,,0,11,1064941,,0,0,,,,,,,7,1,7,,,,Pictures\green.bmp,4000,16000,Pictures\left.bmp,,,,,,,,,,,,,StimulusPr,Pictures\black.bmp,CuedStim3,Left
POP_2,27038,1,"<?xml version=""1.0""?>\n<Clock xmlns:dt=""urn:schemas-microsoft-com:datatypes""><Description dt:dt=""string"">E-Prime Primary Realtime Clock</Description><StartTime><Timestamp dt:dt=""int"">0</Timestamp><DateUtc dt:dt=""string"">2014-06-07T22:35:42Z</DateUtc></StartTime><FrequencyChanges><FrequencyChange><Frequency dt:dt=""r8"">2793040000</Frequency><Timestamp dt:dt=""r8"">1.05609261747605E+15</Timestamp><Current dt:dt=""r8"">0</Current><DateUtc dt:dt=""string"">2014-06-07T22:35:42Z</DateUtc></FrequencyChange></FrequencyChanges></Clock>\n",60.033,1,-643403195,0,,-999999,7,28046,t,107554,135600,6/7/2014,15:35:42,,2,Session2,SessionsList,0,,-999999,4,777819,t,33112,810931,759978,2,1,2,2,,,971355,,,,,2,1,2,Cued3,MiniBlocks2,,,,,8,1,b,-999999,13,1091944,b,447,1092391,White,Incongruent,b,Red,0,,0,16,1087946,,0,0,,,,,,,8,1,8,,,,Pictures\red.bmp,3000,2000,Pictures\left.bmp,,,,,,,,,,,,,StimulusPr,Pictures\black.bmp,CuedStim3,Left
POP_2,27038,1,"<?xml version=""1.0""?>\n<Clock xmlns:dt=""urn:schemas-microsoft-com:datatypes""><Description dt:dt=""string"">E-Prime Primary Realtime Clock</Description><StartTime><Timestamp dt:dt=""int"">0</Timestamp><DateUtc dt:dt=""string"">2014-06-07T22:35:42Z</DateUtc></StartTime><FrequencyChanges><FrequencyChange><Frequency dt:dt=""r8"">2793040000</Frequency><Timestamp dt:dt=""r8"">1.05609261747605E+15</Timestamp><Current dt:dt=""r8"">0</Current><DateUtc dt:dt=""string"">2014-06-07T22:35:42Z</DateUtc></FrequencyChange></FrequencyChanges></Clock>\n",60.033,1,-643403195,0,,-999999,7,28046,t,107554,135600,6/7/2014,15:35:42,,2,Session2,SessionsList,0,,-999999,4,777819,t,33112,810931,759978,2,1,2,2,,,971355,,,,,2,1,2,Cued3,MiniBlocks2,,,,,9,1,r,-999999,10,1099940,r,434,1100374,White,Congruent,r,Green,0,,0,12,1095942,,0,0,,,,,,,9,1,9,,,,Pictures\green.bmp,3000,2000,Pictures\left.bmp,,,,,,,,,,,,,StimulusPr,Pictures\black.bmp,CuedStim3,Left
POP_2,27038,1,"<?xml version=""1.0""?>\n<Clock xmlns:dt=""urn:schemas-microsoft-com:datatypes""><Description dt:dt=""string"">E-Prime Primary Realtime Clock</Description><StartTime><Timestamp dt:dt=""int"">0</Timestamp><DateUtc dt:dt=""string"">2014-06-07T22:35:42Z</DateUtc></StartTime><FrequencyChanges><FrequencyChange><Frequency dt:dt=""r8"">2793040000</Frequency><Timestamp dt:dt=""r8"">1.05609261747605E+15</Timestamp><Current dt:dt=""r8"">0</Current><DateUtc dt:dt=""string"">2014-06-07T22:35:42Z</DateUtc></FrequencyChange></FrequencyChanges></Clock>\n",60.033,1,-643403195,0,,-999999,7,28046,t,107554,135600,6/7/2014,15:35:42,,2,Session2,SessionsList,0,,-999999,4,777819,t,33112,810931,759978,2,1,2,2,,,971355,,,,,2,1,2,Cued3,MiniBlocks2,,,,,10,1,b,-999999,3,1113934,b,471,1114405,White,Congruent,b,Green,0,,0,8,1103938,,0,0,,,,,,,10,1,10,,,,Pictures\green.bmp,9000,10000,Pictures\black.bmp,,,,,,,,,,,,,StimulusPr,Pictures\right.bmp,CuedStim3,Right
POP_2,27038,1,"<?xml version=""1.0""?>\n<Clock xmlns:dt=""urn:schemas-microsoft-com:datatypes""><Description dt:dt=""string"">E-Prime Primary Realtime Clock</Description><StartTime><Timestamp dt:dt=""int"">0</Timestamp><DateUtc dt:dt=""string"">2014-06-07T22:35:42Z</DateUtc></StartTime><FrequencyChanges><FrequencyChange><Frequency dt:dt=""r8"">2793040000</Frequency><Timestamp dt:dt=""r8"">1.05609261747605E+15</Timestamp><Current dt:dt=""r8"">0</Current><DateUtc dt:dt=""string"">2014-06-07T22:35:42Z</DateUtc></FrequencyChange></FrequencyChanges></Clock>\n",60.033,1,-643403195,0,,-999999,7,28046,t,107554,135600,6/7/2014,15:35:42,,2,Session2,SessionsList,0,,-999999,4,777819,t,33112,810931,759978,2,1,2,3,,,,1124428,,,,3,1,3,Cued4,MiniBlocks2,,,,,1,1,b,-999999,6,1141936,b,507,1142443,White,Congruent,b,Green,0,,0,9,1134939,,0,0,,,,,,,,,,1,1,1,Pictures\green.bmp,6000,2000,Pictures\black.bmp,,,,,,,,,,,,,StimulusPr,Pictures\right.bmp,CuedStim4,Right
POP_2,27038,1,"<?xml version=""1.0""?>\n<Clock xmlns:dt=""urn:schemas-microsoft-com:datatypes""><Description dt:dt=""string"">E-Prime Primary Realtime Clock</Description><StartTime><Timestamp dt:dt=""int"">0</Timestamp><DateUtc dt:dt=""string"">2014-06-07T22:35:42Z</DateUtc></StartTime><FrequencyChanges><FrequencyChange><Frequency dt:dt=""r8"">2793040000</Frequency><Timestamp dt:dt=""r8"">1.05609261747605E+15</Timestamp><Current dt:dt=""r8"">0</Current><DateUtc dt:dt=""string"">2014-06-07T22:35:42Z</DateUtc></FrequencyChange></FrequencyChanges></Clock>\n",60.033,1,-643403195,0,,-999999,7,28046,t,107554,135600,6/7/2014,15:35:42,,2,Session2,SessionsList,0,,-999999,4,777819,t,33112,810931,759978,2,1,2,3,,,,1124428,,,,3,1,3,Cued4,MiniBlocks2,,,,,2,1,r,-999999,15,1155945,r,444,1156389,White,Incongruent,r,Red,0,,0,4,1145934,,0,0,,,,,,,,,,2,1,2,Pictures\red.bmp,9000,2000,Pictures\black.bmp,,,,,,,,,,,,,StimulusPr,Pictures\right.bmp,CuedStim4,Right
POP_2,27038,1,"<?xml version=""1.0""?>\n<Clock xmlns:dt=""urn:schemas-microsoft-com:datatypes""><Description dt:dt=""string"">E-Prime Primary Realtime Clock</Description><StartTime><Timestamp dt:dt=""int"">0</Timestamp><DateUtc dt:dt=""string"">2014-06-07T22:35:42Z</DateUtc></StartTime><FrequencyChanges><FrequencyChange><Frequency dt:dt=""r8"">2793040000</Frequency><Timestamp dt:dt=""r8"">1.05609261747605E+15</Timestamp><Current dt:dt=""r8"">0</Current><DateUtc dt:dt=""string"">2014-06-07T22:35:42Z</DateUtc></FrequencyChange></FrequencyChanges></Clock>\n",60.033,1,-643403195,0,,-999999,7,28046,t,107554,135600,6/7/2014,15:35:42,,2,Session2,SessionsList,0,,-999999,4,777819,t,33112,810931,759978,2,1,2,3,,,,1124428,,,,3,1,3,Cued4,MiniBlocks2,,,,,3,1,b,-999999,11,1163941,b,374,1164315,White,Congruent,b,Green,0,,0,13,1159943,,0,0,,,,,,,,,,3,1,3,Pictures\green.bmp,3000,4000,Pictures\black.bmp,,,,,,,,,,,,,StimulusPr,Pictures\right.bmp,CuedStim4,Right
POP_2,27038,1,"<?xml version=""1.0""?>\n<Clock xmlns:dt=""urn:schemas-microsoft-com:datatypes""><Description dt:dt=""string"">E-Prime Primary Realtime Clock</Description><StartTime><Timestamp dt:dt=""int"">0</Timestamp><DateUtc dt:dt=""string"">2014-06-07T22:35:42Z</DateUtc></StartTime><FrequencyChanges><FrequencyChange><Frequency dt:dt=""r8"">2793040000</Frequency><Timestamp dt:dt=""r8"">1.05609261747605E+15</Timestamp><Current dt:dt=""r8"">0</Current><DateUtc dt:dt=""string"">2014-06-07T22:35:42Z</DateUtc></FrequencyChange></FrequencyChanges></Clock>\n",60.033,1,-643403195,0,,-999999,7,28046,t,107554,135600,6/7/2014,15:35:42,,2,Session2,SessionsList,0,,-999999,4,777819,t,33112,810931,759978,2,1,2,3,,,,1124428,,,,3,1,3,Cued4,MiniBlocks2,,,,,4,1,r,-999999,6,1173936,r,496,1174432,White,Congruent,r,Green,0,,0,8,1169938,,0,0,,,,,,,,,,4,1,4,Pictures\green.bmp,3000,4000,Pictures\left.bmp,,,,,,,,,,,,,StimulusPr,Pictures\black.bmp,CuedStim4,Left
POP_2,27038,1,"<?xml version=""1.0""?>\n<Clock xmlns:dt=""urn:schemas-microsoft-com:datatypes""><Description dt:dt=""string"">E-Prime Primary Realtime Clock</Description><StartTime><Timestamp dt:dt=""int"">0</Timestamp><DateUtc dt:dt=""string"">2014-06-07T22:35:42Z</DateUtc></StartTime><FrequencyChanges><FrequencyChange><Frequency dt:dt=""r8"">2793040000</Frequency><Timestamp dt:dt=""r8"">1.05609261747605E+15</Timestamp><Current dt:dt=""r8"">0</Current><DateUtc dt:dt=""string"">2014-06-07T22:35:42Z</DateUtc></FrequencyChange></FrequencyChanges></Clock>\n",60.033,1,-643403195,0,,-999999,7,28046,t,107554,135600,6/7/2014,15:35:42,,2,Session2,SessionsList,0,,-999999,4,777819,t,33112,810931,759978,2,1,2,3,,,,1124428,,,,3,1,3,Cued4,MiniBlocks2,,,,,5,1,b,-999999,19,1184948,b,497,1185445,White,Incongruent,b,Red,0,,0,3,1179933,,0,0,,,,,,,,,,5,1,5,Pictures\red.bmp,4000,16000,Pictures\left.bmp,,,,,,,,,,,,,StimulusPr,Pictures\black.bmp,CuedStim4,Left
POP_2,27038,1,"<?xml version=""1.0""?>\n<Clock xmlns:dt=""urn:schemas-microsoft-com:datatypes""><Description dt:dt=""string"">E-Prime Primary Realtime Clock</Description><StartTime><Timestamp dt:dt=""int"">0</Timestamp><DateUtc dt:dt=""string"">2014-06-07T22:35:42Z</DateUtc></StartTime><FrequencyChanges><FrequencyChange><Frequency dt:dt=""r8"">2793040000</Frequency><Timestamp dt:dt=""r8"">1.05609261747605E+15</Timestamp><Current dt:dt=""r8"">0</Current><DateUtc dt:dt=""string"">2014-06-07T22:35:42Z</DateUtc></FrequencyChange></FrequencyChanges></Clock>\n",60.033,1,-643403195,0,,-999999,7,28046,t,107554,135600,6/7/2014,15:35:42,,2,Session2,SessionsList,0,,-999999,4,777819,t,33112,810931,759978,2,1,2,3,,,,1124428,,,,3,1,3,Cued4,MiniBlocks2,,,,,6,1,b,-999999,6,1206936,b,374,1207310,White,Congruent,b,Green,0,,0,8,1202938,,0,0,,,,,,,,,,6,1,6,Pictures\green.bmp,3000,2000,Pictures\black.bmp,,,,,,,,,,,,,StimulusPr,Pictures\right.bmp,CuedStim4,Right
POP_2,27038,1,"<?xml version=""1.0""?>\n<Clock xmlns:dt=""urn:schemas-microsoft-com:datatypes""><Description dt:dt=""string"">E-Prime Primary Realtime Clock</Description><StartTime><Timestamp dt:dt=""int"">0</Timestamp><DateUtc dt:dt=""string"">2014-06-07T22:35:42Z</DateUtc></StartTime><FrequencyChanges><FrequencyChange><Frequency dt:dt=""r8"">2793040000</Frequency><Timestamp dt:dt=""r8"">1.05609261747605E+15</Timestamp><Current dt:dt=""r8"">0</Current><DateUtc dt:dt=""string"">2014-06-07T22:35:42Z</DateUtc></FrequencyChange></FrequencyChanges></Clock>\n",60.033,1,-643403195,0,,-999999,7,28046,t,107554,135600,6/7/2014,15:35:42,,2,Session2,SessionsList,0,,-999999,4,777819,t,33112,810931,759978,2,1,2,3,,,,1124428,,,,3,1,3,Cued4,MiniBlocks2,,,,,7,1,b,-999999,15,1220946,b,401,1221347,White,Congruent,b,Green,0,,0,4,1210934,,0,0,,,,,,,,,,7,1,7,Pictures\green.bmp,9000,10000,Pictures\black.bmp,,,,,,,,,,,,,StimulusPr,Pictures\right.bmp,CuedStim4,Right
POP_2,27038,1,"<?xml version=""1.0""?>\n<Clock xmlns:dt=""urn:schemas-microsoft-com:datatypes""><Description dt:dt=""string"">E-Prime Primary Realtime Clock</Description><StartTime><Timestamp dt:dt=""int"">0</Timestamp><DateUtc dt:dt=""string"">2014-06-07T22:35:42Z</DateUtc></StartTime><FrequencyChanges><FrequencyChange><Frequency dt:dt=""r8"">2793040000</Frequency><Timestamp dt:dt=""r8"">1.05609261747605E+15</Timestamp><Current dt:dt=""r8"">0</Current><DateUtc dt:dt=""string"">2014-06-07T22:35:42Z</DateUtc></FrequencyChange></FrequencyChanges></Clock>\n",60.033,1,-643403195,0,,-999999,7,28046,t,107554,135600,6/7/2014,15:35:42,,2,Session2,SessionsList,0,,-999999,4,777819,t,33112,810931,759978,2,1,2,3,,,,1124428,,,,3,1,3,Cued4,MiniBlocks2,,,,,8,1,b,-999999,7,1239937,b,356,1240293,White,Incongruent,b,Red,0,,0,10,1232940,,0,0,,,,,,,,,,8,1,8,Pictures\red.bmp,6000,10000,Pictures\left.bmp,,,,,,,,,,,,,StimulusPr,Pictures\black.bmp,CuedStim4,Left
POP_2,27038,1,"<?xml version=""1.0""?>\n<Clock xmlns:dt=""urn:schemas-microsoft-com:datatypes""><Description dt:dt=""string"">E-Prime Primary Realtime Clock</Description><StartTime><Timestamp dt:dt=""int"">0</Timestamp><DateUtc dt:dt=""string"">2014-06-07T22:35:42Z</DateUtc></StartTime><FrequencyChanges><FrequencyChange><Frequency dt:dt=""r8"">2793040000</Frequency><Timestamp dt:dt=""r8"">1.05609261747605E+15</Timestamp><Current dt:dt=""r8"">0</Current><DateUtc dt:dt=""string"">2014-06-07T22:35:42Z</DateUtc></FrequencyChange></FrequencyChanges></Clock>\n",60.033,1,-643403195,0,,-999999,7,28046,t,107554,135600,6/7/2014,15:35:42,,2,Session2,SessionsList,0,,-999999,4,777819,t,33112,810931,759978,2,1,2,3,,,,1124428,,,,3,1,3,Cued4,MiniBlocks2,,,,,9,1,r,-999999,14,1258944,r,499,1259443,White,Congruent,r,Green,0,,0,17,1251947,,0,0,,,,,,,,,,9,1,9,Pictures\green.bmp,6000,16000,Pictures\left.bmp,,,,,,,,,,,,,StimulusPr,Pictures\black.bmp,CuedStim4,Left
POP_2,27038,1,"<?xml version=""1.0""?>\n<Clock xmlns:dt=""urn:schemas-microsoft-com:datatypes""><Description dt:dt=""string"">E-Prime Primary Realtime Clock</Description><StartTime><Timestamp dt:dt=""int"">0</Timestamp><DateUtc dt:dt=""string"">2014-06-07T22:35:42Z</DateUtc></StartTime><FrequencyChanges><FrequencyChange><Frequency dt:dt=""r8"">2793040000</Frequency><Timestamp dt:dt=""r8"">1.05609261747605E+15</Timestamp><Current dt:dt=""r8"">0</Current><DateUtc dt:dt=""string"">2014-06-07T22:35:42Z</DateUtc></FrequencyChange></FrequencyChanges></Clock>\n",60.033,1,-643403195,0,,-999999,7,28046,t,107554,135600,6/7/2014,15:35:42,,2,Session2,SessionsList,0,,-999999,4,777819,t,33112,810931,759978,2,1,2,3,,,,1124428,,,,3,1,3,Cued4,MiniBlocks2,,,,,10,1,r,-999999,2,1281932,r,409,1282341,White,Congruent,r,Green,0,,0,6,1276935,,0,0,,,,,,,,,,10,1,10,Pictures\green.bmp,4000,2000,Pictures\left.bmp,,,,,,,,,,,,,StimulusPr,Pictures\black.bmp,CuedStim4,Left
POP_2,27038,1,"<?xml version=""1.0""?>\n<Clock xmlns:dt=""urn:schemas-microsoft-com:datatypes""><Description dt:dt=""string"">E-Prime Primary Realtime Clock</Description><StartTime><Timestamp dt:dt=""int"">0</Timestamp><DateUtc dt:dt=""string"">2014-06-07T22:35:42Z</DateUtc></StartTime><FrequencyChanges><FrequencyChange><Frequency dt:dt=""r8"">2793040000</Frequency><Timestamp dt:dt=""r8"">1.05609261747605E+15</Timestamp><Current dt:dt=""r8"">0</Current><DateUtc dt:dt=""string"">2014-06-07T22:35:42Z</DateUtc></FrequencyChange></FrequencyChanges></Clock>\n",60.033,1,-643403195,0,,-999999,7,28046,t,107554,135600,6/7/2014,15:35:42,,2,Session2,SessionsList,0,,-999999,4,777819,t,33112,810931,759978,2,1,2,4,,,,,,,,4,1,4,NonCued4,MiniBlocks2,,,,1284364,1,1,r,-999999,11,1297941,r,851,1298792,Green,Congruent,r,White,0,,0,13,1293943,,0,0,,,,,,,,,,,,,Pictures\white.bmp,3000,2000,Pictures\GreenLeft.bmp,,,,,,,,,,1,1,1,StimulusPr,Pictures\black.bmp,NonCuedStim4,Left
POP_2,27038,1,"<?xml version=""1.0""?>\n<Clock xmlns:dt=""urn:schemas-microsoft-com:datatypes""><Description dt:dt=""string"">E-Prime Primary Realtime Clock</Description><StartTime><Timestamp dt:dt=""int"">0</Timestamp><DateUtc dt:dt=""string"">2014-06-07T22:35:42Z</DateUtc></StartTime><FrequencyChanges><FrequencyChange><Frequency dt:dt=""r8"">2793040000</Frequency><Timestamp dt:dt=""r8"">1.05609261747605E+15</Timestamp><Current dt:dt=""r8"">0</Current><DateUtc dt:dt=""string"">2014-06-07T22:35:42Z</DateUtc></FrequencyChange></FrequencyChanges></Clock>\n",60.033,1,-643403195,0,,-999999,7,28046,t,107554,135600,6/7/2014,15:35:42,,2,Session2,SessionsList,0,,-999999,4,777819,t,33112,810931,759978,2,1,2,4,,,,,,,,4,1,4,NonCued4,MiniBlocks2,,,,1284364,2,1,r,-999999,6,1306936,r,392,1307328,Green,Congruent,r,White,0,,0,9,1301939,,0,0,,,,,,,,,,,,,Pictures\white.bmp,4000,2000,Pictures\GreenLeft.bmp,,,,,,,,,,2,1,2,StimulusPr,Pictures\black.bmp,NonCuedStim4,Left
POP_2,27038,1,"<?xml version=""1.0""?>\n<Clock xmlns:dt=""urn:schemas-microsoft-com:datatypes""><Description dt:dt=""string"">E-Prime Primary Realtime Clock</Description><StartTime><Timestamp dt:dt=""int"">0</Timestamp><DateUtc dt:dt=""string"">2014-06-07T22:35:42Z</DateUtc></StartTime><FrequencyChanges><FrequencyChange><Frequency dt:dt=""r8"">2793040000</Frequency><Timestamp dt:dt=""r8"">1.05609261747605E+15</Timestamp><Current dt:dt=""r8"">0</Current><DateUtc dt:dt=""string"">2014-06-07T22:35:42Z</DateUtc></FrequencyChange></FrequencyChanges></Clock>\n",60.033,1,-643403195,0,,-999999,7,28046,t,107554,135600,6/7/2014,15:35:42,,2,Session2,SessionsList,0,,-999999,4,777819,t,33112,810931,759978,2,1,2,4,,,,,,,,4,1,4,NonCued4,MiniBlocks2,,,,1284364,3,1,r,-999999,2,1315932,r,528,1316460,Red,Incongruent,r,White,0,,0,4,1310934,,0,0,,,,,,,,,,,,,Pictures\white.bmp,4000,2000,Pictures\black.bmp,,,,,,,,,,3,1,3,StimulusPr,Pictures\RedRight.bmp,NonCuedStim4,Right
POP_2,27038,1,"<?xml version=""1.0""?>\n<Clock xmlns:dt=""urn:schemas-microsoft-com:datatypes""><Description dt:dt=""string"">E-Prime Primary Realtime Clock</Description><StartTime><Timestamp dt:dt=""int"">0</Timestamp><DateUtc dt:dt=""string"">2014-06-07T22:35:42Z</DateUtc></StartTime><FrequencyChanges><FrequencyChange><Frequency dt:dt=""r8"">2793040000</Frequency><Timestamp dt:dt=""r8"">1.05609261747605E+15</Timestamp><Current dt:dt=""r8"">0</Current><DateUtc dt:dt=""string"">2014-06-07T22:35:42Z</DateUtc></FrequencyChange></FrequencyChanges></Clock>\n",60.033,1,-643403195,0,,-999999,7,28046,t,107554,135600,6/7/2014,15:35:42,,2,Session2,SessionsList,0,,-999999,4,777819,t,33112,810931,759978,2,1,2,4,,,,,,,,4,1,4,NonCued4,MiniBlocks2,,,,1284364,4,1,b,-999999,14,1323944,b,406,1324350,Green,Congruent,b,White,0,,0,16,1319946,,0,0,,,,,,,,,,,,,Pictures\white.bmp,3000,16000,Pictures\black.bmp,,,,,,,,,,4,1,4,StimulusPr,Pictures\GreenRight.bmp,NonCuedStim4,Right
POP_2,27038,1,"<?xml version=""1.0""?>\n<Clock xmlns:dt=""urn:schemas-microsoft-com:datatypes""><Description dt:dt=""string"">E-Prime Primary Realtime Clock</Description><StartTime><Timestamp dt:dt=""int"">0</Timestamp><DateUtc dt:dt=""string"">2014-06-07T22:35:42Z</DateUtc></StartTime><FrequencyChanges><FrequencyChange><Frequency dt:dt=""r8"">2793040000</Frequency><Timestamp dt:dt=""r8"">1.05609261747605E+15</Timestamp><Current dt:dt=""r8"">0</Current><DateUtc dt:dt=""string"">2014-06-07T22:35:42Z</DateUtc></FrequencyChange></FrequencyChanges></Clock>\n",60.033,1,-643403195,0,,-999999,7,28046,t,107554,135600,6/7/2014,15:35:42,,2,Session2,SessionsList,0,,-999999,4,777819,t,33112,810931,759978,2,1,2,4,,,,,,,,4,1,4,NonCued4,MiniBlocks2,,,,1284364,5,1,r,-999999,18,1351947,r,416,1352363,Green,Congruent,r,White,0,,0,5,1341935,,0,0,,,,,,,,,,,,,Pictures\white.bmp,9000,10000,Pictures\GreenLeft.bmp,,,,,,,,,,5,1,5,StimulusPr,Pictures\black.bmp,NonCuedStim4,Left
POP_2,27038,1,"<?xml version=""1.0""?>\n<Clock xmlns:dt=""urn:schemas-microsoft-com:datatypes""><Description dt:dt=""string"">E-Prime Primary Realtime Clock</Description><StartTime><Timestamp dt:dt=""int"">0</Timestamp><DateUtc dt:dt=""string"">2014-06-07T22:35:42Z</DateUtc></StartTime><FrequencyChanges><FrequencyChange><Frequency dt:dt=""r8"">2793040000</Frequency><Timestamp dt:dt=""r8"">1.05609261747605E+15</Timestamp><Current dt:dt=""r8"">0</Current><DateUtc dt:dt=""string"">2014-06-07T22:35:42Z</DateUtc></FrequencyChange></FrequencyChanges></Clock>\n",60.033,1,-643403195,0,,-999999,7,28046,t,107554,135600,6/7/2014,15:35:42,,2,Session2,SessionsList,0,,-999999,4,777819,t,33112,810931,759978,2,1,2,4,,,,,,,,4,1,4,NonCued4,MiniBlocks2,,,,1284364,6,1,b,-999999,10,1367939,b,556,1368495,Green,Congruent,b,White,0,,0,12,1363941,,0,0,,,,,,,,,,,,,Pictures\white.bmp,3000,16000,Pictures\black.bmp,,,,,,,,,,6,1,6,StimulusPr,Pictures\GreenRight.bmp,NonCuedStim4,Right
POP_2,27038,1,"<?xml version=""1.0""?>\n<Clock xmlns:dt=""urn:schemas-microsoft-com:datatypes""><Description dt:dt=""string"">E-Prime Primary Realtime Clock</Description><StartTime><Timestamp dt:dt=""int"">0</Timestamp><DateUtc dt:dt=""string"">2014-06-07T22:35:42Z</DateUtc></StartTime><FrequencyChanges><FrequencyChange><Frequency dt:dt=""r8"">2793040000</Frequency><Timestamp dt:dt=""r8"">1.05609261747605E+15</Timestamp><Current dt:dt=""r8"">0</Current><DateUtc dt:dt=""string"">2014-06-07T22:35:42Z</DateUtc></FrequencyChange></FrequencyChanges></Clock>\n",60.033,1,-643403195,0,,-999999,7,28046,t,107554,135600,6/7/2014,15:35:42,,2,Session2,SessionsList,0,,-999999,4,777819,t,33112,810931,759978,2,1,2,4,,,,,,,,4,1,4,NonCued4,MiniBlocks2,,,,1284364,7,1,b,-999999,14,1389944,b,544,1390488,Red,Incongruent,b,White,0,,0,16,1385946,,0,0,,,,,,,,,,,,,Pictures\white.bmp,3000,16000,Pictures\RedLeft.bmp,,,,,,,,,,7,1,7,StimulusPr,Pictures\black.bmp,NonCuedStim4,Left
POP_2,27038,1,"<?xml version=""1.0""?>\n<Clock xmlns:dt=""urn:schemas-microsoft-com:datatypes""><Description dt:dt=""string"">E-Prime Primary Realtime Clock</Description><StartTime><Timestamp dt:dt=""int"">0</Timestamp><DateUtc dt:dt=""string"">2014-06-07T22:35:42Z</DateUtc></StartTime><FrequencyChanges><FrequencyChange><Frequency dt:dt=""r8"">2793040000</Frequency><Timestamp dt:dt=""r8"">1.05609261747605E+15</Timestamp><Current dt:dt=""r8"">0</Current><DateUtc dt:dt=""string"">2014-06-07T22:35:42Z</DateUtc></FrequencyChange></FrequencyChanges></Clock>\n",60.033,1,-643403195,0,,-999999,7,28046,t,107554,135600,6/7/2014,15:35:42,,2,Session2,SessionsList,0,,-999999,4,777819,t,33112,810931,759978,2,1,2,4,,,,,,,,4,1,4,NonCued4,MiniBlocks2,,,,1284364,8,1,r,-999999,4,1411933,r,511,1412444,Green,Congruent,r,White,0,,0,5,1407935,,0,0,,,,,,,,,,,,,Pictures\white.bmp,3000,2000,Pictures\GreenLeft.bmp,,,,,,,,,,8,1,8,StimulusPr,Pictures\black.bmp,NonCuedStim4,Left
POP_2,27038,1,"<?xml version=""1.0""?>\n<Clock xmlns:dt=""urn:schemas-microsoft-com:datatypes""><Description dt:dt=""string"">E-Prime Primary Realtime Clock</Description><StartTime><Timestamp dt:dt=""int"">0</Timestamp><DateUtc dt:dt=""string"">2014-06-07T22:35:42Z</DateUtc></StartTime><FrequencyChanges><FrequencyChange><Frequency dt:dt=""r8"">2793040000</Frequency><Timestamp dt:dt=""r8"">1.05609261747605E+15</Timestamp><Current dt:dt=""r8"">0</Current><DateUtc dt:dt=""string"">2014-06-07T22:35:42Z</DateUtc></FrequencyChange></FrequencyChanges></Clock>\n",60.033,1,-643403195,0,,-999999,7,28046,t,107554,135600,6/7/2014,15:35:42,,2,Session2,SessionsList,0,,-999999,4,777819,t,33112,810931,759978,2,1,2,4,,,,,,,,4,1,4,NonCued4,MiniBlocks2,,,,1284364,9,1,b,-999999,15,1422945,b,442,1423387,Green,Congruent,b,White,0,,0,2,1415931,,0,0,,,,,,,,,,,,,Pictures\white.bmp,6000,2000,Pictures\black.bmp,,,,,,,,,,9,1,9,StimulusPr,Pictures\GreenRight.bmp,NonCuedStim4,Right
POP_2,27038,1,"<?xml version=""1.0""?>\n<Clock xmlns:dt=""urn:schemas-microsoft-com:datatypes""><Description dt:dt=""string"">E-Prime Primary Realtime Clock</Description><StartTime><Timestamp dt:dt=""int"">0</Timestamp><DateUtc dt:dt=""string"">2014-06-07T22:35:42Z</DateUtc></StartTime><FrequencyChanges><FrequencyChange><Frequency dt:dt=""r8"">2793040000</Frequency><Timestamp dt:dt=""r8"">1.05609261747605E+15</Timestamp><Current dt:dt=""r8"">0</Current><DateUtc dt:dt=""string"">2014-06-07T22:35:42Z</DateUtc></FrequencyChange></FrequencyChanges></Clock>\n",60.033,1,-643403195,0,,-999999,7,28046,t,107554,135600,6/7/2014,15:35:42,,2,Session2,SessionsList,0,,-999999,4,777819,t,33112,810931,759978,2,1,2,4,,,,,,,,4,1,4,NonCued4,MiniBlocks2,,,,1284364,10,1,b,-999999,11,1431940,b,405,1432345,Green,Congruent,b,White,0,,0,14,1426943,,0,0,,,,,,,,,,,,,Pictures\white.bmp,4000,4000,Pictures\black.bmp,,,,,,,,,,10,1,10,StimulusPr,Pictures\GreenRight.bmp,NonCuedStim4,Right
