ExperimentName,Subject,Session,Clock.Information,Display.RefreshRate,Group,RandomSeed,Session1Onset.ACC,Session1Onset.CRESP,Session1Onset.DurationError,Session1Onset.OnsetDelay,Session1Onset.OnsetTime,Session1Onset.RESP,Session1Onset.RT,Session1Onset.RTTime,SessionDate,SessionTime,SessionTimeUtc,Block,Procedure[Block],Running[Block],Session2Onset.ACC,Session2Onset.CRESP,Session2Onset.DurationError,Session2Onset.OnsetDelay,Session2Onset.OnsetTime,Session2Onset.RESP,Session2Onset.RT,Session2Onset.RTTime,SessionBreak.OnsetTime,SessionsList,SessionsList.Cycle,SessionsList.Sample,Trial,CuedPrompt1.OnsetTime,CuedPrompt2.OnsetTime,CuedPrompt3.OnsetTime,CuedPrompt4.OnsetTime,MiniBlocks1,MiniBlocks1.Cycle,MiniBlocks1.Sample,MiniBlocks2,MiniBlocks2.Cycle,MiniBlocks2.Sample,Procedure[Trial],Running[Trial],UncuedPrompt1.OnsetTime,UncuedPrompt2.OnsetTime,UncuedPrompt3.OnsetTime,UncuedPrompt4.OnsetTime,SubTrial,Arrow1.ACC,Arrow1.CRESP,Arrow1.DurationError,Arrow1.OnsetDelay,Arrow1.OnsetTime,Arrow1.RESP,Arrow1.RT,Arrow1.RTTime,ArrowColor,Congruence,CorrectResp,Cue,Cue.ACC,Cue.CRESP,Cue.DurationError,Cue.OnsetDelay,Cue.OnsetTime,Cue.RESP,Cue.RT,Cue.RTTime,CuedStim1,CuedStim1.Cycle,CuedStim1.Sample,CuedStim2,CuedStim2.Cycle,CuedStim2.Sample,CuedStim3,CuedStim3.Cycle,CuedStim3.Sample,CuedStim4,CuedStim4.Cycle,CuedStim4.Sample,CueImage,JitterCue,JitterTrial,LeftImage,NonCuedStim1,NonCuedStim1.Cycle,NonCuedStim1.Sample,NonCuedStim2,NonCuedStim2.Cycle,NonCuedStim2.Sample,NonCuedStim3,NonCuedStim3.Cycle,NonCuedStim3.Sample,NonCuedStim4,NonCuedStim4.Cycle,NonCuedStim4.Sample,Procedure[SubTrial],RightImage,Running[SubTrial],Stimulus
POP_2,27014,1,"<?xml version=""1.0""?>\n<Clock xmlns:dt=""urn:schemas-microsoft-com:datatypes""><Description dt:dt=""string"">E-Prime Primary Realtime Clock</Description><StartTime><Timestamp dt:dt=""int"">0</Timestamp><DateUtc dt:dt=""string"">2014-05-08T22:37:39Z</DateUtc></StartTime><FrequencyChanges><FrequencyChange><Frequency dt:dt=""r8"">2793030000</Frequency><Timestamp dt:dt=""r8"">284143359060337</Timestamp><Current dt:dt=""r8"">0</Current><DateUtc dt:dt=""string"">2014-05-08T22:37:39Z</DateUtc></FrequencyChange></FrequencyChanges></Clock>\n",60.035,1,1419923964,0,,-999999,15,35494,t,66455,101949,5/8/2014,15:37:39,,1,Session1,SessionsList,,,,,,,,,,1,1,1,1,101961,,,,1,1,1,,,,Cued1,MiniBlocks1,,,,,1,1,r,-999999,157,116104,r,528,116632,White,Congruent,r,Green,0,,0,86,111040,,0,0,1,1,1,,,,,,,,,,Pictures\green.bmp,4000,4000,Pictures\left.bmp,,,,,,,,,,,,,StimulusPr,Pictures\black.bmp,CuedStim1,Left
POP_2,27014,1,"<?xml version=""1.0""?>\n<Clock xmlns:dt=""urn:schemas-microsoft-com:datatypes""><Description dt:dt=""string"">E-Prime Primary Realtime Clock</Description><StartTime><Timestamp dt:dt=""int"">0</Timestamp><DateUtc dt:dt=""string"">2014-05-08T22:37:39Z</DateUtc></StartTime><FrequencyChanges><FrequencyChange><Frequency dt:dt=""r8"">2793030000</Frequency><Timestamp dt:dt=""r8"">284143359060337</Timestamp><Current dt:dt=""r8"">0</Current><DateUtc dt:dt=""string"">2014-05-08T22:37:39Z</DateUtc></FrequencyChange></FrequencyChanges></Clock>\n",60.035,1,1419923964,0,,-999999,15,35494,t,66455,101949,5/8/2014,15:37:39,,1,Session1,SessionsList,,,,,,,,,,1,1,1,1,101961,,,,1,1,1,,,,Cued1,MiniBlocks1,,,,,2,1,b,-999999,61,129014,b,390,129404,White,Congruent,b,Green,0,,0,5,121951,,0,0,2,1,2,,,,,,,,,,Pictures\green.bmp,6000,2000,Pictures\black.bmp,,,,,,,,,,,,,StimulusPr,Pictures\right.bmp,CuedStim1,Right
POP_2,27014,1,"<?xml version=""1.0""?>\n<Clock xmlns:dt=""urn:schemas-microsoft-com:datatypes""><Description dt:dt=""string"">E-Prime Primary Realtime Clock</Description><StartTime><Timestamp dt:dt=""int"">0</Timestamp><DateUtc dt:dt=""string"">2014-05-08T22:37:39Z</DateUtc></StartTime><FrequencyChanges><FrequencyChange><Frequency dt:dt=""r8"">2793030000</Frequency><Timestamp dt:dt=""r8"">284143359060337</Timestamp><Current dt:dt=""r8"">0</Current><DateUtc dt:dt=""string"">2014-05-08T22:37:39Z</DateUtc></FrequencyChange></FrequencyChanges></Clock>\n",60.035,1,1419923964,0,,-999999,15,35494,t,66455,101949,5/8/2014,15:37:39,,1,Session1,SessionsList,,,,,,,,,,1,1,1,1,101961,,,,1,1,1,,,,Cued1,MiniBlocks1,,,,,3,1,b,-999999,7,136960,b,430,137390,White,Congruent,b,Green,0,,0,8,132962,,0,0,3,1,3,,,,,,,,,,Pictures\green.bmp,3000,2000,Pictures\black.bmp,,,,,,,,,,,,,StimulusPr,Pictures\right.bmp,CuedStim1,Right
POP_2,27014,1,"<?xml version=""1.0""?>\n<Clock xmlns:dt=""urn:schemas-microsoft-com:datatypes""><Description dt:dt=""string"">E-Prime Primary Realtime Clock</Description><StartTime><Timestamp dt:dt=""int"">0</Timestamp><DateUtc dt:dt=""string"">2014-05-08T22:37:39Z</DateUtc></StartTime><FrequencyChanges><FrequencyChange><Frequency dt:dt=""r8"">2793030000</Frequency><Timestamp dt:dt=""r8"">284143359060337</Timestamp><Current dt:dt=""r8"">0</Current><DateUtc dt:dt=""string"">2014-05-08T22:37:39Z</DateUtc></FrequencyChange></FrequencyChanges></Clock>\n",60.035,1,1419923964,0,,-999999,15,35494,t,66455,101949,5/8/2014,15:37:39,,1,Session1,SessionsList,,,,,,,,,,1,1,1,1,101961,,,,1,1,1,,,,Cued1,MiniBlocks1,,,,,4,1,b,-999999,2,144956,b,500,145456,White,Incongruent,b,Red,0,,0,54,141008,,0,0,4,1,4,,,,,,,,,,Pictures\red.bmp,3000,16000,Pictures\left.bmp,,,,,,,,,,,,,StimulusPr,Pictures\black.bmp,CuedStim1,Left
POP_2,27014,1,"<?xml version=""1.0""?>\n<Clock xmlns:dt=""urn:schemas-microsoft-com:datatypes""><Description dt:dt=""string"">E-Prime Primary Realtime Clock</Description><StartTime><Timestamp dt:dt=""int"">0</Timestamp><DateUtc dt:dt=""string"">2014-05-08T22:37:39Z</DateUtc></StartTime><FrequencyChanges><FrequencyChange><Frequency dt:dt=""r8"">2793030000</Frequency><Timestamp dt:dt=""r8"">284143359060337</Timestamp><Current dt:dt=""r8"">0</Current><DateUtc dt:dt=""string"">2014-05-08T22:37:39Z</DateUtc></FrequencyChange></FrequencyChanges></Clock>\n",60.035,1,1419923964,0,,-999999,15,35494,t,66455,101949,5/8/2014,15:37:39,,1,Session1,SessionsList,,,,,,,,,,1,1,1,1,101961,,,,1,1,1,,,,Cued1,MiniBlocks1,,,,,5,1,r,-999999,8,166945,r,591,167536,White,Congruent,r,Green,0,,0,10,162964,,0,0,5,1,5,,,,,,,,,,Pictures\green.bmp,3000,16000,Pictures\left.bmp,,,,,,,,,,,,,StimulusPr,Pictures\black.bmp,CuedStim1,Left
POP_2,27014,1,"<?xml version=""1.0""?>\n<Clock xmlns:dt=""urn:schemas-microsoft-com:datatypes""><Description dt:dt=""string"">E-Prime Primary Realtime Clock</Description><StartTime><Timestamp dt:dt=""int"">0</Timestamp><DateUtc dt:dt=""string"">2014-05-08T22:37:39Z</DateUtc></StartTime><FrequencyChanges><FrequencyChange><Frequency dt:dt=""r8"">2793030000</Frequency><Timestamp dt:dt=""r8"">284143359060337</Timestamp><Current dt:dt=""r8"">0</Current><DateUtc dt:dt=""string"">2014-05-08T22:37:39Z</DateUtc></FrequencyChange></FrequencyChanges></Clock>\n",60.035,1,1419923964,0,,-999999,15,35494,t,66455,101949,5/8/2014,15:37:39,,1,Session1,SessionsList,,,,,,,,,,1,1,1,1,101961,,,,1,1,1,,,,Cued1,MiniBlocks1,,,,,6,1,r,-999999,18,194965,r,278,195243,White,Congruent,r,Green,0,,0,14,184953,,0,0,6,1,6,,,,,,,,,,Pictures\green.bmp,9000,10000,Pictures\left.bmp,,,,,,,,,,,,,StimulusPr,Pictures\black.bmp,CuedStim1,Left
POP_2,27014,1,"<?xml version=""1.0""?>\n<Clock xmlns:dt=""urn:schemas-microsoft-com:datatypes""><Description dt:dt=""string"">E-Prime Primary Realtime Clock</Description><StartTime><Timestamp dt:dt=""int"">0</Timestamp><DateUtc dt:dt=""string"">2014-05-08T22:37:39Z</DateUtc></StartTime><FrequencyChanges><FrequencyChange><Frequency dt:dt=""r8"">2793030000</Frequency><Timestamp dt:dt=""r8"">284143359060337</Timestamp><Current dt:dt=""r8"">0</Current><DateUtc dt:dt=""string"">2014-05-08T22:37:39Z</DateUtc></FrequencyChange></FrequencyChanges></Clock>\n",60.035,1,1419923964,0,,-999999,15,35494,t,66455,101949,5/8/2014,15:37:39,,1,Session1,SessionsList,,,,,,,,,,1,1,1,1,101961,,,,1,1,1,,,,Cued1,MiniBlocks1,,,,,7,1,b,-999999,4,210957,b,347,211304,White,Congruent,b,Green,0,,0,6,206959,,0,0,7,1,7,,,,,,,,,,Pictures\green.bmp,3000,16000,Pictures\black.bmp,,,,,,,,,,,,,StimulusPr,Pictures\right.bmp,CuedStim1,Right
POP_2,27014,1,"<?xml version=""1.0""?>\n<Clock xmlns:dt=""urn:schemas-microsoft-com:datatypes""><Description dt:dt=""string"">E-Prime Primary Realtime Clock</Description><StartTime><Timestamp dt:dt=""int"">0</Timestamp><DateUtc dt:dt=""string"">2014-05-08T22:37:39Z</DateUtc></StartTime><FrequencyChanges><FrequencyChange><Frequency dt:dt=""r8"">2793030000</Frequency><Timestamp dt:dt=""r8"">284143359060337</Timestamp><Current dt:dt=""r8"">0</Current><DateUtc dt:dt=""string"">2014-05-08T22:37:39Z</DateUtc></FrequencyChange></FrequencyChanges></Clock>\n",60.035,1,1419923964,0,,-999999,15,35494,t,66455,101949,5/8/2014,15:37:39,,1,Session1,SessionsList,,,,,,,,,,1,1,1,1,101961,,,,1,1,1,,,,Cued1,MiniBlocks1,,,,,8,1,r,-999999,9,233962,r,569,234531,White,Incongruent,r,Red,0,,0,11,228964,,0,0,8,1,8,,,,,,,,,,Pictures\red.bmp,4000,2000,Pictures\black.bmp,,,,,,,,,,,,,StimulusPr,Pictures\right.bmp,CuedStim1,Right
POP_2,27014,1,"<?xml version=""1.0""?>\n<Clock xmlns:dt=""urn:schemas-microsoft-com:datatypes""><Description dt:dt=""string"">E-Prime Primary Realtime Clock</Description><StartTime><Timestamp dt:dt=""int"">0</Timestamp><DateUtc dt:dt=""string"">2014-05-08T22:37:39Z</DateUtc></StartTime><FrequencyChanges><FrequencyChange><Frequency dt:dt=""r8"">2793030000</Frequency><Timestamp dt:dt=""r8"">284143359060337</Timestamp><Current dt:dt=""r8"">0</Current><DateUtc dt:dt=""string"">2014-05-08T22:37:39Z</DateUtc></FrequencyChange></FrequencyChanges></Clock>\n",60.035,1,1419923964,0,,-999999,15,35494,t,66455,101949,5/8/2014,15:37:39,,1,Session1,SessionsList,,,,,,,,,,1,1,1,1,101961,,,,1,1,1,,,,Cued1,MiniBlocks1,,,,,9,1,b,-999999,4,242957,b,292,243249,White,Congruent,b,Green,0,,0,7,237960,,0,0,9,1,9,,,,,,,,,,Pictures\green.bmp,4000,2000,Pictures\black.bmp,,,,,,,,,,,,,StimulusPr,Pictures\right.bmp,CuedStim1,Right
POP_2,27014,1,"<?xml version=""1.0""?>\n<Clock xmlns:dt=""urn:schemas-microsoft-com:datatypes""><Description dt:dt=""string"">E-Prime Primary Realtime Clock</Description><StartTime><Timestamp dt:dt=""int"">0</Timestamp><DateUtc dt:dt=""string"">2014-05-08T22:37:39Z</DateUtc></StartTime><FrequencyChanges><FrequencyChange><Frequency dt:dt=""r8"">2793030000</Frequency><Timestamp dt:dt=""r8"">284143359060337</Timestamp><Current dt:dt=""r8"">0</Current><DateUtc dt:dt=""string"">2014-05-08T22:37:39Z</DateUtc></FrequencyChange></FrequencyChanges></Clock>\n",60.035,1,1419923964,0,,-999999,15,35494,t,66455,101949,5/8/2014,15:37:39,,1,Session1,SessionsList,,,,,,,,,,1,1,1,1,101961,,,,1,1,1,,,,Cued1,MiniBlocks1,,,,,10,1,r,-999999,16,250953,r,243,251196,White,Congruent,r,Green,0,,0,3,246955,,0,0,10,1,10,,,,,,,,,,Pictures\green.bmp,3000,2000,Pictures\left.bmp,,,,,,,,,,,,,StimulusPr,Pictures\black.bmp,CuedStim1,Left
POP_2,27014,1,"<?xml version=""1.0""?>\n<Clock xmlns:dt=""urn:schemas-microsoft-com:datatypes""><Description dt:dt=""string"">E-Prime Primary Realtime Clock</Description><StartTime><Timestamp dt:dt=""int"">0</Timestamp><DateUtc dt:dt=""string"">2014-05-08T22:37:39Z</DateUtc></StartTime><FrequencyChanges><FrequencyChange><Frequency dt:dt=""r8"">2793030000</Frequency><Timestamp dt:dt=""r8"">284143359060337</Timestamp><Current dt:dt=""r8"">0</Current><DateUtc dt:dt=""string"">2014-05-08T22:37:39Z</DateUtc></FrequencyChange></FrequencyChanges></Clock>\n",60.035,1,1419923964,0,,-999999,15,35494,t,66455,101949,5/8/2014,15:37:39,,1,Session1,SessionsList,,,,,,,,,,1,1,1,2,,,,,2,1,2,,,,NonCued1,MiniBlocks1,253219,,,,1,1,r,-999999,65,268012,r,576,268588,Green,Congruent,r,White,0,,0,53,262998,,0,0,,,,,,,,,,,,,Pictures\white.bmp,4000,2000,Pictures\GreenLeft.bmp,1,1,1,,,,,,,,,,StimulusPr,Pictures\black.bmp,NonCuedStim1,Left
POP_2,27014,1,"<?xml version=""1.0""?>\n<Clock xmlns:dt=""urn:schemas-microsoft-com:datatypes""><Description dt:dt=""string"">E-Prime Primary Realtime Clock</Description><StartTime><Timestamp dt:dt=""int"">0</Timestamp><DateUtc dt:dt=""string"">2014-05-08T22:37:39Z</DateUtc></StartTime><FrequencyChanges><FrequencyChange><Frequency dt:dt=""r8"">2793030000</Frequency><Timestamp dt:dt=""r8"">284143359060337</Timestamp><Current dt:dt=""r8"">0</Current><DateUtc dt:dt=""string"">2014-05-08T22:37:39Z</DateUtc></FrequencyChange></FrequencyChanges></Clock>\n",60.035,1,1419923964,0,,-999999,15,35494,t,66455,101949,5/8/2014,15:37:39,,1,Session1,SessionsList,,,,,,,,,,1,1,1,2,,,,,2,1,2,,,,NonCued1,MiniBlocks1,253219,,,,2,1,b,-999999,66,279006,b,421,279427,Green,Congruent,b,White,0,,0,3,271943,,0,0,,,,,,,,,,,,,Pictures\white.bmp,6000,16000,Pictures\black.bmp,2,1,2,,,,,,,,,,StimulusPr,Pictures\GreenRight.bmp,NonCuedStim1,Right
POP_2,27014,1,"<?xml version=""1.0""?>\n<Clock xmlns:dt=""urn:schemas-microsoft-com:datatypes""><Description dt:dt=""string"">E-Prime Primary Realtime Clock</Description><StartTime><Timestamp dt:dt=""int"">0</Timestamp><DateUtc dt:dt=""string"">2014-05-08T22:37:39Z</DateUtc></StartTime><FrequencyChanges><FrequencyChange><Frequency dt:dt=""r8"">2793030000</Frequency><Timestamp dt:dt=""r8"">284143359060337</Timestamp><Current dt:dt=""r8"">0</Current><DateUtc dt:dt=""string"">2014-05-08T22:37:39Z</DateUtc></FrequencyChange></FrequencyChanges></Clock>\n",60.035,1,1419923964,0,,-999999,15,35494,t,66455,101949,5/8/2014,15:37:39,,1,Session1,SessionsList,,,,,,,,,,1,1,1,2,,,,,2,1,2,,,,NonCued1,MiniBlocks1,253219,,,,3,1,r,-999999,41,303994,r,449,304443,Red,Incongruent,r,White,0,,0,10,296964,,0,0,,,,,,,,,,,,,Pictures\white.bmp,6000,10000,Pictures\black.bmp,3,1,3,,,,,,,,,,StimulusPr,Pictures\RedRight.bmp,NonCuedStim1,Right
POP_2,27014,1,"<?xml version=""1.0""?>\n<Clock xmlns:dt=""urn:schemas-microsoft-com:datatypes""><Description dt:dt=""string"">E-Prime Primary Realtime Clock</Description><StartTime><Timestamp dt:dt=""int"">0</Timestamp><DateUtc dt:dt=""string"">2014-05-08T22:37:39Z</DateUtc></StartTime><FrequencyChanges><FrequencyChange><Frequency dt:dt=""r8"">2793030000</Frequency><Timestamp dt:dt=""r8"">284143359060337</Timestamp><Current dt:dt=""r8"">0</Current><DateUtc dt:dt=""string"">2014-05-08T22:37:39Z</DateUtc></FrequencyChange></FrequencyChanges></Clock>\n",60.035,1,1419923964,0,,-999999,15,35494,t,66455,101949,5/8/2014,15:37:39,,1,Session1,SessionsList,,,,,,,,,,1,1,1,2,,,,,2,1,2,,,,NonCued1,MiniBlocks1,253219,,,,4,1,r,-999999,13,325966,r,485,326451,Green,Congruent,r,White,0,,0,18,315971,,0,0,,,,,,,,,,,,,Pictures\white.bmp,9000,10000,Pictures\GreenLeft.bmp,4,1,4,,,,,,,,,,StimulusPr,Pictures\black.bmp,NonCuedStim1,Left
POP_2,27014,1,"<?xml version=""1.0""?>\n<Clock xmlns:dt=""urn:schemas-microsoft-com:datatypes""><Description dt:dt=""string"">E-Prime Primary Realtime Clock</Description><StartTime><Timestamp dt:dt=""int"">0</Timestamp><DateUtc dt:dt=""string"">2014-05-08T22:37:39Z</DateUtc></StartTime><FrequencyChanges><FrequencyChange><Frequency dt:dt=""r8"">2793030000</Frequency><Timestamp dt:dt=""r8"">284143359060337</Timestamp><Current dt:dt=""r8"">0</Current><DateUtc dt:dt=""string"">2014-05-08T22:37:39Z</DateUtc></FrequencyChange></FrequencyChanges></Clock>\n",60.035,1,1419923964,0,,-999999,15,35494,t,66455,101949,5/8/2014,15:37:39,,1,Session1,SessionsList,,,,,,,,,,1,1,1,2,,,,,2,1,2,,,,NonCued1,MiniBlocks1,253219,,,,5,1,b,-999999,15,341958,b,699,342657,Green,Congruent,b,White,0,,0,10,337960,,0,0,,,,,,,,,,,,,Pictures\white.bmp,3000,2000,Pictures\black.bmp,5,1,5,,,,,,,,,,StimulusPr,Pictures\GreenRight.bmp,NonCuedStim1,Right
POP_2,27014,1,"<?xml version=""1.0""?>\n<Clock xmlns:dt=""urn:schemas-microsoft-com:datatypes""><Description dt:dt=""string"">E-Prime Primary Realtime Clock</Description><StartTime><Timestamp dt:dt=""int"">0</Timestamp><DateUtc dt:dt=""string"">2014-05-08T22:37:39Z</DateUtc></StartTime><FrequencyChanges><FrequencyChange><Frequency dt:dt=""r8"">2793030000</Frequency><Timestamp dt:dt=""r8"">284143359060337</Timestamp><Current dt:dt=""r8"">0</Current><DateUtc dt:dt=""string"">2014-05-08T22:37:39Z</DateUtc></FrequencyChange></FrequencyChanges></Clock>\n",60.035,1,1419923964,0,,-999999,15,35494,t,66455,101949,5/8/2014,15:37:39,,1,Session1,SessionsList,,,,,,,,,,1,1,1,2,,,,,2,1,2,,,,NonCued1,MiniBlocks1,253219,,,,6,0,b,-999999,64,351003,r,405,351408,Red,Incongruent,b,White,0,,0,3,345956,,0,0,,,,,,,,,,,,,Pictures\white.bmp,4000,16000,Pictures\RedLeft.bmp,6,1,6,,,,,,,,,,StimulusPr,Pictures\black.bmp,NonCuedStim1,Left
POP_2,27014,1,"<?xml version=""1.0""?>\n<Clock xmlns:dt=""urn:schemas-microsoft-com:datatypes""><Description dt:dt=""string"">E-Prime Primary Realtime Clock</Description><StartTime><Timestamp dt:dt=""int"">0</Timestamp><DateUtc dt:dt=""string"">2014-05-08T22:37:39Z</DateUtc></StartTime><FrequencyChanges><FrequencyChange><Frequency dt:dt=""r8"">2793030000</Frequency><Timestamp dt:dt=""r8"">284143359060337</Timestamp><Current dt:dt=""r8"">0</Current><DateUtc dt:dt=""string"">2014-05-08T22:37:39Z</DateUtc></FrequencyChange></FrequencyChanges></Clock>\n",60.035,1,1419923964,0,,-999999,15,35494,t,66455,101949,5/8/2014,15:37:39,,1,Session1,SessionsList,,,,,,,,,,1,1,1,2,,,,,2,1,2,,,,NonCued1,MiniBlocks1,253219,,,,7,1,b,-999999,5,372942,b,342,373284,Green,Congruent,b,White,0,,0,8,368961,,0,0,,,,,,,,,,,,,Pictures\white.bmp,3000,4000,Pictures\black.bmp,7,1,7,,,,,,,,,,StimulusPr,Pictures\GreenRight.bmp,NonCuedStim1,Right
POP_2,27014,1,"<?xml version=""1.0""?>\n<Clock xmlns:dt=""urn:schemas-microsoft-com:datatypes""><Description dt:dt=""string"">E-Prime Primary Realtime Clock</Description><StartTime><Timestamp dt:dt=""int"">0</Timestamp><DateUtc dt:dt=""string"">2014-05-08T22:37:39Z</DateUtc></StartTime><FrequencyChanges><FrequencyChange><Frequency dt:dt=""r8"">2793030000</Frequency><Timestamp dt:dt=""r8"">284143359060337</Timestamp><Current dt:dt=""r8"">0</Current><DateUtc dt:dt=""string"">2014-05-08T22:37:39Z</DateUtc></FrequencyChange></FrequencyChanges></Clock>\n",60.035,1,1419923964,0,,-999999,15,35494,t,66455,101949,5/8/2014,15:37:39,,1,Session1,SessionsList,,,,,,,,,,1,1,1,2,,,,,2,1,2,,,,NonCued1,MiniBlocks1,253219,,,,8,1,b,-999999,19,382971,b,454,383425,Green,Congruent,b,White,0,,0,14,378956,,0,0,,,,,,,,,,,,,Pictures\white.bmp,3000,4000,Pictures\black.bmp,8,1,8,,,,,,,,,,StimulusPr,Pictures\GreenRight.bmp,NonCuedStim1,Right
POP_2,27014,1,"<?xml version=""1.0""?>\n<Clock xmlns:dt=""urn:schemas-microsoft-com:datatypes""><Description dt:dt=""string"">E-Prime Primary Realtime Clock</Description><StartTime><Timestamp dt:dt=""int"">0</Timestamp><DateUtc dt:dt=""string"">2014-05-08T22:37:39Z</DateUtc></StartTime><FrequencyChanges><FrequencyChange><Frequency dt:dt=""r8"">2793030000</Frequency><Timestamp dt:dt=""r8"">284143359060337</Timestamp><Current dt:dt=""r8"">0</Current><DateUtc dt:dt=""string"">2014-05-08T22:37:39Z</DateUtc></FrequencyChange></FrequencyChanges></Clock>\n",60.035,1,1419923964,0,,-999999,15,35494,t,66455,101949,5/8/2014,15:37:39,,1,Session1,SessionsList,,,,,,,,,,1,1,1,2,,,,,2,1,2,,,,NonCued1,MiniBlocks1,253219,,,,9,1,b,-999999,9,398963,b,439,399402,Red,Incongruent,b,White,0,,0,14,388968,,0,0,,,,,,,,,,,,,Pictures\white.bmp,9000,2000,Pictures\RedLeft.bmp,9,1,9,,,,,,,,,,StimulusPr,Pictures\black.bmp,NonCuedStim1,Left
POP_2,27014,1,"<?xml version=""1.0""?>\n<Clock xmlns:dt=""urn:schemas-microsoft-com:datatypes""><Description dt:dt=""string"">E-Prime Primary Realtime Clock</Description><StartTime><Timestamp dt:dt=""int"">0</Timestamp><DateUtc dt:dt=""string"">2014-05-08T22:37:39Z</DateUtc></StartTime><FrequencyChanges><FrequencyChange><Frequency dt:dt=""r8"">2793030000</Frequency><Timestamp dt:dt=""r8"">284143359060337</Timestamp><Current dt:dt=""r8"">0</Current><DateUtc dt:dt=""string"">2014-05-08T22:37:39Z</DateUtc></FrequencyChange></FrequencyChanges></Clock>\n",60.035,1,1419923964,0,,-999999,15,35494,t,66455,101949,5/8/2014,15:37:39,,1,Session1,SessionsList,,,,,,,,,,1,1,1,2,,,,,2,1,2,,,,NonCued1,MiniBlocks1,253219,,,,10,1,r,-999999,4,409957,r,669,410626,Green,Congruent,r,White,0,,0,9,402961,,0,0,,,,,,,,,,,,,Pictures\white.bmp,6000,2000,Pictures\GreenLeft.bmp,10,1,10,,,,,,,,,,StimulusPr,Pictures\black.bmp,NonCuedStim1,Left
POP_2,27014,1,"<?xml version=""1.0""?>\n<Clock xmlns:dt=""urn:schemas-microsoft-com:datatypes""><Description dt:dt=""string"">E-Prime Primary Realtime Clock</Description><StartTime><Timestamp dt:dt=""int"">0</Timestamp><DateUtc dt:dt=""string"">2014-05-08T22:37:39Z</DateUtc></StartTime><FrequencyChanges><FrequencyChange><Frequency dt:dt=""r8"">2793030000</Frequency><Timestamp dt:dt=""r8"">284143359060337</Timestamp><Current dt:dt=""r8"">0</Current><DateUtc dt:dt=""string"">2014-05-08T22:37:39Z</DateUtc></FrequencyChange></FrequencyChanges></Clock>\n",60.035,1,1419923964,0,,-999999,15,35494,t,66455,101949,5/8/2014,15:37:39,,1,Session1,SessionsList,,,,,,,,,,1,1,1,3,,,,,3,1,3,,,,NonCued2,MiniBlocks1,,412656,,,1,1,b,-999999,14,432962,b,474,433436,Green,Congruent,b,White,0,,0,5,422951,,0,0,,,,,,,,,,,,,Pictures\white.bmp,9000,10000,Pictures\black.bmp,,,,1,1,1,,,,,,,StimulusPr,Pictures\GreenRight.bmp,NonCuedStim2,Right
POP_2,27014,1,"<?xml version=""1.0""?>\n<Clock xmlns:dt=""urn:schemas-microsoft-com:datatypes""><Description dt:dt=""string"">E-Prime Primary Realtime Clock</Description><StartTime><Timestamp dt:dt=""int"">0</Timestamp><DateUtc dt:dt=""string"">2014-05-08T22:37:39Z</DateUtc></StartTime><FrequencyChanges><FrequencyChange><Frequency dt:dt=""r8"">2793030000</Frequency><Timestamp dt:dt=""r8"">284143359060337</Timestamp><Current dt:dt=""r8"">0</Current><DateUtc dt:dt=""string"">2014-05-08T22:37:39Z</DateUtc></FrequencyChange></FrequencyChanges></Clock>\n",60.035,1,1419923964,0,,-999999,15,35494,t,66455,101949,5/8/2014,15:37:39,,1,Session1,SessionsList,,,,,,,,,,1,1,1,3,,,,,3,1,3,,,,NonCued2,MiniBlocks1,,412656,,,2,1,r,-999999,18,448971,r,562,449533,Green,Congruent,r,White,0,,0,3,444956,,0,0,,,,,,,,,,,,,Pictures\white.bmp,3000,2000,Pictures\GreenLeft.bmp,,,,2,1,2,,,,,,,StimulusPr,Pictures\black.bmp,NonCuedStim2,Left
POP_2,27014,1,"<?xml version=""1.0""?>\n<Clock xmlns:dt=""urn:schemas-microsoft-com:datatypes""><Description dt:dt=""string"">E-Prime Primary Realtime Clock</Description><StartTime><Timestamp dt:dt=""int"">0</Timestamp><DateUtc dt:dt=""string"">2014-05-08T22:37:39Z</DateUtc></StartTime><FrequencyChanges><FrequencyChange><Frequency dt:dt=""r8"">2793030000</Frequency><Timestamp dt:dt=""r8"">284143359060337</Timestamp><Current dt:dt=""r8"">0</Current><DateUtc dt:dt=""string"">2014-05-08T22:37:39Z</DateUtc></FrequencyChange></FrequencyChanges></Clock>\n",60.035,1,1419923964,0,,-999999,15,35494,t,66455,101949,5/8/2014,15:37:39,,1,Session1,SessionsList,,,,,,,,,,1,1,1,3,,,,,3,1,3,,,,NonCued2,MiniBlocks1,,412656,,,3,1,r,-999999,14,456967,r,611,457578,Red,Incongruent,r,White,0,,0,16,452969,,0,0,,,,,,,,,,,,,Pictures\white.bmp,3000,2000,Pictures\black.bmp,,,,3,1,3,,,,,,,StimulusPr,Pictures\RedRight.bmp,NonCuedStim2,Right
POP_2,27014,1,"<?xml version=""1.0""?>\n<Clock xmlns:dt=""urn:schemas-microsoft-com:datatypes""><Description dt:dt=""string"">E-Prime Primary Realtime Clock</Description><StartTime><Timestamp dt:dt=""int"">0</Timestamp><DateUtc dt:dt=""string"">2014-05-08T22:37:39Z</DateUtc></StartTime><FrequencyChanges><FrequencyChange><Frequency dt:dt=""r8"">2793030000</Frequency><Timestamp dt:dt=""r8"">284143359060337</Timestamp><Current dt:dt=""r8"">0</Current><DateUtc dt:dt=""string"">2014-05-08T22:37:39Z</DateUtc></FrequencyChange></FrequencyChanges></Clock>\n",60.035,1,1419923964,0,,-999999,15,35494,t,66455,101949,5/8/2014,15:37:39,,1,Session1,SessionsList,,,,,,,,,,1,1,1,3,,,,,3,1,3,,,,NonCued2,MiniBlocks1,,412656,,,4,1,r,-999999,11,465963,r,408,466371,Green,Congruent,r,White,0,,0,12,460965,,0,0,,,,,,,,,,,,,Pictures\white.bmp,4000,16000,Pictures\GreenLeft.bmp,,,,4,1,4,,,,,,,StimulusPr,Pictures\black.bmp,NonCuedStim2,Left
POP_2,27014,1,"<?xml version=""1.0""?>\n<Clock xmlns:dt=""urn:schemas-microsoft-com:datatypes""><Description dt:dt=""string"">E-Prime Primary Realtime Clock</Description><StartTime><Timestamp dt:dt=""int"">0</Timestamp><DateUtc dt:dt=""string"">2014-05-08T22:37:39Z</DateUtc></StartTime><FrequencyChanges><FrequencyChange><Frequency dt:dt=""r8"">2793030000</Frequency><Timestamp dt:dt=""r8"">284143359060337</Timestamp><Current dt:dt=""r8"">0</Current><DateUtc dt:dt=""string"">2014-05-08T22:37:39Z</DateUtc></FrequencyChange></FrequencyChanges></Clock>\n",60.035,1,1419923964,0,,-999999,15,35494,t,66455,101949,5/8/2014,15:37:39,,1,Session1,SessionsList,,,,,,,,,,1,1,1,3,,,,,3,1,3,,,,NonCued2,MiniBlocks1,,412656,,,5,1,r,-999999,13,490967,r,432,491399,Green,Congruent,r,White,0,,0,16,483970,,0,0,,,,,,,,,,,,,Pictures\white.bmp,6000,4000,Pictures\GreenLeft.bmp,,,,5,1,5,,,,,,,StimulusPr,Pictures\black.bmp,NonCuedStim2,Left
POP_2,27014,1,"<?xml version=""1.0""?>\n<Clock xmlns:dt=""urn:schemas-microsoft-com:datatypes""><Description dt:dt=""string"">E-Prime Primary Realtime Clock</Description><StartTime><Timestamp dt:dt=""int"">0</Timestamp><DateUtc dt:dt=""string"">2014-05-08T22:37:39Z</DateUtc></StartTime><FrequencyChanges><FrequencyChange><Frequency dt:dt=""r8"">2793030000</Frequency><Timestamp dt:dt=""r8"">284143359060337</Timestamp><Current dt:dt=""r8"">0</Current><DateUtc dt:dt=""string"">2014-05-08T22:37:39Z</DateUtc></FrequencyChange></FrequencyChanges></Clock>\n",60.035,1,1419923964,0,,-999999,15,35494,t,66455,101949,5/8/2014,15:37:39,,1,Session1,SessionsList,,,,,,,,,,1,1,1,3,,,,,3,1,3,,,,NonCued2,MiniBlocks1,,412656,,,6,1,b,-999999,17,500962,b,371,501333,Red,Incongruent,b,White,0,,0,12,496964,,0,0,,,,,,,,,,,,,Pictures\white.bmp,3000,4000,Pictures\RedLeft.bmp,,,,6,1,6,,,,,,,StimulusPr,Pictures\black.bmp,NonCuedStim2,Left
POP_2,27014,1,"<?xml version=""1.0""?>\n<Clock xmlns:dt=""urn:schemas-microsoft-com:datatypes""><Description dt:dt=""string"">E-Prime Primary Realtime Clock</Description><StartTime><Timestamp dt:dt=""int"">0</Timestamp><DateUtc dt:dt=""string"">2014-05-08T22:37:39Z</DateUtc></StartTime><FrequencyChanges><FrequencyChange><Frequency dt:dt=""r8"">2793030000</Frequency><Timestamp dt:dt=""r8"">284143359060337</Timestamp><Current dt:dt=""r8"">0</Current><DateUtc dt:dt=""string"">2014-05-08T22:37:39Z</DateUtc></FrequencyChange></FrequencyChanges></Clock>\n",60.035,1,1419923964,0,,-999999,15,35494,t,66455,101949,5/8/2014,15:37:39,,1,Session1,SessionsList,,,,,,,,,,1,1,1,3,,,,,3,1,3,,,,NonCued2,MiniBlocks1,,412656,,,7,1,b,-999999,8,511956,b,330,512286,Green,Congruent,b,White,0,,0,5,506959,,0,0,,,,,,,,,,,,,Pictures\white.bmp,4000,16000,Pictures\black.bmp,,,,7,1,7,,,,,,,StimulusPr,Pictures\GreenRight.bmp,NonCuedStim2,Right
POP_2,27014,1,"<?xml version=""1.0""?>\n<Clock xmlns:dt=""urn:schemas-microsoft-com:datatypes""><Description dt:dt=""string"">E-Prime Primary Realtime Clock</Description><StartTime><Timestamp dt:dt=""int"">0</Timestamp><DateUtc dt:dt=""string"">2014-05-08T22:37:39Z</DateUtc></StartTime><FrequencyChanges><FrequencyChange><Frequency dt:dt=""r8"">2793030000</Frequency><Timestamp dt:dt=""r8"">284143359060337</Timestamp><Current dt:dt=""r8"">0</Current><DateUtc dt:dt=""string"">2014-05-08T22:37:39Z</DateUtc></FrequencyChange></FrequencyChanges></Clock>\n",60.035,1,1419923964,0,,-999999,15,35494,t,66455,101949,5/8/2014,15:37:39,,1,Session1,SessionsList,,,,,,,,,,1,1,1,3,,,,,3,1,3,,,,NonCued2,MiniBlocks1,,412656,,,8,1,r,-999999,6,539959,r,397,540356,Green,Congruent,r,White,0,,0,11,529964,,0,0,,,,,,,,,,,,,Pictures\white.bmp,9000,2000,Pictures\GreenLeft.bmp,,,,8,1,8,,,,,,,StimulusPr,Pictures\black.bmp,NonCuedStim2,Left
POP_2,27014,1,"<?xml version=""1.0""?>\n<Clock xmlns:dt=""urn:schemas-microsoft-com:datatypes""><Description dt:dt=""string"">E-Prime Primary Realtime Clock</Description><StartTime><Timestamp dt:dt=""int"">0</Timestamp><DateUtc dt:dt=""string"">2014-05-08T22:37:39Z</DateUtc></StartTime><FrequencyChanges><FrequencyChange><Frequency dt:dt=""r8"">2793030000</Frequency><Timestamp dt:dt=""r8"">284143359060337</Timestamp><Current dt:dt=""r8"">0</Current><DateUtc dt:dt=""string"">2014-05-08T22:37:39Z</DateUtc></FrequencyChange></FrequencyChanges></Clock>\n",60.035,1,1419923964,0,,-999999,15,35494,t,66455,101949,5/8/2014,15:37:39,,1,Session1,SessionsList,,,,,,,,,,1,1,1,3,,,,,3,1,3,,,,NonCued2,MiniBlocks1,,412656,,,9,1,b,-999999,13,547955,b,574,548529,Green,Congruent,b,White,0,,0,4,543957,,0,0,,,,,,,,,,,,,Pictures\white.bmp,3000,10000,Pictures\black.bmp,,,,9,1,9,,,,,,,StimulusPr,Pictures\GreenRight.bmp,NonCuedStim2,Right
POP_2,27014,1,"<?xml version=""1.0""?>\n<Clock xmlns:dt=""urn:schemas-microsoft-com:datatypes""><Description dt:dt=""string"">E-Prime Primary Realtime Clock</Description><StartTime><Timestamp dt:dt=""int"">0</Timestamp><DateUtc dt:dt=""string"">2014-05-08T22:37:39Z</DateUtc></StartTime><FrequencyChanges><FrequencyChange><Frequency dt:dt=""r8"">2793030000</Frequency><Timestamp dt:dt=""r8"">284143359060337</Timestamp><Current dt:dt=""r8"">0</Current><DateUtc dt:dt=""string"">2014-05-08T22:37:39Z</DateUtc></FrequencyChange></FrequencyChanges></Clock>\n",60.035,1,1419923964,0,,-999999,15,35494,t,66455,101949,5/8/2014,15:37:39,,1,Session1,SessionsList,,,,,,,,,,1,1,1,3,,,,,3,1,3,,,,NonCued2,MiniBlocks1,,412656,,,10,1,b,-999999,13,563964,b,554,564518,Green,Congruent,b,White,0,,0,12,559966,,0,0,,,,,,,,,,,,,Pictures\white.bmp,3000,2000,Pictures\black.bmp,,,,10,1,10,,,,,,,StimulusPr,Pictures\GreenRight.bmp,NonCuedStim2,Right
POP_2,27014,1,"<?xml version=""1.0""?>\n<Clock xmlns:dt=""urn:schemas-microsoft-com:datatypes""><Description dt:dt=""string"">E-Prime Primary Realtime Clock</Description><StartTime><Timestamp dt:dt=""int"">0</Timestamp><DateUtc dt:dt=""string"">2014-05-08T22:37:39Z</DateUtc></StartTime><FrequencyChanges><FrequencyChange><Frequency dt:dt=""r8"">2793030000</Frequency><Timestamp dt:dt=""r8"">284143359060337</Timestamp><Current dt:dt=""r8"">0</Current><DateUtc dt:dt=""string"">2014-05-08T22:37:39Z</DateUtc></FrequencyChange></FrequencyChanges></Clock>\n",60.035,1,1419923964,0,,-999999,15,35494,t,66455,101949,5/8/2014,15:37:39,,1,Session1,SessionsList,,,,,,,,,,1,1,1,4,,566546,,,4,1,4,,,,Cued2,MiniBlocks1,,,,,1,1,b,-999999,16,583970,b,344,584314,White,Congruent,b,Green,0,,0,3,576957,,0,0,,,,1,1,1,,,,,,,Pictures\green.bmp,6000,4000,Pictures\black.bmp,,,,,,,,,,,,,StimulusPr,Pictures\right.bmp,CuedStim2,Right
POP_2,27014,1,"<?xml version=""1.0""?>\n<Clock xmlns:dt=""urn:schemas-microsoft-com:datatypes""><Description dt:dt=""string"">E-Prime Primary Realtime Clock</Description><StartTime><Timestamp dt:dt=""int"">0</Timestamp><DateUtc dt:dt=""string"">2014-05-08T22:37:39Z</DateUtc></StartTime><FrequencyChanges><FrequencyChange><Frequency dt:dt=""r8"">2793030000</Frequency><Timestamp dt:dt=""r8"">284143359060337</Timestamp><Current dt:dt=""r8"">0</Current><DateUtc dt:dt=""string"">2014-05-08T22:37:39Z</DateUtc></FrequencyChange></FrequencyChanges></Clock>\n",60.035,1,1419923964,0,,-999999,15,35494,t,66455,101949,5/8/2014,15:37:39,,1,Session1,SessionsList,,,,,,,,,,1,1,1,4,,566546,,,4,1,4,,,,Cued2,MiniBlocks1,,,,,2,1,b,-999999,8,599962,b,310,600272,White,Congruent,b,Green,0,,0,15,589967,,0,0,,,,2,1,2,,,,,,,Pictures\green.bmp,9000,10000,Pictures\black.bmp,,,,,,,,,,,,,StimulusPr,Pictures\right.bmp,CuedStim2,Right
POP_2,27014,1,"<?xml version=""1.0""?>\n<Clock xmlns:dt=""urn:schemas-microsoft-com:datatypes""><Description dt:dt=""string"">E-Prime Primary Realtime Clock</Description><StartTime><Timestamp dt:dt=""int"">0</Timestamp><DateUtc dt:dt=""string"">2014-05-08T22:37:39Z</DateUtc></StartTime><FrequencyChanges><FrequencyChange><Frequency dt:dt=""r8"">2793030000</Frequency><Timestamp dt:dt=""r8"">284143359060337</Timestamp><Current dt:dt=""r8"">0</Current><DateUtc dt:dt=""string"">2014-05-08T22:37:39Z</DateUtc></FrequencyChange></FrequencyChanges></Clock>\n",60.035,1,1419923964,0,,-999999,15,35494,t,66455,101949,5/8/2014,15:37:39,,1,Session1,SessionsList,,,,,,,,,,1,1,1,4,,566546,,,4,1,4,,,,Cued2,MiniBlocks1,,,,,3,1,r,-999999,17,615971,r,560,616531,White,Incongruent,r,Red,0,,0,17,611956,,0,0,,,,3,1,3,,,,,,,Pictures\red.bmp,3000,2000,Pictures\black.bmp,,,,,,,,,,,,,StimulusPr,Pictures\right.bmp,CuedStim2,Right
POP_2,27014,1,"<?xml version=""1.0""?>\n<Clock xmlns:dt=""urn:schemas-microsoft-com:datatypes""><Description dt:dt=""string"">E-Prime Primary Realtime Clock</Description><StartTime><Timestamp dt:dt=""int"">0</Timestamp><DateUtc dt:dt=""string"">2014-05-08T22:37:39Z</DateUtc></StartTime><FrequencyChanges><FrequencyChange><Frequency dt:dt=""r8"">2793030000</Frequency><Timestamp dt:dt=""r8"">284143359060337</Timestamp><Current dt:dt=""r8"">0</Current><DateUtc dt:dt=""string"">2014-05-08T22:37:39Z</DateUtc></FrequencyChange></FrequencyChanges></Clock>\n",60.035,1,1419923964,0,,-999999,15,35494,t,66455,101949,5/8/2014,15:37:39,,1,Session1,SessionsList,,,,,,,,,,1,1,1,4,,566546,,,4,1,4,,,,Cued2,MiniBlocks1,,,,,4,1,r,-999999,13,626966,r,321,627287,White,Congruent,r,Green,0,,0,17,619969,,0,0,,,,4,1,4,,,,,,,Pictures\green.bmp,6000,16000,Pictures\left.bmp,,,,,,,,,,,,,StimulusPr,Pictures\black.bmp,CuedStim2,Left
POP_2,27014,1,"<?xml version=""1.0""?>\n<Clock xmlns:dt=""urn:schemas-microsoft-com:datatypes""><Description dt:dt=""string"">E-Prime Primary Realtime Clock</Description><StartTime><Timestamp dt:dt=""int"">0</Timestamp><DateUtc dt:dt=""string"">2014-05-08T22:37:39Z</DateUtc></StartTime><FrequencyChanges><FrequencyChange><Frequency dt:dt=""r8"">2793030000</Frequency><Timestamp dt:dt=""r8"">284143359060337</Timestamp><Current dt:dt=""r8"">0</Current><DateUtc dt:dt=""string"">2014-05-08T22:37:39Z</DateUtc></FrequencyChange></FrequencyChanges></Clock>\n",60.035,1,1419923964,0,,-999999,15,35494,t,66455,101949,5/8/2014,15:37:39,,1,Session1,SessionsList,,,,,,,,,,1,1,1,4,,566546,,,4,1,4,,,,Cued2,MiniBlocks1,,,,,5,1,b,-999999,17,648971,b,545,649516,White,Congruent,b,Green,0,,0,3,644957,,0,0,,,,5,1,5,,,,,,,Pictures\green.bmp,3000,2000,Pictures\black.bmp,,,,,,,,,,,,,StimulusPr,Pictures\right.bmp,CuedStim2,Right
POP_2,27014,1,"<?xml version=""1.0""?>\n<Clock xmlns:dt=""urn:schemas-microsoft-com:datatypes""><Description dt:dt=""string"">E-Prime Primary Realtime Clock</Description><StartTime><Timestamp dt:dt=""int"">0</Timestamp><DateUtc dt:dt=""string"">2014-05-08T22:37:39Z</DateUtc></StartTime><FrequencyChanges><FrequencyChange><Frequency dt:dt=""r8"">2793030000</Frequency><Timestamp dt:dt=""r8"">284143359060337</Timestamp><Current dt:dt=""r8"">0</Current><DateUtc dt:dt=""string"">2014-05-08T22:37:39Z</DateUtc></FrequencyChange></FrequencyChanges></Clock>\n",60.035,1,1419923964,0,,-999999,15,35494,t,66455,101949,5/8/2014,15:37:39,,1,Session1,SessionsList,,,,,,,,,,1,1,1,4,,566546,,,4,1,4,,,,Cued2,MiniBlocks1,,,,,6,1,r,-999999,13,656967,r,478,657445,White,Congruent,r,Green,0,,0,2,652953,,0,0,,,,6,1,6,,,,,,,Pictures\green.bmp,3000,2000,Pictures\left.bmp,,,,,,,,,,,,,StimulusPr,Pictures\black.bmp,CuedStim2,Left
POP_2,27014,1,"<?xml version=""1.0""?>\n<Clock xmlns:dt=""urn:schemas-microsoft-com:datatypes""><Description dt:dt=""string"">E-Prime Primary Realtime Clock</Description><StartTime><Timestamp dt:dt=""int"">0</Timestamp><DateUtc dt:dt=""string"">2014-05-08T22:37:39Z</DateUtc></StartTime><FrequencyChanges><FrequencyChange><Frequency dt:dt=""r8"">2793030000</Frequency><Timestamp dt:dt=""r8"">284143359060337</Timestamp><Current dt:dt=""r8"">0</Current><DateUtc dt:dt=""string"">2014-05-08T22:37:39Z</DateUtc></FrequencyChange></FrequencyChanges></Clock>\n",60.035,1,1419923964,0,,-999999,15,35494,t,66455,101949,5/8/2014,15:37:39,,1,Session1,SessionsList,,,,,,,,,,1,1,1,4,,566546,,,4,1,4,,,,Cued2,MiniBlocks1,,,,,7,1,b,-999999,8,667962,b,344,668306,White,Incongruent,b,Red,0,,0,13,660965,,0,0,,,,7,1,7,,,,,,,Pictures\red.bmp,6000,4000,Pictures\left.bmp,,,,,,,,,,,,,StimulusPr,Pictures\black.bmp,CuedStim2,Left
POP_2,27014,1,"<?xml version=""1.0""?>\n<Clock xmlns:dt=""urn:schemas-microsoft-com:datatypes""><Description dt:dt=""string"">E-Prime Primary Realtime Clock</Description><StartTime><Timestamp dt:dt=""int"">0</Timestamp><DateUtc dt:dt=""string"">2014-05-08T22:37:39Z</DateUtc></StartTime><FrequencyChanges><FrequencyChange><Frequency dt:dt=""r8"">2793030000</Frequency><Timestamp dt:dt=""r8"">284143359060337</Timestamp><Current dt:dt=""r8"">0</Current><DateUtc dt:dt=""string"">2014-05-08T22:37:39Z</DateUtc></FrequencyChange></FrequencyChanges></Clock>\n",60.035,1,1419923964,0,,-999999,15,35494,t,66455,101949,5/8/2014,15:37:39,,1,Session1,SessionsList,,,,,,,,,,1,1,1,4,,566546,,,4,1,4,,,,Cued2,MiniBlocks1,,,,,8,1,b,-999999,2,678956,b,656,679612,White,Congruent,b,Green,0,,0,5,673959,,0,0,,,,8,1,8,,,,,,,Pictures\green.bmp,4000,4000,Pictures\black.bmp,,,,,,,,,,,,,StimulusPr,Pictures\right.bmp,CuedStim2,Right
POP_2,27014,1,"<?xml version=""1.0""?>\n<Clock xmlns:dt=""urn:schemas-microsoft-com:datatypes""><Description dt:dt=""string"">E-Prime Primary Realtime Clock</Description><StartTime><Timestamp dt:dt=""int"">0</Timestamp><DateUtc dt:dt=""string"">2014-05-08T22:37:39Z</DateUtc></StartTime><FrequencyChanges><FrequencyChange><Frequency dt:dt=""r8"">2793030000</Frequency><Timestamp dt:dt=""r8"">284143359060337</Timestamp><Current dt:dt=""r8"">0</Current><DateUtc dt:dt=""string"">2014-05-08T22:37:39Z</DateUtc></FrequencyChange></FrequencyChanges></Clock>\n",60.035,1,1419923964,0,,-999999,15,35494,t,66455,101949,5/8/2014,15:37:39,,1,Session1,SessionsList,,,,,,,,,,1,1,1,4,,566546,,,4,1,4,,,,Cued2,MiniBlocks1,,,,,9,1,b,-999999,15,694965,b,644,695609,White,Incongruent,b,Red,0,,0,2,684954,,0,0,,,,9,1,9,,,,,,,Pictures\red.bmp,9000,10000,Pictures\left.bmp,,,,,,,,,,,,,StimulusPr,Pictures\black.bmp,CuedStim2,Left
POP_2,27014,1,"<?xml version=""1.0""?>\n<Clock xmlns:dt=""urn:schemas-microsoft-com:datatypes""><Description dt:dt=""string"">E-Prime Primary Realtime Clock</Description><StartTime><Timestamp dt:dt=""int"">0</Timestamp><DateUtc dt:dt=""string"">2014-05-08T22:37:39Z</DateUtc></StartTime><FrequencyChanges><FrequencyChange><Frequency dt:dt=""r8"">2793030000</Frequency><Timestamp dt:dt=""r8"">284143359060337</Timestamp><Current dt:dt=""r8"">0</Current><DateUtc dt:dt=""string"">2014-05-08T22:37:39Z</DateUtc></FrequencyChange></FrequencyChanges></Clock>\n",60.035,1,1419923964,0,,-999999,15,35494,t,66455,101949,5/8/2014,15:37:39,,1,Session1,SessionsList,,,,,,,,,,1,1,1,4,,566546,,,4,1,4,,,,Cued2,MiniBlocks1,,,,,10,1,r,-999999,17,716971,r,347,717318,White,Congruent,r,Green,0,,0,5,706959,,0,0,,,,10,1,10,,,,,,,Pictures\green.bmp,9000,10000,Pictures\left.bmp,,,,,,,,,,,,,StimulusPr,Pictures\black.bmp,CuedStim2,Left
POP_2,27014,1,"<?xml version=""1.0""?>\n<Clock xmlns:dt=""urn:schemas-microsoft-com:datatypes""><Description dt:dt=""string"">E-Prime Primary Realtime Clock</Description><StartTime><Timestamp dt:dt=""int"">0</Timestamp><DateUtc dt:dt=""string"">2014-05-08T22:37:39Z</DateUtc></StartTime><FrequencyChanges><FrequencyChange><Frequency dt:dt=""r8"">2793030000</Frequency><Timestamp dt:dt=""r8"">284143359060337</Timestamp><Current dt:dt=""r8"">0</Current><DateUtc dt:dt=""string"">2014-05-08T22:37:39Z</DateUtc></FrequencyChange></FrequencyChanges></Clock>\n",60.035,1,1419923964,0,,-999999,15,35494,t,66455,101949,5/8/2014,15:37:39,,2,Session2,SessionsList,0,,-999999,17,737993,t,35433,773426,727332,2,1,2,1,,,,,,,,1,1,1,NonCued3,MiniBlocks2,,,773442,,1,1,b,-999999,5,793432,b,363,793795,Green,Congruent,b,White,0,,0,9,783421,,0,0,,,,,,,,,,,,,Pictures\white.bmp,9000,10000,Pictures\black.bmp,,,,,,,1,1,1,,,,StimulusPr,Pictures\GreenRight.bmp,NonCuedStim3,Right
POP_2,27014,1,"<?xml version=""1.0""?>\n<Clock xmlns:dt=""urn:schemas-microsoft-com:datatypes""><Description dt:dt=""string"">E-Prime Primary Realtime Clock</Description><StartTime><Timestamp dt:dt=""int"">0</Timestamp><DateUtc dt:dt=""string"">2014-05-08T22:37:39Z</DateUtc></StartTime><FrequencyChanges><FrequencyChange><Frequency dt:dt=""r8"">2793030000</Frequency><Timestamp dt:dt=""r8"">284143359060337</Timestamp><Current dt:dt=""r8"">0</Current><DateUtc dt:dt=""string"">2014-05-08T22:37:39Z</DateUtc></FrequencyChange></FrequencyChanges></Clock>\n",60.035,1,1419923964,0,,-999999,15,35494,t,66455,101949,5/8/2014,15:37:39,,2,Session2,SessionsList,0,,-999999,17,737993,t,35433,773426,727332,2,1,2,1,,,,,,,,1,1,1,NonCued3,MiniBlocks2,,,773442,,2,1,r,-999999,11,815438,r,544,815982,Red,Incongruent,r,White,0,,0,14,805426,,0,0,,,,,,,,,,,,,Pictures\white.bmp,9000,10000,Pictures\black.bmp,,,,,,,2,1,2,,,,StimulusPr,Pictures\RedRight.bmp,NonCuedStim3,Right
POP_2,27014,1,"<?xml version=""1.0""?>\n<Clock xmlns:dt=""urn:schemas-microsoft-com:datatypes""><Description dt:dt=""string"">E-Prime Primary Realtime Clock</Description><StartTime><Timestamp dt:dt=""int"">0</Timestamp><DateUtc dt:dt=""string"">2014-05-08T22:37:39Z</DateUtc></StartTime><FrequencyChanges><FrequencyChange><Frequency dt:dt=""r8"">2793030000</Frequency><Timestamp dt:dt=""r8"">284143359060337</Timestamp><Current dt:dt=""r8"">0</Current><DateUtc dt:dt=""string"">2014-05-08T22:37:39Z</DateUtc></FrequencyChange></FrequencyChanges></Clock>\n",60.035,1,1419923964,0,,-999999,15,35494,t,66455,101949,5/8/2014,15:37:39,,2,Session2,SessionsList,0,,-999999,17,737993,t,35433,773426,727332,2,1,2,1,,,,,,,,1,1,1,NonCued3,MiniBlocks2,,,773442,,3,1,r,-999999,3,832430,r,646,833076,Green,Congruent,r,White,0,,0,3,827415,,0,0,,,,,,,,,,,,,Pictures\white.bmp,4000,4000,Pictures\GreenLeft.bmp,,,,,,,3,1,3,,,,StimulusPr,Pictures\black.bmp,NonCuedStim3,Left
POP_2,27014,1,"<?xml version=""1.0""?>\n<Clock xmlns:dt=""urn:schemas-microsoft-com:datatypes""><Description dt:dt=""string"">E-Prime Primary Realtime Clock</Description><StartTime><Timestamp dt:dt=""int"">0</Timestamp><DateUtc dt:dt=""string"">2014-05-08T22:37:39Z</DateUtc></StartTime><FrequencyChanges><FrequencyChange><Frequency dt:dt=""r8"">2793030000</Frequency><Timestamp dt:dt=""r8"">284143359060337</Timestamp><Current dt:dt=""r8"">0</Current><DateUtc dt:dt=""string"">2014-05-08T22:37:39Z</DateUtc></FrequencyChange></FrequencyChanges></Clock>\n",60.035,1,1419923964,0,,-999999,15,35494,t,66455,101949,5/8/2014,15:37:39,,2,Session2,SessionsList,0,,-999999,17,737993,t,35433,773426,727332,2,1,2,1,,,,,,,,1,1,1,NonCued3,MiniBlocks2,,,773442,,4,1,b,-999999,11,845423,b,458,845881,Red,Incongruent,b,White,0,,0,8,838427,,0,0,,,,,,,,,,,,,Pictures\white.bmp,6000,4000,Pictures\RedLeft.bmp,,,,,,,4,1,4,,,,StimulusPr,Pictures\black.bmp,NonCuedStim3,Left
POP_2,27014,1,"<?xml version=""1.0""?>\n<Clock xmlns:dt=""urn:schemas-microsoft-com:datatypes""><Description dt:dt=""string"">E-Prime Primary Realtime Clock</Description><StartTime><Timestamp dt:dt=""int"">0</Timestamp><DateUtc dt:dt=""string"">2014-05-08T22:37:39Z</DateUtc></StartTime><FrequencyChanges><FrequencyChange><Frequency dt:dt=""r8"">2793030000</Frequency><Timestamp dt:dt=""r8"">284143359060337</Timestamp><Current dt:dt=""r8"">0</Current><DateUtc dt:dt=""string"">2014-05-08T22:37:39Z</DateUtc></FrequencyChange></FrequencyChanges></Clock>\n",60.035,1,1419923964,0,,-999999,15,35494,t,66455,101949,5/8/2014,15:37:39,,2,Session2,SessionsList,0,,-999999,17,737993,t,35433,773426,727332,2,1,2,1,,,,,,,,1,1,1,NonCued3,MiniBlocks2,,,773442,,5,1,b,-999999,6,855418,b,353,855771,Green,Congruent,b,White,0,,0,8,851420,,0,0,,,,,,,,,,,,,Pictures\white.bmp,3000,2000,Pictures\black.bmp,,,,,,,5,1,5,,,,StimulusPr,Pictures\GreenRight.bmp,NonCuedStim3,Right
POP_2,27014,1,"<?xml version=""1.0""?>\n<Clock xmlns:dt=""urn:schemas-microsoft-com:datatypes""><Description dt:dt=""string"">E-Prime Primary Realtime Clock</Description><StartTime><Timestamp dt:dt=""int"">0</Timestamp><DateUtc dt:dt=""string"">2014-05-08T22:37:39Z</DateUtc></StartTime><FrequencyChanges><FrequencyChange><Frequency dt:dt=""r8"">2793030000</Frequency><Timestamp dt:dt=""r8"">284143359060337</Timestamp><Current dt:dt=""r8"">0</Current><DateUtc dt:dt=""string"">2014-05-08T22:37:39Z</DateUtc></FrequencyChange></FrequencyChanges></Clock>\n",60.035,1,1419923964,0,,-999999,15,35494,t,66455,101949,5/8/2014,15:37:39,,2,Session2,SessionsList,0,,-999999,17,737993,t,35433,773426,727332,2,1,2,1,,,,,,,,1,1,1,NonCued3,MiniBlocks2,,,773442,,6,1,r,-999999,2,863414,r,308,863722,Green,Congruent,r,White,0,,0,4,859416,,0,0,,,,,,,,,,,,,Pictures\white.bmp,3000,2000,Pictures\GreenLeft.bmp,,,,,,,6,1,6,,,,StimulusPr,Pictures\black.bmp,NonCuedStim3,Left
POP_2,27014,1,"<?xml version=""1.0""?>\n<Clock xmlns:dt=""urn:schemas-microsoft-com:datatypes""><Description dt:dt=""string"">E-Prime Primary Realtime Clock</Description><StartTime><Timestamp dt:dt=""int"">0</Timestamp><DateUtc dt:dt=""string"">2014-05-08T22:37:39Z</DateUtc></StartTime><FrequencyChanges><FrequencyChange><Frequency dt:dt=""r8"">2793030000</Frequency><Timestamp dt:dt=""r8"">284143359060337</Timestamp><Current dt:dt=""r8"">0</Current><DateUtc dt:dt=""string"">2014-05-08T22:37:39Z</DateUtc></FrequencyChange></FrequencyChanges></Clock>\n",60.035,1,1419923964,0,,-999999,15,35494,t,66455,101949,5/8/2014,15:37:39,,2,Session2,SessionsList,0,,-999999,17,737993,t,35433,773426,727332,2,1,2,1,,,,,,,,1,1,1,NonCued3,MiniBlocks2,,,773442,,7,1,b,-999999,14,874425,b,341,874766,Green,Congruent,b,White,0,,0,17,867429,,0,0,,,,,,,,,,,,,Pictures\white.bmp,6000,16000,Pictures\black.bmp,,,,,,,7,1,7,,,,StimulusPr,Pictures\GreenRight.bmp,NonCuedStim3,Right
POP_2,27014,1,"<?xml version=""1.0""?>\n<Clock xmlns:dt=""urn:schemas-microsoft-com:datatypes""><Description dt:dt=""string"">E-Prime Primary Realtime Clock</Description><StartTime><Timestamp dt:dt=""int"">0</Timestamp><DateUtc dt:dt=""string"">2014-05-08T22:37:39Z</DateUtc></StartTime><FrequencyChanges><FrequencyChange><Frequency dt:dt=""r8"">2793030000</Frequency><Timestamp dt:dt=""r8"">284143359060337</Timestamp><Current dt:dt=""r8"">0</Current><DateUtc dt:dt=""string"">2014-05-08T22:37:39Z</DateUtc></FrequencyChange></FrequencyChanges></Clock>\n",60.035,1,1419923964,0,,-999999,15,35494,t,66455,101949,5/8/2014,15:37:39,,2,Session2,SessionsList,0,,-999999,17,737993,t,35433,773426,727332,2,1,2,1,,,,,,,,1,1,1,NonCued3,MiniBlocks2,,,773442,,8,1,r,-999999,2,896414,r,464,896878,Red,Incongruent,r,White,0,,0,4,892416,,0,0,,,,,,,,,,,,,Pictures\white.bmp,3000,2000,Pictures\black.bmp,,,,,,,8,1,8,,,,StimulusPr,Pictures\RedRight.bmp,NonCuedStim3,Right
POP_2,27014,1,"<?xml version=""1.0""?>\n<Clock xmlns:dt=""urn:schemas-microsoft-com:datatypes""><Description dt:dt=""string"">E-Prime Primary Realtime Clock</Description><StartTime><Timestamp dt:dt=""int"">0</Timestamp><DateUtc dt:dt=""string"">2014-05-08T22:37:39Z</DateUtc></StartTime><FrequencyChanges><FrequencyChange><Frequency dt:dt=""r8"">2793030000</Frequency><Timestamp dt:dt=""r8"">284143359060337</Timestamp><Current dt:dt=""r8"">0</Current><DateUtc dt:dt=""string"">2014-05-08T22:37:39Z</DateUtc></FrequencyChange></FrequencyChanges></Clock>\n",60.035,1,1419923964,0,,-999999,15,35494,t,66455,101949,5/8/2014,15:37:39,,2,Session2,SessionsList,0,,-999999,17,737993,t,35433,773426,727332,2,1,2,1,,,,,,,,1,1,1,NonCued3,MiniBlocks2,,,773442,,9,1,r,-999999,13,910424,r,525,910949,Green,Congruent,r,White,0,,0,10,900429,,0,0,,,,,,,,,,,,,Pictures\white.bmp,9000,10000,Pictures\GreenLeft.bmp,,,,,,,9,1,9,,,,StimulusPr,Pictures\black.bmp,NonCuedStim3,Left
POP_2,27014,1,"<?xml version=""1.0""?>\n<Clock xmlns:dt=""urn:schemas-microsoft-com:datatypes""><Description dt:dt=""string"">E-Prime Primary Realtime Clock</Description><StartTime><Timestamp dt:dt=""int"">0</Timestamp><DateUtc dt:dt=""string"">2014-05-08T22:37:39Z</DateUtc></StartTime><FrequencyChanges><FrequencyChange><Frequency dt:dt=""r8"">2793030000</Frequency><Timestamp dt:dt=""r8"">284143359060337</Timestamp><Current dt:dt=""r8"">0</Current><DateUtc dt:dt=""string"">2014-05-08T22:37:39Z</DateUtc></FrequencyChange></FrequencyChanges></Clock>\n",60.035,1,1419923964,0,,-999999,15,35494,t,66455,101949,5/8/2014,15:37:39,,2,Session2,SessionsList,0,,-999999,17,737993,t,35433,773426,727332,2,1,2,1,,,,,,,,1,1,1,NonCued3,MiniBlocks2,,,773442,,10,1,r,-999999,3,929415,r,362,929777,Green,Congruent,r,White,0,,0,6,922418,,0,0,,,,,,,,,,,,,Pictures\white.bmp,6000,4000,Pictures\GreenLeft.bmp,,,,,,,10,1,10,,,,StimulusPr,Pictures\black.bmp,NonCuedStim3,Left
POP_2,27014,1,"<?xml version=""1.0""?>\n<Clock xmlns:dt=""urn:schemas-microsoft-com:datatypes""><Description dt:dt=""string"">E-Prime Primary Realtime Clock</Description><StartTime><Timestamp dt:dt=""int"">0</Timestamp><DateUtc dt:dt=""string"">2014-05-08T22:37:39Z</DateUtc></StartTime><FrequencyChanges><FrequencyChange><Frequency dt:dt=""r8"">2793030000</Frequency><Timestamp dt:dt=""r8"">284143359060337</Timestamp><Current dt:dt=""r8"">0</Current><DateUtc dt:dt=""string"">2014-05-08T22:37:39Z</DateUtc></FrequencyChange></FrequencyChanges></Clock>\n",60.035,1,1419923964,0,,-999999,15,35494,t,66455,101949,5/8/2014,15:37:39,,2,Session2,SessionsList,0,,-999999,17,737993,t,35433,773426,727332,2,1,2,2,,,933796,,,,,2,1,2,Cued3,MiniBlocks2,,,,,1,1,b,-999999,10,947422,b,579,948001,White,Congruent,b,Green,0,,0,12,943424,,0,0,,,,,,,1,1,1,,,,Pictures\green.bmp,3000,2000,Pictures\black.bmp,,,,,,,,,,,,,StimulusPr,Pictures\right.bmp,CuedStim3,Right
POP_2,27014,1,"<?xml version=""1.0""?>\n<Clock xmlns:dt=""urn:schemas-microsoft-com:datatypes""><Description dt:dt=""string"">E-Prime Primary Realtime Clock</Description><StartTime><Timestamp dt:dt=""int"">0</Timestamp><DateUtc dt:dt=""string"">2014-05-08T22:37:39Z</DateUtc></StartTime><FrequencyChanges><FrequencyChange><Frequency dt:dt=""r8"">2793030000</Frequency><Timestamp dt:dt=""r8"">284143359060337</Timestamp><Current dt:dt=""r8"">0</Current><DateUtc dt:dt=""string"">2014-05-08T22:37:39Z</DateUtc></FrequencyChange></FrequencyChanges></Clock>\n",60.035,1,1419923964,0,,-999999,15,35494,t,66455,101949,5/8/2014,15:37:39,,2,Session2,SessionsList,0,,-999999,17,737993,t,35433,773426,727332,2,1,2,2,,,933796,,,,,2,1,2,Cued3,MiniBlocks2,,,,,2,1,b,-999999,6,955418,b,423,955841,White,Congruent,b,Green,0,,0,8,951420,,0,0,,,,,,,2,1,2,,,,Pictures\green.bmp,3000,10000,Pictures\black.bmp,,,,,,,,,,,,,StimulusPr,Pictures\right.bmp,CuedStim3,Right
POP_2,27014,1,"<?xml version=""1.0""?>\n<Clock xmlns:dt=""urn:schemas-microsoft-com:datatypes""><Description dt:dt=""string"">E-Prime Primary Realtime Clock</Description><StartTime><Timestamp dt:dt=""int"">0</Timestamp><DateUtc dt:dt=""string"">2014-05-08T22:37:39Z</DateUtc></StartTime><FrequencyChanges><FrequencyChange><Frequency dt:dt=""r8"">2793030000</Frequency><Timestamp dt:dt=""r8"">284143359060337</Timestamp><Current dt:dt=""r8"">0</Current><DateUtc dt:dt=""string"">2014-05-08T22:37:39Z</DateUtc></FrequencyChange></FrequencyChanges></Clock>\n",60.035,1,1419923964,0,,-999999,15,35494,t,66455,101949,5/8/2014,15:37:39,,2,Session2,SessionsList,0,,-999999,17,737993,t,35433,773426,727332,2,1,2,2,,,933796,,,,,2,1,2,Cued3,MiniBlocks2,,,,,3,1,r,-999999,14,977441,r,396,977837,White,Congruent,r,Green,0,,0,17,967429,,0,0,,,,,,,3,1,3,,,,Pictures\green.bmp,9000,2000,Pictures\left.bmp,,,,,,,,,,,,,StimulusPr,Pictures\black.bmp,CuedStim3,Left
POP_2,27014,1,"<?xml version=""1.0""?>\n<Clock xmlns:dt=""urn:schemas-microsoft-com:datatypes""><Description dt:dt=""string"">E-Prime Primary Realtime Clock</Description><StartTime><Timestamp dt:dt=""int"">0</Timestamp><DateUtc dt:dt=""string"">2014-05-08T22:37:39Z</DateUtc></StartTime><FrequencyChanges><FrequencyChange><Frequency dt:dt=""r8"">2793030000</Frequency><Timestamp dt:dt=""r8"">284143359060337</Timestamp><Current dt:dt=""r8"">0</Current><DateUtc dt:dt=""string"">2014-05-08T22:37:39Z</DateUtc></FrequencyChange></FrequencyChanges></Clock>\n",60.035,1,1419923964,0,,-999999,15,35494,t,66455,101949,5/8/2014,15:37:39,,2,Session2,SessionsList,0,,-999999,17,737993,t,35433,773426,727332,2,1,2,2,,,933796,,,,,2,1,2,Cued3,MiniBlocks2,,,,,4,1,r,-999999,7,986419,r,350,986769,White,Congruent,r,Green,0,,0,10,981422,,0,0,,,,,,,4,1,4,,,,Pictures\green.bmp,4000,16000,Pictures\left.bmp,,,,,,,,,,,,,StimulusPr,Pictures\black.bmp,CuedStim3,Left
POP_2,27014,1,"<?xml version=""1.0""?>\n<Clock xmlns:dt=""urn:schemas-microsoft-com:datatypes""><Description dt:dt=""string"">E-Prime Primary Realtime Clock</Description><StartTime><Timestamp dt:dt=""int"">0</Timestamp><DateUtc dt:dt=""string"">2014-05-08T22:37:39Z</DateUtc></StartTime><FrequencyChanges><FrequencyChange><Frequency dt:dt=""r8"">2793030000</Frequency><Timestamp dt:dt=""r8"">284143359060337</Timestamp><Current dt:dt=""r8"">0</Current><DateUtc dt:dt=""string"">2014-05-08T22:37:39Z</DateUtc></FrequencyChange></FrequencyChanges></Clock>\n",60.035,1,1419923964,0,,-999999,15,35494,t,66455,101949,5/8/2014,15:37:39,,2,Session2,SessionsList,0,,-999999,17,737993,t,35433,773426,727332,2,1,2,2,,,933796,,,,,2,1,2,Cued3,MiniBlocks2,,,,,5,1,r,-999999,15,1008442,r,547,1008989,White,Incongruent,r,Red,0,,0,11,1004427,,0,0,,,,,,,5,1,5,,,,Pictures\red.bmp,3000,4000,Pictures\black.bmp,,,,,,,,,,,,,StimulusPr,Pictures\right.bmp,CuedStim3,Right
POP_2,27014,1,"<?xml version=""1.0""?>\n<Clock xmlns:dt=""urn:schemas-microsoft-com:datatypes""><Description dt:dt=""string"">E-Prime Primary Realtime Clock</Description><StartTime><Timestamp dt:dt=""int"">0</Timestamp><DateUtc dt:dt=""string"">2014-05-08T22:37:39Z</DateUtc></StartTime><FrequencyChanges><FrequencyChange><Frequency dt:dt=""r8"">2793030000</Frequency><Timestamp dt:dt=""r8"">284143359060337</Timestamp><Current dt:dt=""r8"">0</Current><DateUtc dt:dt=""string"">2014-05-08T22:37:39Z</DateUtc></FrequencyChange></FrequencyChanges></Clock>\n",60.035,1,1419923964,0,,-999999,15,35494,t,66455,101949,5/8/2014,15:37:39,,2,Session2,SessionsList,0,,-999999,17,737993,t,35433,773426,727332,2,1,2,2,,,933796,,,,,2,1,2,Cued3,MiniBlocks2,,,,,6,1,b,-999999,7,1021419,b,252,1021671,White,Congruent,b,Green,0,,0,12,1014439,,0,0,,,,,,,6,1,6,,,,Pictures\green.bmp,6000,4000,Pictures\black.bmp,,,,,,,,,,,,,StimulusPr,Pictures\right.bmp,CuedStim3,Right
POP_2,27014,1,"<?xml version=""1.0""?>\n<Clock xmlns:dt=""urn:schemas-microsoft-com:datatypes""><Description dt:dt=""string"">E-Prime Primary Realtime Clock</Description><StartTime><Timestamp dt:dt=""int"">0</Timestamp><DateUtc dt:dt=""string"">2014-05-08T22:37:39Z</DateUtc></StartTime><FrequencyChanges><FrequencyChange><Frequency dt:dt=""r8"">2793030000</Frequency><Timestamp dt:dt=""r8"">284143359060337</Timestamp><Current dt:dt=""r8"">0</Current><DateUtc dt:dt=""string"">2014-05-08T22:37:39Z</DateUtc></FrequencyChange></FrequencyChanges></Clock>\n",60.035,1,1419923964,0,,-999999,15,35494,t,66455,101949,5/8/2014,15:37:39,,2,Session2,SessionsList,0,,-999999,17,737993,t,35433,773426,727332,2,1,2,2,,,933796,,,,,2,1,2,Cued3,MiniBlocks2,,,,,7,1,r,-999999,3,1032430,r,352,1032782,White,Congruent,r,Green,0,,0,5,1027432,,0,0,,,,,,,7,1,7,,,,Pictures\green.bmp,4000,16000,Pictures\left.bmp,,,,,,,,,,,,,StimulusPr,Pictures\black.bmp,CuedStim3,Left
POP_2,27014,1,"<?xml version=""1.0""?>\n<Clock xmlns:dt=""urn:schemas-microsoft-com:datatypes""><Description dt:dt=""string"">E-Prime Primary Realtime Clock</Description><StartTime><Timestamp dt:dt=""int"">0</Timestamp><DateUtc dt:dt=""string"">2014-05-08T22:37:39Z</DateUtc></StartTime><FrequencyChanges><FrequencyChange><Frequency dt:dt=""r8"">2793030000</Frequency><Timestamp dt:dt=""r8"">284143359060337</Timestamp><Current dt:dt=""r8"">0</Current><DateUtc dt:dt=""string"">2014-05-08T22:37:39Z</DateUtc></FrequencyChange></FrequencyChanges></Clock>\n",60.035,1,1419923964,0,,-999999,15,35494,t,66455,101949,5/8/2014,15:37:39,,2,Session2,SessionsList,0,,-999999,17,737993,t,35433,773426,727332,2,1,2,2,,,933796,,,,,2,1,2,Cued3,MiniBlocks2,,,,,8,1,b,-999999,17,1054435,b,474,1054909,White,Incongruent,b,Red,0,,0,10,1050421,,0,0,,,,,,,8,1,8,,,,Pictures\red.bmp,3000,2000,Pictures\left.bmp,,,,,,,,,,,,,StimulusPr,Pictures\black.bmp,CuedStim3,Left
POP_2,27014,1,"<?xml version=""1.0""?>\n<Clock xmlns:dt=""urn:schemas-microsoft-com:datatypes""><Description dt:dt=""string"">E-Prime Primary Realtime Clock</Description><StartTime><Timestamp dt:dt=""int"">0</Timestamp><DateUtc dt:dt=""string"">2014-05-08T22:37:39Z</DateUtc></StartTime><FrequencyChanges><FrequencyChange><Frequency dt:dt=""r8"">2793030000</Frequency><Timestamp dt:dt=""r8"">284143359060337</Timestamp><Current dt:dt=""r8"">0</Current><DateUtc dt:dt=""string"">2014-05-08T22:37:39Z</DateUtc></FrequencyChange></FrequencyChanges></Clock>\n",60.035,1,1419923964,0,,-999999,15,35494,t,66455,101949,5/8/2014,15:37:39,,2,Session2,SessionsList,0,,-999999,17,737993,t,35433,773426,727332,2,1,2,2,,,933796,,,,,2,1,2,Cued3,MiniBlocks2,,,,,9,1,r,-999999,4,1062415,r,435,1062850,White,Congruent,r,Green,0,,0,6,1058417,,0,0,,,,,,,9,1,9,,,,Pictures\green.bmp,3000,2000,Pictures\left.bmp,,,,,,,,,,,,,StimulusPr,Pictures\black.bmp,CuedStim3,Left
POP_2,27014,1,"<?xml version=""1.0""?>\n<Clock xmlns:dt=""urn:schemas-microsoft-com:datatypes""><Description dt:dt=""string"">E-Prime Primary Realtime Clock</Description><StartTime><Timestamp dt:dt=""int"">0</Timestamp><DateUtc dt:dt=""string"">2014-05-08T22:37:39Z</DateUtc></StartTime><FrequencyChanges><FrequencyChange><Frequency dt:dt=""r8"">2793030000</Frequency><Timestamp dt:dt=""r8"">284143359060337</Timestamp><Current dt:dt=""r8"">0</Current><DateUtc dt:dt=""string"">2014-05-08T22:37:39Z</DateUtc></FrequencyChange></FrequencyChanges></Clock>\n",60.035,1,1419923964,0,,-999999,15,35494,t,66455,101949,5/8/2014,15:37:39,,2,Session2,SessionsList,0,,-999999,17,737993,t,35433,773426,727332,2,1,2,2,,,933796,,,,,2,1,2,Cued3,MiniBlocks2,,,,,10,1,b,-999999,13,1076424,b,337,1076761,White,Congruent,b,Green,0,,0,13,1066429,,0,0,,,,,,,10,1,10,,,,Pictures\green.bmp,9000,10000,Pictures\black.bmp,,,,,,,,,,,,,StimulusPr,Pictures\right.bmp,CuedStim3,Right
POP_2,27014,1,"<?xml version=""1.0""?>\n<Clock xmlns:dt=""urn:schemas-microsoft-com:datatypes""><Description dt:dt=""string"">E-Prime Primary Realtime Clock</Description><StartTime><Timestamp dt:dt=""int"">0</Timestamp><DateUtc dt:dt=""string"">2014-05-08T22:37:39Z</DateUtc></StartTime><FrequencyChanges><FrequencyChange><Frequency dt:dt=""r8"">2793030000</Frequency><Timestamp dt:dt=""r8"">284143359060337</Timestamp><Current dt:dt=""r8"">0</Current><DateUtc dt:dt=""string"">2014-05-08T22:37:39Z</DateUtc></FrequencyChange></FrequencyChanges></Clock>\n",60.035,1,1419923964,0,,-999999,15,35494,t,66455,101949,5/8/2014,15:37:39,,2,Session2,SessionsList,0,,-999999,17,737993,t,35433,773426,727332,2,1,2,3,,,,1086786,,,,3,1,3,Cued4,MiniBlocks2,,,,,1,1,b,-999999,17,1103428,b,273,1103701,White,Congruent,b,Green,0,,0,3,1096414,,0,0,,,,,,,,,,1,1,1,Pictures\green.bmp,6000,2000,Pictures\black.bmp,,,,,,,,,,,,,StimulusPr,Pictures\right.bmp,CuedStim4,Right
POP_2,27014,1,"<?xml version=""1.0""?>\n<Clock xmlns:dt=""urn:schemas-microsoft-com:datatypes""><Description dt:dt=""string"">E-Prime Primary Realtime Clock</Description><StartTime><Timestamp dt:dt=""int"">0</Timestamp><DateUtc dt:dt=""string"">2014-05-08T22:37:39Z</DateUtc></StartTime><FrequencyChanges><FrequencyChange><Frequency dt:dt=""r8"">2793030000</Frequency><Timestamp dt:dt=""r8"">284143359060337</Timestamp><Current dt:dt=""r8"">0</Current><DateUtc dt:dt=""string"">2014-05-08T22:37:39Z</DateUtc></FrequencyChange></FrequencyChanges></Clock>\n",60.035,1,1419923964,0,,-999999,15,35494,t,66455,101949,5/8/2014,15:37:39,,2,Session2,SessionsList,0,,-999999,17,737993,t,35433,773426,727332,2,1,2,3,,,,1086786,,,,3,1,3,Cued4,MiniBlocks2,,,,,2,1,r,-999999,10,1117421,r,429,1117850,White,Incongruent,r,Red,0,,0,15,1107426,,0,0,,,,,,,,,,2,1,2,Pictures\red.bmp,9000,2000,Pictures\black.bmp,,,,,,,,,,,,,StimulusPr,Pictures\right.bmp,CuedStim4,Right
POP_2,27014,1,"<?xml version=""1.0""?>\n<Clock xmlns:dt=""urn:schemas-microsoft-com:datatypes""><Description dt:dt=""string"">E-Prime Primary Realtime Clock</Description><StartTime><Timestamp dt:dt=""int"">0</Timestamp><DateUtc dt:dt=""string"">2014-05-08T22:37:39Z</DateUtc></StartTime><FrequencyChanges><FrequencyChange><Frequency dt:dt=""r8"">2793030000</Frequency><Timestamp dt:dt=""r8"">284143359060337</Timestamp><Current dt:dt=""r8"">0</Current><DateUtc dt:dt=""string"">2014-05-08T22:37:39Z</DateUtc></FrequencyChange></FrequencyChanges></Clock>\n",60.035,1,1419923964,0,,-999999,15,35494,t,66455,101949,5/8/2014,15:37:39,,2,Session2,SessionsList,0,,-999999,17,737993,t,35433,773426,727332,2,1,2,3,,,,1086786,,,,3,1,3,Cued4,MiniBlocks2,,,,,3,1,b,-999999,6,1125417,b,278,1125695,White,Congruent,b,Green,0,,0,8,1121419,,0,0,,,,,,,,,,3,1,3,Pictures\green.bmp,3000,4000,Pictures\black.bmp,,,,,,,,,,,,,StimulusPr,Pictures\right.bmp,CuedStim4,Right
POP_2,27014,1,"<?xml version=""1.0""?>\n<Clock xmlns:dt=""urn:schemas-microsoft-com:datatypes""><Description dt:dt=""string"">E-Prime Primary Realtime Clock</Description><StartTime><Timestamp dt:dt=""int"">0</Timestamp><DateUtc dt:dt=""string"">2014-05-08T22:37:39Z</DateUtc></StartTime><FrequencyChanges><FrequencyChange><Frequency dt:dt=""r8"">2793030000</Frequency><Timestamp dt:dt=""r8"">284143359060337</Timestamp><Current dt:dt=""r8"">0</Current><DateUtc dt:dt=""string"">2014-05-08T22:37:39Z</DateUtc></FrequencyChange></FrequencyChanges></Clock>\n",60.035,1,1419923964,0,,-999999,15,35494,t,66455,101949,5/8/2014,15:37:39,,2,Session2,SessionsList,0,,-999999,17,737993,t,35433,773426,727332,2,1,2,3,,,,1086786,,,,3,1,3,Cued4,MiniBlocks2,,,,,4,1,r,-999999,17,1135428,r,509,1135937,White,Congruent,r,Green,0,,0,3,1131414,,0,0,,,,,,,,,,4,1,4,Pictures\green.bmp,3000,4000,Pictures\left.bmp,,,,,,,,,,,,,StimulusPr,Pictures\black.bmp,CuedStim4,Left
POP_2,27014,1,"<?xml version=""1.0""?>\n<Clock xmlns:dt=""urn:schemas-microsoft-com:datatypes""><Description dt:dt=""string"">E-Prime Primary Realtime Clock</Description><StartTime><Timestamp dt:dt=""int"">0</Timestamp><DateUtc dt:dt=""string"">2014-05-08T22:37:39Z</DateUtc></StartTime><FrequencyChanges><FrequencyChange><Frequency dt:dt=""r8"">2793030000</Frequency><Timestamp dt:dt=""r8"">284143359060337</Timestamp><Current dt:dt=""r8"">0</Current><DateUtc dt:dt=""string"">2014-05-08T22:37:39Z</DateUtc></FrequencyChange></FrequencyChanges></Clock>\n",60.035,1,1419923964,0,,-999999,15,35494,t,66455,101949,5/8/2014,15:37:39,,2,Session2,SessionsList,0,,-999999,17,737993,t,35433,773426,727332,2,1,2,3,,,,1086786,,,,3,1,3,Cued4,MiniBlocks2,,,,,5,0,b,-999999,12,1146423,r,424,1146847,White,Incongruent,b,Red,0,,0,14,1141425,,0,0,,,,,,,,,,5,1,5,Pictures\red.bmp,4000,16000,Pictures\left.bmp,,,,,,,,,,,,,StimulusPr,Pictures\black.bmp,CuedStim4,Left
POP_2,27014,1,"<?xml version=""1.0""?>\n<Clock xmlns:dt=""urn:schemas-microsoft-com:datatypes""><Description dt:dt=""string"">E-Prime Primary Realtime Clock</Description><StartTime><Timestamp dt:dt=""int"">0</Timestamp><DateUtc dt:dt=""string"">2014-05-08T22:37:39Z</DateUtc></StartTime><FrequencyChanges><FrequencyChange><Frequency dt:dt=""r8"">2793030000</Frequency><Timestamp dt:dt=""r8"">284143359060337</Timestamp><Current dt:dt=""r8"">0</Current><DateUtc dt:dt=""string"">2014-05-08T22:37:39Z</DateUtc></FrequencyChange></FrequencyChanges></Clock>\n",60.035,1,1419923964,0,,-999999,15,35494,t,66455,101949,5/8/2014,15:37:39,,2,Session2,SessionsList,0,,-999999,17,737993,t,35433,773426,727332,2,1,2,3,,,,1086786,,,,3,1,3,Cued4,MiniBlocks2,,,,,6,1,b,-999999,18,1168429,b,347,1168776,White,Congruent,b,Green,0,,0,3,1164414,,0,0,,,,,,,,,,6,1,6,Pictures\green.bmp,3000,2000,Pictures\black.bmp,,,,,,,,,,,,,StimulusPr,Pictures\right.bmp,CuedStim4,Right
POP_2,27014,1,"<?xml version=""1.0""?>\n<Clock xmlns:dt=""urn:schemas-microsoft-com:datatypes""><Description dt:dt=""string"">E-Prime Primary Realtime Clock</Description><StartTime><Timestamp dt:dt=""int"">0</Timestamp><DateUtc dt:dt=""string"">2014-05-08T22:37:39Z</DateUtc></StartTime><FrequencyChanges><FrequencyChange><Frequency dt:dt=""r8"">2793030000</Frequency><Timestamp dt:dt=""r8"">284143359060337</Timestamp><Current dt:dt=""r8"">0</Current><DateUtc dt:dt=""string"">2014-05-08T22:37:39Z</DateUtc></FrequencyChange></FrequencyChanges></Clock>\n",60.035,1,1419923964,0,,-999999,15,35494,t,66455,101949,5/8/2014,15:37:39,,2,Session2,SessionsList,0,,-999999,17,737993,t,35433,773426,727332,2,1,2,3,,,,1086786,,,,3,1,3,Cued4,MiniBlocks2,,,,,7,1,b,-999999,12,1182438,b,373,1182811,White,Congruent,b,Green,0,,0,16,1172427,,0,0,,,,,,,,,,7,1,7,Pictures\green.bmp,9000,10000,Pictures\black.bmp,,,,,,,,,,,,,StimulusPr,Pictures\right.bmp,CuedStim4,Right
POP_2,27014,1,"<?xml version=""1.0""?>\n<Clock xmlns:dt=""urn:schemas-microsoft-com:datatypes""><Description dt:dt=""string"">E-Prime Primary Realtime Clock</Description><StartTime><Timestamp dt:dt=""int"">0</Timestamp><DateUtc dt:dt=""string"">2014-05-08T22:37:39Z</DateUtc></StartTime><FrequencyChanges><FrequencyChange><Frequency dt:dt=""r8"">2793030000</Frequency><Timestamp dt:dt=""r8"">284143359060337</Timestamp><Current dt:dt=""r8"">0</Current><DateUtc dt:dt=""string"">2014-05-08T22:37:39Z</DateUtc></FrequencyChange></FrequencyChanges></Clock>\n",60.035,1,1419923964,0,,-999999,15,35494,t,66455,101949,5/8/2014,15:37:39,,2,Session2,SessionsList,0,,-999999,17,737993,t,35433,773426,727332,2,1,2,3,,,,1086786,,,,3,1,3,Cued4,MiniBlocks2,,,,,8,0,b,-999999,18,1201429,r,654,1202083,White,Incongruent,b,Red,0,,0,5,1194416,,0,0,,,,,,,,,,8,1,8,Pictures\red.bmp,6000,10000,Pictures\left.bmp,,,,,,,,,,,,,StimulusPr,Pictures\black.bmp,CuedStim4,Left
POP_2,27014,1,"<?xml version=""1.0""?>\n<Clock xmlns:dt=""urn:schemas-microsoft-com:datatypes""><Description dt:dt=""string"">E-Prime Primary Realtime Clock</Description><StartTime><Timestamp dt:dt=""int"">0</Timestamp><DateUtc dt:dt=""string"">2014-05-08T22:37:39Z</DateUtc></StartTime><FrequencyChanges><FrequencyChange><Frequency dt:dt=""r8"">2793030000</Frequency><Timestamp dt:dt=""r8"">284143359060337</Timestamp><Current dt:dt=""r8"">0</Current><DateUtc dt:dt=""string"">2014-05-08T22:37:39Z</DateUtc></FrequencyChange></FrequencyChanges></Clock>\n",60.035,1,1419923964,0,,-999999,15,35494,t,66455,101949,5/8/2014,15:37:39,,2,Session2,SessionsList,0,,-999999,17,737993,t,35433,773426,727332,2,1,2,3,,,,1086786,,,,3,1,3,Cued4,MiniBlocks2,,,,,9,1,r,-999999,9,1220436,r,700,1221136,White,Congruent,r,Green,0,,0,12,1213423,,0,0,,,,,,,,,,9,1,9,Pictures\green.bmp,6000,16000,Pictures\left.bmp,,,,,,,,,,,,,StimulusPr,Pictures\black.bmp,CuedStim4,Left
POP_2,27014,1,"<?xml version=""1.0""?>\n<Clock xmlns:dt=""urn:schemas-microsoft-com:datatypes""><Description dt:dt=""string"">E-Prime Primary Realtime Clock</Description><StartTime><Timestamp dt:dt=""int"">0</Timestamp><DateUtc dt:dt=""string"">2014-05-08T22:37:39Z</DateUtc></StartTime><FrequencyChanges><FrequencyChange><Frequency dt:dt=""r8"">2793030000</Frequency><Timestamp dt:dt=""r8"">284143359060337</Timestamp><Current dt:dt=""r8"">0</Current><DateUtc dt:dt=""string"">2014-05-08T22:37:39Z</DateUtc></FrequencyChange></FrequencyChanges></Clock>\n",60.035,1,1419923964,0,,-999999,15,35494,t,66455,101949,5/8/2014,15:37:39,,2,Session2,SessionsList,0,,-999999,17,737993,t,35433,773426,727332,2,1,2,3,,,,1086786,,,,3,1,3,Cued4,MiniBlocks2,,,,,10,1,r,-999999,13,1243424,r,483,1243907,White,Congruent,r,Green,0,,0,16,1238427,,0,0,,,,,,,,,,10,1,10,Pictures\green.bmp,4000,2000,Pictures\left.bmp,,,,,,,,,,,,,StimulusPr,Pictures\black.bmp,CuedStim4,Left
POP_2,27014,1,"<?xml version=""1.0""?>\n<Clock xmlns:dt=""urn:schemas-microsoft-com:datatypes""><Description dt:dt=""string"">E-Prime Primary Realtime Clock</Description><StartTime><Timestamp dt:dt=""int"">0</Timestamp><DateUtc dt:dt=""string"">2014-05-08T22:37:39Z</DateUtc></StartTime><FrequencyChanges><FrequencyChange><Frequency dt:dt=""r8"">2793030000</Frequency><Timestamp dt:dt=""r8"">284143359060337</Timestamp><Current dt:dt=""r8"">0</Current><DateUtc dt:dt=""string"">2014-05-08T22:37:39Z</DateUtc></FrequencyChange></FrequencyChanges></Clock>\n",60.035,1,1419923964,0,,-999999,15,35494,t,66455,101949,5/8/2014,15:37:39,,2,Session2,SessionsList,0,,-999999,17,737993,t,35433,773426,727332,2,1,2,4,,,,,,,,4,1,4,NonCued4,MiniBlocks2,,,,1245923,1,1,r,-999999,5,1260416,r,552,1260968,Green,Congruent,r,White,0,,0,7,1256418,,0,0,,,,,,,,,,,,,Pictures\white.bmp,3000,2000,Pictures\GreenLeft.bmp,,,,,,,,,,1,1,1,StimulusPr,Pictures\black.bmp,NonCuedStim4,Left
POP_2,27014,1,"<?xml version=""1.0""?>\n<Clock xmlns:dt=""urn:schemas-microsoft-com:datatypes""><Description dt:dt=""string"">E-Prime Primary Realtime Clock</Description><StartTime><Timestamp dt:dt=""int"">0</Timestamp><DateUtc dt:dt=""string"">2014-05-08T22:37:39Z</DateUtc></StartTime><FrequencyChanges><FrequencyChange><Frequency dt:dt=""r8"">2793030000</Frequency><Timestamp dt:dt=""r8"">284143359060337</Timestamp><Current dt:dt=""r8"">0</Current><DateUtc dt:dt=""string"">2014-05-08T22:37:39Z</DateUtc></FrequencyChange></FrequencyChanges></Clock>\n",60.035,1,1419923964,0,,-999999,15,35494,t,66455,101949,5/8/2014,15:37:39,,2,Session2,SessionsList,0,,-999999,17,737993,t,35433,773426,727332,2,1,2,4,,,,,,,,4,1,4,NonCued4,MiniBlocks2,,,,1245923,2,1,r,-999999,17,1269428,r,489,1269917,Green,Congruent,r,White,0,,0,3,1264414,,0,0,,,,,,,,,,,,,Pictures\white.bmp,4000,2000,Pictures\GreenLeft.bmp,,,,,,,,,,2,1,2,StimulusPr,Pictures\black.bmp,NonCuedStim4,Left
POP_2,27014,1,"<?xml version=""1.0""?>\n<Clock xmlns:dt=""urn:schemas-microsoft-com:datatypes""><Description dt:dt=""string"">E-Prime Primary Realtime Clock</Description><StartTime><Timestamp dt:dt=""int"">0</Timestamp><DateUtc dt:dt=""string"">2014-05-08T22:37:39Z</DateUtc></StartTime><FrequencyChanges><FrequencyChange><Frequency dt:dt=""r8"">2793030000</Frequency><Timestamp dt:dt=""r8"">284143359060337</Timestamp><Current dt:dt=""r8"">0</Current><DateUtc dt:dt=""string"">2014-05-08T22:37:39Z</DateUtc></FrequencyChange></FrequencyChanges></Clock>\n",60.035,1,1419923964,0,,-999999,15,35494,t,66455,101949,5/8/2014,15:37:39,,2,Session2,SessionsList,0,,-999999,17,737993,t,35433,773426,727332,2,1,2,4,,,,,,,,4,1,4,NonCued4,MiniBlocks2,,,,1245923,3,1,r,-999999,13,1278424,r,305,1278729,Red,Incongruent,r,White,0,,0,15,1273426,,0,0,,,,,,,,,,,,,Pictures\white.bmp,4000,2000,Pictures\black.bmp,,,,,,,,,,3,1,3,StimulusPr,Pictures\RedRight.bmp,NonCuedStim4,Right
POP_2,27014,1,"<?xml version=""1.0""?>\n<Clock xmlns:dt=""urn:schemas-microsoft-com:datatypes""><Description dt:dt=""string"">E-Prime Primary Realtime Clock</Description><StartTime><Timestamp dt:dt=""int"">0</Timestamp><DateUtc dt:dt=""string"">2014-05-08T22:37:39Z</DateUtc></StartTime><FrequencyChanges><FrequencyChange><Frequency dt:dt=""r8"">2793030000</Frequency><Timestamp dt:dt=""r8"">284143359060337</Timestamp><Current dt:dt=""r8"">0</Current><DateUtc dt:dt=""string"">2014-05-08T22:37:39Z</DateUtc></FrequencyChange></FrequencyChanges></Clock>\n",60.035,1,1419923964,0,,-999999,15,35494,t,66455,101949,5/8/2014,15:37:39,,2,Session2,SessionsList,0,,-999999,17,737993,t,35433,773426,727332,2,1,2,4,,,,,,,,4,1,4,NonCued4,MiniBlocks2,,,,1245923,4,0,b,-999999,9,1286420,r,404,1286824,Green,Congruent,b,White,0,,0,11,1282422,,0,0,,,,,,,,,,,,,Pictures\white.bmp,3000,16000,Pictures\black.bmp,,,,,,,,,,4,1,4,StimulusPr,Pictures\GreenRight.bmp,NonCuedStim4,Right
POP_2,27014,1,"<?xml version=""1.0""?>\n<Clock xmlns:dt=""urn:schemas-microsoft-com:datatypes""><Description dt:dt=""string"">E-Prime Primary Realtime Clock</Description><StartTime><Timestamp dt:dt=""int"">0</Timestamp><DateUtc dt:dt=""string"">2014-05-08T22:37:39Z</DateUtc></StartTime><FrequencyChanges><FrequencyChange><Frequency dt:dt=""r8"">2793030000</Frequency><Timestamp dt:dt=""r8"">284143359060337</Timestamp><Current dt:dt=""r8"">0</Current><DateUtc dt:dt=""string"">2014-05-08T22:37:39Z</DateUtc></FrequencyChange></FrequencyChanges></Clock>\n",60.035,1,1419923964,0,,-999999,15,35494,t,66455,101949,5/8/2014,15:37:39,,2,Session2,SessionsList,0,,-999999,17,737993,t,35433,773426,727332,2,1,2,4,,,,,,,,4,1,4,NonCued4,MiniBlocks2,,,,1245923,5,1,r,-999999,11,1314439,r,486,1314925,Green,Congruent,r,White,0,,0,16,1304427,,0,0,,,,,,,,,,,,,Pictures\white.bmp,9000,10000,Pictures\GreenLeft.bmp,,,,,,,,,,5,1,5,StimulusPr,Pictures\black.bmp,NonCuedStim4,Left
POP_2,27014,1,"<?xml version=""1.0""?>\n<Clock xmlns:dt=""urn:schemas-microsoft-com:datatypes""><Description dt:dt=""string"">E-Prime Primary Realtime Clock</Description><StartTime><Timestamp dt:dt=""int"">0</Timestamp><DateUtc dt:dt=""string"">2014-05-08T22:37:39Z</DateUtc></StartTime><FrequencyChanges><FrequencyChange><Frequency dt:dt=""r8"">2793030000</Frequency><Timestamp dt:dt=""r8"">284143359060337</Timestamp><Current dt:dt=""r8"">0</Current><DateUtc dt:dt=""string"">2014-05-08T22:37:39Z</DateUtc></FrequencyChange></FrequencyChanges></Clock>\n",60.035,1,1419923964,0,,-999999,15,35494,t,66455,101949,5/8/2014,15:37:39,,2,Session2,SessionsList,0,,-999999,17,737993,t,35433,773426,727332,2,1,2,4,,,,,,,,4,1,4,NonCued4,MiniBlocks2,,,,1245923,6,1,b,-999999,3,1330414,b,412,1330826,Green,Congruent,b,White,0,,0,4,1326433,,0,0,,,,,,,,,,,,,Pictures\white.bmp,3000,16000,Pictures\black.bmp,,,,,,,,,,6,1,6,StimulusPr,Pictures\GreenRight.bmp,NonCuedStim4,Right
POP_2,27014,1,"<?xml version=""1.0""?>\n<Clock xmlns:dt=""urn:schemas-microsoft-com:datatypes""><Description dt:dt=""string"">E-Prime Primary Realtime Clock</Description><StartTime><Timestamp dt:dt=""int"">0</Timestamp><DateUtc dt:dt=""string"">2014-05-08T22:37:39Z</DateUtc></StartTime><FrequencyChanges><FrequencyChange><Frequency dt:dt=""r8"">2793030000</Frequency><Timestamp dt:dt=""r8"">284143359060337</Timestamp><Current dt:dt=""r8"">0</Current><DateUtc dt:dt=""string"">2014-05-08T22:37:39Z</DateUtc></FrequencyChange></FrequencyChanges></Clock>\n",60.035,1,1419923964,0,,-999999,15,35494,t,66455,101949,5/8/2014,15:37:39,,2,Session2,SessionsList,0,,-999999,17,737993,t,35433,773426,727332,2,1,2,4,,,,,,,,4,1,4,NonCued4,MiniBlocks2,,,,1245923,7,1,b,-999999,9,1352420,b,386,1352806,Red,Incongruent,b,White,0,,0,11,1348422,,0,0,,,,,,,,,,,,,Pictures\white.bmp,3000,16000,Pictures\RedLeft.bmp,,,,,,,,,,7,1,7,StimulusPr,Pictures\black.bmp,NonCuedStim4,Left
POP_2,27014,1,"<?xml version=""1.0""?>\n<Clock xmlns:dt=""urn:schemas-microsoft-com:datatypes""><Description dt:dt=""string"">E-Prime Primary Realtime Clock</Description><StartTime><Timestamp dt:dt=""int"">0</Timestamp><DateUtc dt:dt=""string"">2014-05-08T22:37:39Z</DateUtc></StartTime><FrequencyChanges><FrequencyChange><Frequency dt:dt=""r8"">2793030000</Frequency><Timestamp dt:dt=""r8"">284143359060337</Timestamp><Current dt:dt=""r8"">0</Current><DateUtc dt:dt=""string"">2014-05-08T22:37:39Z</DateUtc></FrequencyChange></FrequencyChanges></Clock>\n",60.035,1,1419923964,0,,-999999,15,35494,t,66455,101949,5/8/2014,15:37:39,,2,Session2,SessionsList,0,,-999999,17,737993,t,35433,773426,727332,2,1,2,4,,,,,,,,4,1,4,NonCued4,MiniBlocks2,,,,1245923,8,1,r,-999999,14,1374442,r,405,1374847,Green,Congruent,r,White,0,,0,16,1370444,,0,0,,,,,,,,,,,,,Pictures\white.bmp,3000,2000,Pictures\GreenLeft.bmp,,,,,,,,,,8,1,8,StimulusPr,Pictures\black.bmp,NonCuedStim4,Left
POP_2,27014,1,"<?xml version=""1.0""?>\n<Clock xmlns:dt=""urn:schemas-microsoft-com:datatypes""><Description dt:dt=""string"">E-Prime Primary Realtime Clock</Description><StartTime><Timestamp dt:dt=""int"">0</Timestamp><DateUtc dt:dt=""string"">2014-05-08T22:37:39Z</DateUtc></StartTime><FrequencyChanges><FrequencyChange><Frequency dt:dt=""r8"">2793030000</Frequency><Timestamp dt:dt=""r8"">284143359060337</Timestamp><Current dt:dt=""r8"">0</Current><DateUtc dt:dt=""string"">2014-05-08T22:37:39Z</DateUtc></FrequencyChange></FrequencyChanges></Clock>\n",60.035,1,1419923964,0,,-999999,15,35494,t,66455,101949,5/8/2014,15:37:39,,2,Session2,SessionsList,0,,-999999,17,737993,t,35433,773426,727332,2,1,2,4,,,,,,,,4,1,4,NonCued4,MiniBlocks2,,,,1245923,9,1,b,-999999,18,1385437,b,373,1385810,Green,Congruent,b,White,0,,0,4,1378424,,0,0,,,,,,,,,,,,,Pictures\white.bmp,6000,2000,Pictures\black.bmp,,,,,,,,,,9,1,9,StimulusPr,Pictures\GreenRight.bmp,NonCuedStim4,Right
POP_2,27014,1,"<?xml version=""1.0""?>\n<Clock xmlns:dt=""urn:schemas-microsoft-com:datatypes""><Description dt:dt=""string"">E-Prime Primary Realtime Clock</Description><StartTime><Timestamp dt:dt=""int"">0</Timestamp><DateUtc dt:dt=""string"">2014-05-08T22:37:39Z</DateUtc></StartTime><FrequencyChanges><FrequencyChange><Frequency dt:dt=""r8"">2793030000</Frequency><Timestamp dt:dt=""r8"">284143359060337</Timestamp><Current dt:dt=""r8"">0</Current><DateUtc dt:dt=""string"">2014-05-08T22:37:39Z</DateUtc></FrequencyChange></FrequencyChanges></Clock>\n",60.035,1,1419923964,0,,-999999,15,35494,t,66455,101949,5/8/2014,15:37:39,,2,Session2,SessionsList,0,,-999999,17,737993,t,35433,773426,727332,2,1,2,4,,,,,,,,4,1,4,NonCued4,MiniBlocks2,,,,1245923,10,1,b,-999999,5,1394416,b,567,1394983,Green,Congruent,b,White,0,,0,7,1389418,,0,0,,,,,,,,,,,,,Pictures\white.bmp,4000,4000,Pictures\black.bmp,,,,,,,,,,10,1,10,StimulusPr,Pictures\GreenRight.bmp,NonCuedStim4,Right
