ExperimentName,Subject,Session,Clock.Information,Display.RefreshRate,Group,RandomSeed,Session1Onset.ACC,Session1Onset.CRESP,Session1Onset.DurationError,Session1Onset.OnsetDelay,Session1Onset.OnsetTime,Session1Onset.RESP,Session1Onset.RT,Session1Onset.RTTime,SessionDate,SessionTime,SessionTimeUtc,Block,Procedure[Block],Running[Block],Session2Onset.ACC,Session2Onset.CRESP,Session2Onset.DurationError,Session2Onset.OnsetDelay,Session2Onset.OnsetTime,Session2Onset.RESP,Session2Onset.RT,Session2Onset.RTTime,SessionBreak.OnsetTime,SessionsList,SessionsList.Cycle,SessionsList.Sample,Trial,CuedPrompt1.OnsetTime,CuedPrompt2.OnsetTime,CuedPrompt3.OnsetTime,CuedPrompt4.OnsetTime,MiniBlocks1,MiniBlocks1.Cycle,MiniBlocks1.Sample,MiniBlocks2,MiniBlocks2.Cycle,MiniBlocks2.Sample,Procedure[Trial],Running[Trial],UncuedPrompt1.OnsetTime,UncuedPrompt2.OnsetTime,UncuedPrompt3.OnsetTime,UncuedPrompt4.OnsetTime,SubTrial,Arrow1.ACC,Arrow1.CRESP,Arrow1.DurationError,Arrow1.OnsetDelay,Arrow1.OnsetTime,Arrow1.RESP,Arrow1.RT,Arrow1.RTTime,ArrowColor,Congruence,CorrectResp,Cue,Cue.ACC,Cue.CRESP,Cue.DurationError,Cue.OnsetDelay,Cue.OnsetTime,Cue.RESP,Cue.RT,Cue.RTTime,CuedStim1,CuedStim1.Cycle,CuedStim1.Sample,CuedStim2,CuedStim2.Cycle,CuedStim2.Sample,CuedStim3,CuedStim3.Cycle,CuedStim3.Sample,CuedStim4,CuedStim4.Cycle,CuedStim4.Sample,CueImage,JitterCue,JitterTrial,LeftImage,NonCuedStim1,NonCuedStim1.Cycle,NonCuedStim1.Sample,NonCuedStim2,NonCuedStim2.Cycle,NonCuedStim2.Sample,NonCuedStim3,NonCuedStim3.Cycle,NonCuedStim3.Sample,NonCuedStim4,NonCuedStim4.Cycle,NonCuedStim4.Sample,Procedure[SubTrial],RightImage,Running[SubTrial],Stimulus
POP_2,16063,1,"<?xml version=""1.0""?>\n<Clock xmlns:dt=""urn:schemas-microsoft-com:datatypes""><Description dt:dt=""string"">E-Prime Primary Realtime Clock</Description><StartTime><Timestamp dt:dt=""int"">0</Timestamp><DateUtc dt:dt=""string"">2014-06-07T21:46:32Z</DateUtc></StartTime><FrequencyChanges><FrequencyChange><Frequency dt:dt=""r8"">2793040000</Frequency><Timestamp dt:dt=""r8"">1.04785437232803E+15</Timestamp><Current dt:dt=""r8"">0</Current><DateUtc dt:dt=""string"">2014-06-07T21:46:32Z</DateUtc></FrequencyChange></FrequencyChanges></Clock>\n",60.031,1,-1146925036,0,,-999999,1,138219,t,14205,152424,6/7/2014,14:46:33,9:46:33 PM,1,Session1,SessionsList,,,,,,,,,,1,1,1,1,,,,,,,,1,1,1,NonCued3,MiniBlocks2,,,152429,,1,1,b,-999999,11,172436,b,791,173227,Green,Congruent,b,White,0,,0,16,162441,,0,0,,,,,,,,,,,,,Pictures\white.bmp,9000,10000,Pictures\black.bmp,,,,,,,1,1,1,,,,StimulusPr,Pictures\GreenRight.bmp,NonCuedStim3,Right
POP_2,16063,1,"<?xml version=""1.0""?>\n<Clock xmlns:dt=""urn:schemas-microsoft-com:datatypes""><Description dt:dt=""string"">E-Prime Primary Realtime Clock</Description><StartTime><Timestamp dt:dt=""int"">0</Timestamp><DateUtc dt:dt=""string"">2014-06-07T21:46:32Z</DateUtc></StartTime><FrequencyChanges><FrequencyChange><Frequency dt:dt=""r8"">2793040000</Frequency><Timestamp dt:dt=""r8"">1.04785437232803E+15</Timestamp><Current dt:dt=""r8"">0</Current><DateUtc dt:dt=""string"">2014-06-07T21:46:32Z</DateUtc></FrequencyChange></FrequencyChanges></Clock>\n",60.031,1,-1146925036,0,,-999999,1,138219,t,14205,152424,6/7/2014,14:46:33,9:46:33 PM,1,Session1,SessionsList,,,,,,,,,,1,1,1,1,,,,,,,,1,1,1,NonCued3,MiniBlocks2,,,152429,,2,1,r,-999999,17,194441,r,690,195131,Red,Incongruent,r,White,0,,0,4,184429,,0,0,,,,,,,,,,,,,Pictures\white.bmp,9000,10000,Pictures\black.bmp,,,,,,,2,1,2,,,,StimulusPr,Pictures\RedRight.bmp,NonCuedStim3,Right
POP_2,16063,1,"<?xml version=""1.0""?>\n<Clock xmlns:dt=""urn:schemas-microsoft-com:datatypes""><Description dt:dt=""string"">E-Prime Primary Realtime Clock</Description><StartTime><Timestamp dt:dt=""int"">0</Timestamp><DateUtc dt:dt=""string"">2014-06-07T21:46:32Z</DateUtc></StartTime><FrequencyChanges><FrequencyChange><Frequency dt:dt=""r8"">2793040000</Frequency><Timestamp dt:dt=""r8"">1.04785437232803E+15</Timestamp><Current dt:dt=""r8"">0</Current><DateUtc dt:dt=""string"">2014-06-07T21:46:32Z</DateUtc></FrequencyChange></FrequencyChanges></Clock>\n",60.031,1,-1146925036,0,,-999999,1,138219,t,14205,152424,6/7/2014,14:46:33,9:46:33 PM,1,Session1,SessionsList,,,,,,,,,,1,1,1,1,,,,,,,,1,1,1,NonCued3,MiniBlocks2,,,152429,,3,1,r,-999999,9,211433,r,631,212064,Green,Congruent,r,White,0,,0,11,206435,,0,0,,,,,,,,,,,,,Pictures\white.bmp,4000,4000,Pictures\GreenLeft.bmp,,,,,,,3,1,3,,,,StimulusPr,Pictures\black.bmp,NonCuedStim3,Left
POP_2,16063,1,"<?xml version=""1.0""?>\n<Clock xmlns:dt=""urn:schemas-microsoft-com:datatypes""><Description dt:dt=""string"">E-Prime Primary Realtime Clock</Description><StartTime><Timestamp dt:dt=""int"">0</Timestamp><DateUtc dt:dt=""string"">2014-06-07T21:46:32Z</DateUtc></StartTime><FrequencyChanges><FrequencyChange><Frequency dt:dt=""r8"">2793040000</Frequency><Timestamp dt:dt=""r8"">1.04785437232803E+15</Timestamp><Current dt:dt=""r8"">0</Current><DateUtc dt:dt=""string"">2014-06-07T21:46:32Z</DateUtc></FrequencyChange></FrequencyChanges></Clock>\n",60.031,1,-1146925036,0,,-999999,1,138219,t,14205,152424,6/7/2014,14:46:33,9:46:33 PM,1,Session1,SessionsList,,,,,,,,,,1,1,1,1,,,,,,,,1,1,1,NonCued3,MiniBlocks2,,,152429,,4,1,b,-999999,19,224443,b,681,225124,Red,Incongruent,b,White,0,,0,6,217430,,0,0,,,,,,,,,,,,,Pictures\white.bmp,6000,4000,Pictures\RedLeft.bmp,,,,,,,4,1,4,,,,StimulusPr,Pictures\black.bmp,NonCuedStim3,Left
POP_2,16063,1,"<?xml version=""1.0""?>\n<Clock xmlns:dt=""urn:schemas-microsoft-com:datatypes""><Description dt:dt=""string"">E-Prime Primary Realtime Clock</Description><StartTime><Timestamp dt:dt=""int"">0</Timestamp><DateUtc dt:dt=""string"">2014-06-07T21:46:32Z</DateUtc></StartTime><FrequencyChanges><FrequencyChange><Frequency dt:dt=""r8"">2793040000</Frequency><Timestamp dt:dt=""r8"">1.04785437232803E+15</Timestamp><Current dt:dt=""r8"">0</Current><DateUtc dt:dt=""string"">2014-06-07T21:46:32Z</DateUtc></FrequencyChange></FrequencyChanges></Clock>\n",60.031,1,-1146925036,0,,-999999,1,138219,t,14205,152424,6/7/2014,14:46:33,9:46:33 PM,1,Session1,SessionsList,,,,,,,,,,1,1,1,1,,,,,,,,1,1,1,NonCued3,MiniBlocks2,,,152429,,5,1,b,-999999,14,234438,b,489,234927,Green,Congruent,b,White,0,,0,16,230440,,0,0,,,,,,,,,,,,,Pictures\white.bmp,3000,2000,Pictures\black.bmp,,,,,,,5,1,5,,,,StimulusPr,Pictures\GreenRight.bmp,NonCuedStim3,Right
POP_2,16063,1,"<?xml version=""1.0""?>\n<Clock xmlns:dt=""urn:schemas-microsoft-com:datatypes""><Description dt:dt=""string"">E-Prime Primary Realtime Clock</Description><StartTime><Timestamp dt:dt=""int"">0</Timestamp><DateUtc dt:dt=""string"">2014-06-07T21:46:32Z</DateUtc></StartTime><FrequencyChanges><FrequencyChange><Frequency dt:dt=""r8"">2793040000</Frequency><Timestamp dt:dt=""r8"">1.04785437232803E+15</Timestamp><Current dt:dt=""r8"">0</Current><DateUtc dt:dt=""string"">2014-06-07T21:46:32Z</DateUtc></FrequencyChange></FrequencyChanges></Clock>\n",60.031,1,-1146925036,0,,-999999,1,138219,t,14205,152424,6/7/2014,14:46:33,9:46:33 PM,1,Session1,SessionsList,,,,,,,,,,1,1,1,1,,,,,,,,1,1,1,NonCued3,MiniBlocks2,,,152429,,6,1,r,-999999,19,242434,r,440,242874,Green,Congruent,r,White,0,,0,12,238436,,0,0,,,,,,,,,,,,,Pictures\white.bmp,3000,2000,Pictures\GreenLeft.bmp,,,,,,,6,1,6,,,,StimulusPr,Pictures\black.bmp,NonCuedStim3,Left
POP_2,16063,1,"<?xml version=""1.0""?>\n<Clock xmlns:dt=""urn:schemas-microsoft-com:datatypes""><Description dt:dt=""string"">E-Prime Primary Realtime Clock</Description><StartTime><Timestamp dt:dt=""int"">0</Timestamp><DateUtc dt:dt=""string"">2014-06-07T21:46:32Z</DateUtc></StartTime><FrequencyChanges><FrequencyChange><Frequency dt:dt=""r8"">2793040000</Frequency><Timestamp dt:dt=""r8"">1.04785437232803E+15</Timestamp><Current dt:dt=""r8"">0</Current><DateUtc dt:dt=""string"">2014-06-07T21:46:32Z</DateUtc></FrequencyChange></FrequencyChanges></Clock>\n",60.031,1,-1146925036,0,,-999999,1,138219,t,14205,152424,6/7/2014,14:46:33,9:46:33 PM,1,Session1,SessionsList,,,,,,,,,,1,1,1,1,,,,,,,,1,1,1,NonCued3,MiniBlocks2,,,152429,,7,1,b,-999999,4,253428,b,498,253926,Green,Congruent,b,White,0,,0,7,246432,,0,0,,,,,,,,,,,,,Pictures\white.bmp,6000,16000,Pictures\black.bmp,,,,,,,7,1,7,,,,StimulusPr,Pictures\GreenRight.bmp,NonCuedStim3,Right
POP_2,16063,1,"<?xml version=""1.0""?>\n<Clock xmlns:dt=""urn:schemas-microsoft-com:datatypes""><Description dt:dt=""string"">E-Prime Primary Realtime Clock</Description><StartTime><Timestamp dt:dt=""int"">0</Timestamp><DateUtc dt:dt=""string"">2014-06-07T21:46:32Z</DateUtc></StartTime><FrequencyChanges><FrequencyChange><Frequency dt:dt=""r8"">2793040000</Frequency><Timestamp dt:dt=""r8"">1.04785437232803E+15</Timestamp><Current dt:dt=""r8"">0</Current><DateUtc dt:dt=""string"">2014-06-07T21:46:32Z</DateUtc></FrequencyChange></FrequencyChanges></Clock>\n",60.031,1,-1146925036,0,,-999999,1,138219,t,14205,152424,6/7/2014,14:46:33,9:46:33 PM,1,Session1,SessionsList,,,,,,,,,,1,1,1,1,,,,,,,,1,1,1,NonCued3,MiniBlocks2,,,152429,,8,1,r,-999999,9,275434,r,557,275991,Red,Incongruent,r,White,0,,0,12,271436,,0,0,,,,,,,,,,,,,Pictures\white.bmp,3000,2000,Pictures\black.bmp,,,,,,,8,1,8,,,,StimulusPr,Pictures\RedRight.bmp,NonCuedStim3,Right
POP_2,16063,1,"<?xml version=""1.0""?>\n<Clock xmlns:dt=""urn:schemas-microsoft-com:datatypes""><Description dt:dt=""string"">E-Prime Primary Realtime Clock</Description><StartTime><Timestamp dt:dt=""int"">0</Timestamp><DateUtc dt:dt=""string"">2014-06-07T21:46:32Z</DateUtc></StartTime><FrequencyChanges><FrequencyChange><Frequency dt:dt=""r8"">2793040000</Frequency><Timestamp dt:dt=""r8"">1.04785437232803E+15</Timestamp><Current dt:dt=""r8"">0</Current><DateUtc dt:dt=""string"">2014-06-07T21:46:32Z</DateUtc></FrequencyChange></FrequencyChanges></Clock>\n",60.031,1,-1146925036,0,,-999999,1,138219,t,14205,152424,6/7/2014,14:46:33,9:46:33 PM,1,Session1,SessionsList,,,,,,,,,,1,1,1,1,,,,,,,,1,1,1,NonCued3,MiniBlocks2,,,152429,,9,1,r,-999999,3,289427,r,450,289877,Green,Congruent,r,White,0,,0,8,279432,,0,0,,,,,,,,,,,,,Pictures\white.bmp,9000,10000,Pictures\GreenLeft.bmp,,,,,,,9,1,9,,,,StimulusPr,Pictures\black.bmp,NonCuedStim3,Left
POP_2,16063,1,"<?xml version=""1.0""?>\n<Clock xmlns:dt=""urn:schemas-microsoft-com:datatypes""><Description dt:dt=""string"">E-Prime Primary Realtime Clock</Description><StartTime><Timestamp dt:dt=""int"">0</Timestamp><DateUtc dt:dt=""string"">2014-06-07T21:46:32Z</DateUtc></StartTime><FrequencyChanges><FrequencyChange><Frequency dt:dt=""r8"">2793040000</Frequency><Timestamp dt:dt=""r8"">1.04785437232803E+15</Timestamp><Current dt:dt=""r8"">0</Current><DateUtc dt:dt=""string"">2014-06-07T21:46:32Z</DateUtc></FrequencyChange></FrequencyChanges></Clock>\n",60.031,1,-1146925036,0,,-999999,1,138219,t,14205,152424,6/7/2014,14:46:33,9:46:33 PM,1,Session1,SessionsList,,,,,,,,,,1,1,1,1,,,,,,,,1,1,1,NonCued3,MiniBlocks2,,,152429,,10,1,r,-999999,10,308434,r,503,308937,Green,Congruent,r,White,0,,0,13,301437,,0,0,,,,,,,,,,,,,Pictures\white.bmp,6000,4000,Pictures\GreenLeft.bmp,,,,,,,10,1,10,,,,StimulusPr,Pictures\black.bmp,NonCuedStim3,Left
POP_2,16063,1,"<?xml version=""1.0""?>\n<Clock xmlns:dt=""urn:schemas-microsoft-com:datatypes""><Description dt:dt=""string"">E-Prime Primary Realtime Clock</Description><StartTime><Timestamp dt:dt=""int"">0</Timestamp><DateUtc dt:dt=""string"">2014-06-07T21:46:32Z</DateUtc></StartTime><FrequencyChanges><FrequencyChange><Frequency dt:dt=""r8"">2793040000</Frequency><Timestamp dt:dt=""r8"">1.04785437232803E+15</Timestamp><Current dt:dt=""r8"">0</Current><DateUtc dt:dt=""string"">2014-06-07T21:46:32Z</DateUtc></FrequencyChange></FrequencyChanges></Clock>\n",60.031,1,-1146925036,0,,-999999,1,138219,t,14205,152424,6/7/2014,14:46:33,9:46:33 PM,1,Session1,SessionsList,,,,,,,,,,1,1,1,2,,,312965,,,,,2,1,2,Cued3,MiniBlocks2,,,,,1,1,b,-999999,18,327424,b,464,327888,White,Congruent,b,Green,0,,0,3,323426,,0,0,,,,,,,1,1,1,,,,Pictures\green.bmp,3000,2000,Pictures\black.bmp,,,,,,,,,,,,,StimulusPr,Pictures\right.bmp,CuedStim3,Right
POP_2,16063,1,"<?xml version=""1.0""?>\n<Clock xmlns:dt=""urn:schemas-microsoft-com:datatypes""><Description dt:dt=""string"">E-Prime Primary Realtime Clock</Description><StartTime><Timestamp dt:dt=""int"">0</Timestamp><DateUtc dt:dt=""string"">2014-06-07T21:46:32Z</DateUtc></StartTime><FrequencyChanges><FrequencyChange><Frequency dt:dt=""r8"">2793040000</Frequency><Timestamp dt:dt=""r8"">1.04785437232803E+15</Timestamp><Current dt:dt=""r8"">0</Current><DateUtc dt:dt=""string"">2014-06-07T21:46:32Z</DateUtc></FrequencyChange></FrequencyChanges></Clock>\n",60.031,1,-1146925036,0,,-999999,1,138219,t,14205,152424,6/7/2014,14:46:33,9:46:33 PM,1,Session1,SessionsList,,,,,,,,,,1,1,1,2,,,312965,,,,,2,1,2,Cued3,MiniBlocks2,,,,,2,1,b,-999999,12,335437,b,495,335932,White,Congruent,b,Green,0,,0,15,331439,,0,0,,,,,,,2,1,2,,,,Pictures\green.bmp,3000,10000,Pictures\black.bmp,,,,,,,,,,,,,StimulusPr,Pictures\right.bmp,CuedStim3,Right
POP_2,16063,1,"<?xml version=""1.0""?>\n<Clock xmlns:dt=""urn:schemas-microsoft-com:datatypes""><Description dt:dt=""string"">E-Prime Primary Realtime Clock</Description><StartTime><Timestamp dt:dt=""int"">0</Timestamp><DateUtc dt:dt=""string"">2014-06-07T21:46:32Z</DateUtc></StartTime><FrequencyChanges><FrequencyChange><Frequency dt:dt=""r8"">2793040000</Frequency><Timestamp dt:dt=""r8"">1.04785437232803E+15</Timestamp><Current dt:dt=""r8"">0</Current><DateUtc dt:dt=""string"">2014-06-07T21:46:32Z</DateUtc></FrequencyChange></FrequencyChanges></Clock>\n",60.031,1,-1146925036,0,,-999999,1,138219,t,14205,152424,6/7/2014,14:46:33,9:46:33 PM,1,Session1,SessionsList,,,,,,,,,,1,1,1,2,,,312965,,,,,2,1,2,Cued3,MiniBlocks2,,,,,3,1,r,-999999,2,357426,r,481,357907,White,Congruent,r,Green,0,,0,7,347431,,0,0,,,,,,,3,1,3,,,,Pictures\green.bmp,9000,2000,Pictures\left.bmp,,,,,,,,,,,,,StimulusPr,Pictures\black.bmp,CuedStim3,Left
POP_2,16063,1,"<?xml version=""1.0""?>\n<Clock xmlns:dt=""urn:schemas-microsoft-com:datatypes""><Description dt:dt=""string"">E-Prime Primary Realtime Clock</Description><StartTime><Timestamp dt:dt=""int"">0</Timestamp><DateUtc dt:dt=""string"">2014-06-07T21:46:32Z</DateUtc></StartTime><FrequencyChanges><FrequencyChange><Frequency dt:dt=""r8"">2793040000</Frequency><Timestamp dt:dt=""r8"">1.04785437232803E+15</Timestamp><Current dt:dt=""r8"">0</Current><DateUtc dt:dt=""string"">2014-06-07T21:46:32Z</DateUtc></FrequencyChange></FrequencyChanges></Clock>\n",60.031,1,-1146925036,0,,-999999,1,138219,t,14205,152424,6/7/2014,14:46:33,9:46:33 PM,1,Session1,SessionsList,,,,,,,,,,1,1,1,2,,,312965,,,,,2,1,2,Cued3,MiniBlocks2,,,,,4,1,r,-999999,14,366438,r,468,366906,White,Congruent,r,Green,0,,0,16,361440,,0,0,,,,,,,4,1,4,,,,Pictures\green.bmp,4000,16000,Pictures\left.bmp,,,,,,,,,,,,,StimulusPr,Pictures\black.bmp,CuedStim3,Left
POP_2,16063,1,"<?xml version=""1.0""?>\n<Clock xmlns:dt=""urn:schemas-microsoft-com:datatypes""><Description dt:dt=""string"">E-Prime Primary Realtime Clock</Description><StartTime><Timestamp dt:dt=""int"">0</Timestamp><DateUtc dt:dt=""string"">2014-06-07T21:46:32Z</DateUtc></StartTime><FrequencyChanges><FrequencyChange><Frequency dt:dt=""r8"">2793040000</Frequency><Timestamp dt:dt=""r8"">1.04785437232803E+15</Timestamp><Current dt:dt=""r8"">0</Current><DateUtc dt:dt=""string"">2014-06-07T21:46:32Z</DateUtc></FrequencyChange></FrequencyChanges></Clock>\n",60.031,1,-1146925036,0,,-999999,1,138219,t,14205,152424,6/7/2014,14:46:33,9:46:33 PM,1,Session1,SessionsList,,,,,,,,,,1,1,1,2,,,312965,,,,,2,1,2,Cued3,MiniBlocks2,,,,,5,1,r,-999999,4,388427,r,411,388838,White,Incongruent,r,Red,0,,0,6,384429,,0,0,,,,,,,5,1,5,,,,Pictures\red.bmp,3000,4000,Pictures\black.bmp,,,,,,,,,,,,,StimulusPr,Pictures\right.bmp,CuedStim3,Right
POP_2,16063,1,"<?xml version=""1.0""?>\n<Clock xmlns:dt=""urn:schemas-microsoft-com:datatypes""><Description dt:dt=""string"">E-Prime Primary Realtime Clock</Description><StartTime><Timestamp dt:dt=""int"">0</Timestamp><DateUtc dt:dt=""string"">2014-06-07T21:46:32Z</DateUtc></StartTime><FrequencyChanges><FrequencyChange><Frequency dt:dt=""r8"">2793040000</Frequency><Timestamp dt:dt=""r8"">1.04785437232803E+15</Timestamp><Current dt:dt=""r8"">0</Current><DateUtc dt:dt=""string"">2014-06-07T21:46:32Z</DateUtc></FrequencyChange></FrequencyChanges></Clock>\n",60.031,1,-1146925036,0,,-999999,1,138219,t,14205,152424,6/7/2014,14:46:33,9:46:33 PM,1,Session1,SessionsList,,,,,,,,,,1,1,1,2,,,312965,,,,,2,1,2,Cued3,MiniBlocks2,,,,,6,1,b,-999999,14,401437,b,384,401821,White,Congruent,b,Green,0,,0,18,394441,,0,0,,,,,,,6,1,6,,,,Pictures\green.bmp,6000,4000,Pictures\black.bmp,,,,,,,,,,,,,StimulusPr,Pictures\right.bmp,CuedStim3,Right
POP_2,16063,1,"<?xml version=""1.0""?>\n<Clock xmlns:dt=""urn:schemas-microsoft-com:datatypes""><Description dt:dt=""string"">E-Prime Primary Realtime Clock</Description><StartTime><Timestamp dt:dt=""int"">0</Timestamp><DateUtc dt:dt=""string"">2014-06-07T21:46:32Z</DateUtc></StartTime><FrequencyChanges><FrequencyChange><Frequency dt:dt=""r8"">2793040000</Frequency><Timestamp dt:dt=""r8"">1.04785437232803E+15</Timestamp><Current dt:dt=""r8"">0</Current><DateUtc dt:dt=""string"">2014-06-07T21:46:32Z</DateUtc></FrequencyChange></FrequencyChanges></Clock>\n",60.031,1,-1146925036,0,,-999999,1,138219,t,14205,152424,6/7/2014,14:46:33,9:46:33 PM,1,Session1,SessionsList,,,,,,,,,,1,1,1,2,,,312965,,,,,2,1,2,Cued3,MiniBlocks2,,,,,7,1,r,-999999,8,412431,r,351,412782,White,Congruent,r,Green,0,,0,11,407434,,0,0,,,,,,,7,1,7,,,,Pictures\green.bmp,4000,16000,Pictures\left.bmp,,,,,,,,,,,,,StimulusPr,Pictures\black.bmp,CuedStim3,Left
POP_2,16063,1,"<?xml version=""1.0""?>\n<Clock xmlns:dt=""urn:schemas-microsoft-com:datatypes""><Description dt:dt=""string"">E-Prime Primary Realtime Clock</Description><StartTime><Timestamp dt:dt=""int"">0</Timestamp><DateUtc dt:dt=""string"">2014-06-07T21:46:32Z</DateUtc></StartTime><FrequencyChanges><FrequencyChange><Frequency dt:dt=""r8"">2793040000</Frequency><Timestamp dt:dt=""r8"">1.04785437232803E+15</Timestamp><Current dt:dt=""r8"">0</Current><DateUtc dt:dt=""string"">2014-06-07T21:46:32Z</DateUtc></FrequencyChange></FrequencyChanges></Clock>\n",60.031,1,-1146925036,0,,-999999,1,138219,t,14205,152424,6/7/2014,14:46:33,9:46:33 PM,1,Session1,SessionsList,,,,,,,,,,1,1,1,2,,,312965,,,,,2,1,2,Cued3,MiniBlocks2,,,,,8,1,b,-999999,13,434437,b,473,434910,White,Incongruent,b,Red,0,,0,15,430439,,0,0,,,,,,,8,1,8,,,,Pictures\red.bmp,3000,2000,Pictures\left.bmp,,,,,,,,,,,,,StimulusPr,Pictures\black.bmp,CuedStim3,Left
POP_2,16063,1,"<?xml version=""1.0""?>\n<Clock xmlns:dt=""urn:schemas-microsoft-com:datatypes""><Description dt:dt=""string"">E-Prime Primary Realtime Clock</Description><StartTime><Timestamp dt:dt=""int"">0</Timestamp><DateUtc dt:dt=""string"">2014-06-07T21:46:32Z</DateUtc></StartTime><FrequencyChanges><FrequencyChange><Frequency dt:dt=""r8"">2793040000</Frequency><Timestamp dt:dt=""r8"">1.04785437232803E+15</Timestamp><Current dt:dt=""r8"">0</Current><DateUtc dt:dt=""string"">2014-06-07T21:46:32Z</DateUtc></FrequencyChange></FrequencyChanges></Clock>\n",60.031,1,-1146925036,0,,-999999,1,138219,t,14205,152424,6/7/2014,14:46:33,9:46:33 PM,1,Session1,SessionsList,,,,,,,,,,1,1,1,2,,,312965,,,,,2,1,2,Cued3,MiniBlocks2,,,,,9,1,r,-999999,9,442433,r,374,442807,White,Congruent,r,Green,0,,0,11,438435,,0,0,,,,,,,9,1,9,,,,Pictures\green.bmp,3000,2000,Pictures\left.bmp,,,,,,,,,,,,,StimulusPr,Pictures\black.bmp,CuedStim3,Left
POP_2,16063,1,"<?xml version=""1.0""?>\n<Clock xmlns:dt=""urn:schemas-microsoft-com:datatypes""><Description dt:dt=""string"">E-Prime Primary Realtime Clock</Description><StartTime><Timestamp dt:dt=""int"">0</Timestamp><DateUtc dt:dt=""string"">2014-06-07T21:46:32Z</DateUtc></StartTime><FrequencyChanges><FrequencyChange><Frequency dt:dt=""r8"">2793040000</Frequency><Timestamp dt:dt=""r8"">1.04785437232803E+15</Timestamp><Current dt:dt=""r8"">0</Current><DateUtc dt:dt=""string"">2014-06-07T21:46:32Z</DateUtc></FrequencyChange></FrequencyChanges></Clock>\n",60.031,1,-1146925036,0,,-999999,1,138219,t,14205,152424,6/7/2014,14:46:33,9:46:33 PM,1,Session1,SessionsList,,,,,,,,,,1,1,1,2,,,312965,,,,,2,1,2,Cued3,MiniBlocks2,,,,,10,1,b,-999999,2,456426,b,433,456859,White,Congruent,b,Green,0,,0,7,446431,,0,0,,,,,,,10,1,10,,,,Pictures\green.bmp,9000,10000,Pictures\black.bmp,,,,,,,,,,,,,StimulusPr,Pictures\right.bmp,CuedStim3,Right
POP_2,16063,1,"<?xml version=""1.0""?>\n<Clock xmlns:dt=""urn:schemas-microsoft-com:datatypes""><Description dt:dt=""string"">E-Prime Primary Realtime Clock</Description><StartTime><Timestamp dt:dt=""int"">0</Timestamp><DateUtc dt:dt=""string"">2014-06-07T21:46:32Z</DateUtc></StartTime><FrequencyChanges><FrequencyChange><Frequency dt:dt=""r8"">2793040000</Frequency><Timestamp dt:dt=""r8"">1.04785437232803E+15</Timestamp><Current dt:dt=""r8"">0</Current><DateUtc dt:dt=""string"">2014-06-07T21:46:32Z</DateUtc></FrequencyChange></FrequencyChanges></Clock>\n",60.031,1,-1146925036,0,,-999999,1,138219,t,14205,152424,6/7/2014,14:46:33,9:46:33 PM,1,Session1,SessionsList,,,,,,,,,,1,1,1,3,,,,466887,,,,3,1,3,Cued4,MiniBlocks2,,,,,1,1,b,-999999,6,483429,b,412,483841,White,Congruent,b,Green,0,,0,10,476433,,0,0,,,,,,,,,,1,1,1,Pictures\green.bmp,6000,2000,Pictures\black.bmp,,,,,,,,,,,,,StimulusPr,Pictures\right.bmp,CuedStim4,Right
POP_2,16063,1,"<?xml version=""1.0""?>\n<Clock xmlns:dt=""urn:schemas-microsoft-com:datatypes""><Description dt:dt=""string"">E-Prime Primary Realtime Clock</Description><StartTime><Timestamp dt:dt=""int"">0</Timestamp><DateUtc dt:dt=""string"">2014-06-07T21:46:32Z</DateUtc></StartTime><FrequencyChanges><FrequencyChange><Frequency dt:dt=""r8"">2793040000</Frequency><Timestamp dt:dt=""r8"">1.04785437232803E+15</Timestamp><Current dt:dt=""r8"">0</Current><DateUtc dt:dt=""string"">2014-06-07T21:46:32Z</DateUtc></FrequencyChange></FrequencyChanges></Clock>\n",60.031,1,-1146925036,0,,-999999,1,138219,t,14205,152424,6/7/2014,14:46:33,9:46:33 PM,1,Session1,SessionsList,,,,,,,,,,1,1,1,3,,,,466887,,,,3,1,3,Cued4,MiniBlocks2,,,,,2,1,r,-999999,16,497439,r,444,497883,White,Incongruent,r,Red,0,,0,4,487427,,0,0,,,,,,,,,,2,1,2,Pictures\red.bmp,9000,2000,Pictures\black.bmp,,,,,,,,,,,,,StimulusPr,Pictures\right.bmp,CuedStim4,Right
POP_2,16063,1,"<?xml version=""1.0""?>\n<Clock xmlns:dt=""urn:schemas-microsoft-com:datatypes""><Description dt:dt=""string"">E-Prime Primary Realtime Clock</Description><StartTime><Timestamp dt:dt=""int"">0</Timestamp><DateUtc dt:dt=""string"">2014-06-07T21:46:32Z</DateUtc></StartTime><FrequencyChanges><FrequencyChange><Frequency dt:dt=""r8"">2793040000</Frequency><Timestamp dt:dt=""r8"">1.04785437232803E+15</Timestamp><Current dt:dt=""r8"">0</Current><DateUtc dt:dt=""string"">2014-06-07T21:46:32Z</DateUtc></FrequencyChange></FrequencyChanges></Clock>\n",60.031,1,-1146925036,0,,-999999,1,138219,t,14205,152424,6/7/2014,14:46:33,9:46:33 PM,1,Session1,SessionsList,,,,,,,,,,1,1,1,3,,,,466887,,,,3,1,3,Cued4,MiniBlocks2,,,,,3,0,b,-999999,11,505435,r,514,505949,White,Congruent,b,Green,0,,0,14,501437,,0,0,,,,,,,,,,3,1,3,Pictures\green.bmp,3000,4000,Pictures\black.bmp,,,,,,,,,,,,,StimulusPr,Pictures\right.bmp,CuedStim4,Right
POP_2,16063,1,"<?xml version=""1.0""?>\n<Clock xmlns:dt=""urn:schemas-microsoft-com:datatypes""><Description dt:dt=""string"">E-Prime Primary Realtime Clock</Description><StartTime><Timestamp dt:dt=""int"">0</Timestamp><DateUtc dt:dt=""string"">2014-06-07T21:46:32Z</DateUtc></StartTime><FrequencyChanges><FrequencyChange><Frequency dt:dt=""r8"">2793040000</Frequency><Timestamp dt:dt=""r8"">1.04785437232803E+15</Timestamp><Current dt:dt=""r8"">0</Current><DateUtc dt:dt=""string"">2014-06-07T21:46:32Z</DateUtc></FrequencyChange></FrequencyChanges></Clock>\n",60.031,1,-1146925036,0,,-999999,1,138219,t,14205,152424,6/7/2014,14:46:33,9:46:33 PM,1,Session1,SessionsList,,,,,,,,,,1,1,1,3,,,,466887,,,,3,1,3,Cued4,MiniBlocks2,,,,,4,1,r,-999999,6,515430,r,456,515886,White,Congruent,r,Green,0,,0,8,511432,,0,0,,,,,,,,,,4,1,4,Pictures\green.bmp,3000,4000,Pictures\left.bmp,,,,,,,,,,,,,StimulusPr,Pictures\black.bmp,CuedStim4,Left
POP_2,16063,1,"<?xml version=""1.0""?>\n<Clock xmlns:dt=""urn:schemas-microsoft-com:datatypes""><Description dt:dt=""string"">E-Prime Primary Realtime Clock</Description><StartTime><Timestamp dt:dt=""int"">0</Timestamp><DateUtc dt:dt=""string"">2014-06-07T21:46:32Z</DateUtc></StartTime><FrequencyChanges><FrequencyChange><Frequency dt:dt=""r8"">2793040000</Frequency><Timestamp dt:dt=""r8"">1.04785437232803E+15</Timestamp><Current dt:dt=""r8"">0</Current><DateUtc dt:dt=""string"">2014-06-07T21:46:32Z</DateUtc></FrequencyChange></FrequencyChanges></Clock>\n",60.031,1,-1146925036,0,,-999999,1,138219,t,14205,152424,6/7/2014,14:46:33,9:46:33 PM,1,Session1,SessionsList,,,,,,,,,,1,1,1,3,,,,466887,,,,3,1,3,Cued4,MiniBlocks2,,,,,5,1,b,-999999,17,526441,b,650,527091,White,Incongruent,b,Red,0,,0,3,521427,,0,0,,,,,,,,,,5,1,5,Pictures\red.bmp,4000,16000,Pictures\left.bmp,,,,,,,,,,,,,StimulusPr,Pictures\black.bmp,CuedStim4,Left
POP_2,16063,1,"<?xml version=""1.0""?>\n<Clock xmlns:dt=""urn:schemas-microsoft-com:datatypes""><Description dt:dt=""string"">E-Prime Primary Realtime Clock</Description><StartTime><Timestamp dt:dt=""int"">0</Timestamp><DateUtc dt:dt=""string"">2014-06-07T21:46:32Z</DateUtc></StartTime><FrequencyChanges><FrequencyChange><Frequency dt:dt=""r8"">2793040000</Frequency><Timestamp dt:dt=""r8"">1.04785437232803E+15</Timestamp><Current dt:dt=""r8"">0</Current><DateUtc dt:dt=""string"">2014-06-07T21:46:32Z</DateUtc></FrequencyChange></FrequencyChanges></Clock>\n",60.031,1,-1146925036,0,,-999999,1,138219,t,14205,152424,6/7/2014,14:46:33,9:46:33 PM,1,Session1,SessionsList,,,,,,,,,,1,1,1,3,,,,466887,,,,3,1,3,Cued4,MiniBlocks2,,,,,6,1,b,-999999,7,548430,b,427,548857,White,Congruent,b,Green,0,,0,9,544432,,0,0,,,,,,,,,,6,1,6,Pictures\green.bmp,3000,2000,Pictures\black.bmp,,,,,,,,,,,,,StimulusPr,Pictures\right.bmp,CuedStim4,Right
POP_2,16063,1,"<?xml version=""1.0""?>\n<Clock xmlns:dt=""urn:schemas-microsoft-com:datatypes""><Description dt:dt=""string"">E-Prime Primary Realtime Clock</Description><StartTime><Timestamp dt:dt=""int"">0</Timestamp><DateUtc dt:dt=""string"">2014-06-07T21:46:32Z</DateUtc></StartTime><FrequencyChanges><FrequencyChange><Frequency dt:dt=""r8"">2793040000</Frequency><Timestamp dt:dt=""r8"">1.04785437232803E+15</Timestamp><Current dt:dt=""r8"">0</Current><DateUtc dt:dt=""string"">2014-06-07T21:46:32Z</DateUtc></FrequencyChange></FrequencyChanges></Clock>\n",60.031,1,-1146925036,0,,-999999,1,138219,t,14205,152424,6/7/2014,14:46:33,9:46:33 PM,1,Session1,SessionsList,,,,,,,,,,1,1,1,3,,,,466887,,,,3,1,3,Cued4,MiniBlocks2,,,,,7,1,b,-999999,16,562439,b,411,562850,White,Congruent,b,Green,0,,0,5,552428,,0,0,,,,,,,,,,7,1,7,Pictures\green.bmp,9000,10000,Pictures\black.bmp,,,,,,,,,,,,,StimulusPr,Pictures\right.bmp,CuedStim4,Right
POP_2,16063,1,"<?xml version=""1.0""?>\n<Clock xmlns:dt=""urn:schemas-microsoft-com:datatypes""><Description dt:dt=""string"">E-Prime Primary Realtime Clock</Description><StartTime><Timestamp dt:dt=""int"">0</Timestamp><DateUtc dt:dt=""string"">2014-06-07T21:46:32Z</DateUtc></StartTime><FrequencyChanges><FrequencyChange><Frequency dt:dt=""r8"">2793040000</Frequency><Timestamp dt:dt=""r8"">1.04785437232803E+15</Timestamp><Current dt:dt=""r8"">0</Current><DateUtc dt:dt=""string"">2014-06-07T21:46:32Z</DateUtc></FrequencyChange></FrequencyChanges></Clock>\n",60.031,1,-1146925036,0,,-999999,1,138219,t,14205,152424,6/7/2014,14:46:33,9:46:33 PM,1,Session1,SessionsList,,,,,,,,,,1,1,1,3,,,,466887,,,,3,1,3,Cued4,MiniBlocks2,,,,,8,1,b,-999999,7,581430,b,497,581927,White,Incongruent,b,Red,0,,0,10,574433,,0,0,,,,,,,,,,8,1,8,Pictures\red.bmp,6000,10000,Pictures\left.bmp,,,,,,,,,,,,,StimulusPr,Pictures\black.bmp,CuedStim4,Left
POP_2,16063,1,"<?xml version=""1.0""?>\n<Clock xmlns:dt=""urn:schemas-microsoft-com:datatypes""><Description dt:dt=""string"">E-Prime Primary Realtime Clock</Description><StartTime><Timestamp dt:dt=""int"">0</Timestamp><DateUtc dt:dt=""string"">2014-06-07T21:46:32Z</DateUtc></StartTime><FrequencyChanges><FrequencyChange><Frequency dt:dt=""r8"">2793040000</Frequency><Timestamp dt:dt=""r8"">1.04785437232803E+15</Timestamp><Current dt:dt=""r8"">0</Current><DateUtc dt:dt=""string"">2014-06-07T21:46:32Z</DateUtc></FrequencyChange></FrequencyChanges></Clock>\n",60.031,1,-1146925036,0,,-999999,1,138219,t,14205,152424,6/7/2014,14:46:33,9:46:33 PM,1,Session1,SessionsList,,,,,,,,,,1,1,1,3,,,,466887,,,,3,1,3,Cued4,MiniBlocks2,,,,,9,1,r,-999999,14,600437,r,478,600915,White,Congruent,r,Green,0,,0,16,593440,,0,0,,,,,,,,,,9,1,9,Pictures\green.bmp,6000,16000,Pictures\left.bmp,,,,,,,,,,,,,StimulusPr,Pictures\black.bmp,CuedStim4,Left
POP_2,16063,1,"<?xml version=""1.0""?>\n<Clock xmlns:dt=""urn:schemas-microsoft-com:datatypes""><Description dt:dt=""string"">E-Prime Primary Realtime Clock</Description><StartTime><Timestamp dt:dt=""int"">0</Timestamp><DateUtc dt:dt=""string"">2014-06-07T21:46:32Z</DateUtc></StartTime><FrequencyChanges><FrequencyChange><Frequency dt:dt=""r8"">2793040000</Frequency><Timestamp dt:dt=""r8"">1.04785437232803E+15</Timestamp><Current dt:dt=""r8"">0</Current><DateUtc dt:dt=""string"">2014-06-07T21:46:32Z</DateUtc></FrequencyChange></FrequencyChanges></Clock>\n",60.031,1,-1146925036,0,,-999999,1,138219,t,14205,152424,6/7/2014,14:46:33,9:46:33 PM,1,Session1,SessionsList,,,,,,,,,,1,1,1,3,,,,466887,,,,3,1,3,Cued4,MiniBlocks2,,,,,10,1,r,-999999,3,623426,r,610,624036,White,Congruent,r,Green,0,,0,5,618428,,0,0,,,,,,,,,,10,1,10,Pictures\green.bmp,4000,2000,Pictures\left.bmp,,,,,,,,,,,,,StimulusPr,Pictures\black.bmp,CuedStim4,Left
POP_2,16063,1,"<?xml version=""1.0""?>\n<Clock xmlns:dt=""urn:schemas-microsoft-com:datatypes""><Description dt:dt=""string"">E-Prime Primary Realtime Clock</Description><StartTime><Timestamp dt:dt=""int"">0</Timestamp><DateUtc dt:dt=""string"">2014-06-07T21:46:32Z</DateUtc></StartTime><FrequencyChanges><FrequencyChange><Frequency dt:dt=""r8"">2793040000</Frequency><Timestamp dt:dt=""r8"">1.04785437232803E+15</Timestamp><Current dt:dt=""r8"">0</Current><DateUtc dt:dt=""string"">2014-06-07T21:46:32Z</DateUtc></FrequencyChange></FrequencyChanges></Clock>\n",60.031,1,-1146925036,0,,-999999,1,138219,t,14205,152424,6/7/2014,14:46:33,9:46:33 PM,1,Session1,SessionsList,,,,,,,,,,1,1,1,4,,,,,,,,4,1,4,NonCued4,MiniBlocks2,,,,626057,1,1,r,-999999,11,640434,r,516,640950,Green,Congruent,r,White,0,,0,13,636436,,0,0,,,,,,,,,,,,,Pictures\white.bmp,3000,2000,Pictures\GreenLeft.bmp,,,,,,,,,,1,1,1,StimulusPr,Pictures\black.bmp,NonCuedStim4,Left
POP_2,16063,1,"<?xml version=""1.0""?>\n<Clock xmlns:dt=""urn:schemas-microsoft-com:datatypes""><Description dt:dt=""string"">E-Prime Primary Realtime Clock</Description><StartTime><Timestamp dt:dt=""int"">0</Timestamp><DateUtc dt:dt=""string"">2014-06-07T21:46:32Z</DateUtc></StartTime><FrequencyChanges><FrequencyChange><Frequency dt:dt=""r8"">2793040000</Frequency><Timestamp dt:dt=""r8"">1.04785437232803E+15</Timestamp><Current dt:dt=""r8"">0</Current><DateUtc dt:dt=""string"">2014-06-07T21:46:32Z</DateUtc></FrequencyChange></FrequencyChanges></Clock>\n",60.031,1,-1146925036,0,,-999999,1,138219,t,14205,152424,6/7/2014,14:46:33,9:46:33 PM,1,Session1,SessionsList,,,,,,,,,,1,1,1,4,,,,,,,,4,1,4,NonCued4,MiniBlocks2,,,,626057,2,1,r,-999999,6,649429,r,583,650012,Green,Congruent,r,White,0,,0,9,644432,,0,0,,,,,,,,,,,,,Pictures\white.bmp,4000,2000,Pictures\GreenLeft.bmp,,,,,,,,,,2,1,2,StimulusPr,Pictures\black.bmp,NonCuedStim4,Left
POP_2,16063,1,"<?xml version=""1.0""?>\n<Clock xmlns:dt=""urn:schemas-microsoft-com:datatypes""><Description dt:dt=""string"">E-Prime Primary Realtime Clock</Description><StartTime><Timestamp dt:dt=""int"">0</Timestamp><DateUtc dt:dt=""string"">2014-06-07T21:46:32Z</DateUtc></StartTime><FrequencyChanges><FrequencyChange><Frequency dt:dt=""r8"">2793040000</Frequency><Timestamp dt:dt=""r8"">1.04785437232803E+15</Timestamp><Current dt:dt=""r8"">0</Current><DateUtc dt:dt=""string"">2014-06-07T21:46:32Z</DateUtc></FrequencyChange></FrequencyChanges></Clock>\n",60.031,1,-1146925036,0,,-999999,1,138219,t,14205,152424,6/7/2014,14:46:33,9:46:33 PM,1,Session1,SessionsList,,,,,,,,,,1,1,1,4,,,,,,,,4,1,4,NonCued4,MiniBlocks2,,,,626057,3,1,r,-999999,18,658441,r,606,659047,Red,Incongruent,r,White,0,,0,4,653427,,0,0,,,,,,,,,,,,,Pictures\white.bmp,4000,2000,Pictures\black.bmp,,,,,,,,,,3,1,3,StimulusPr,Pictures\RedRight.bmp,NonCuedStim4,Right
POP_2,16063,1,"<?xml version=""1.0""?>\n<Clock xmlns:dt=""urn:schemas-microsoft-com:datatypes""><Description dt:dt=""string"">E-Prime Primary Realtime Clock</Description><StartTime><Timestamp dt:dt=""int"">0</Timestamp><DateUtc dt:dt=""string"">2014-06-07T21:46:32Z</DateUtc></StartTime><FrequencyChanges><FrequencyChange><Frequency dt:dt=""r8"">2793040000</Frequency><Timestamp dt:dt=""r8"">1.04785437232803E+15</Timestamp><Current dt:dt=""r8"">0</Current><DateUtc dt:dt=""string"">2014-06-07T21:46:32Z</DateUtc></FrequencyChange></FrequencyChanges></Clock>\n",60.031,1,-1146925036,0,,-999999,1,138219,t,14205,152424,6/7/2014,14:46:33,9:46:33 PM,1,Session1,SessionsList,,,,,,,,,,1,1,1,4,,,,,,,,4,1,4,NonCued4,MiniBlocks2,,,,626057,4,1,b,-999999,15,666437,b,672,667109,Green,Congruent,b,White,0,,0,16,662439,,0,0,,,,,,,,,,,,,Pictures\white.bmp,3000,16000,Pictures\black.bmp,,,,,,,,,,4,1,4,StimulusPr,Pictures\GreenRight.bmp,NonCuedStim4,Right
POP_2,16063,1,"<?xml version=""1.0""?>\n<Clock xmlns:dt=""urn:schemas-microsoft-com:datatypes""><Description dt:dt=""string"">E-Prime Primary Realtime Clock</Description><StartTime><Timestamp dt:dt=""int"">0</Timestamp><DateUtc dt:dt=""string"">2014-06-07T21:46:32Z</DateUtc></StartTime><FrequencyChanges><FrequencyChange><Frequency dt:dt=""r8"">2793040000</Frequency><Timestamp dt:dt=""r8"">1.04785437232803E+15</Timestamp><Current dt:dt=""r8"">0</Current><DateUtc dt:dt=""string"">2014-06-07T21:46:32Z</DateUtc></FrequencyChange></FrequencyChanges></Clock>\n",60.031,1,-1146925036,0,,-999999,1,138219,t,14205,152424,6/7/2014,14:46:33,9:46:33 PM,1,Session1,SessionsList,,,,,,,,,,1,1,1,4,,,,,,,,4,1,4,NonCued4,MiniBlocks2,,,,626057,5,1,r,-999999,17,694440,r,622,695062,Green,Congruent,r,White,0,,0,5,684428,,0,0,,,,,,,,,,,,,Pictures\white.bmp,9000,10000,Pictures\GreenLeft.bmp,,,,,,,,,,5,1,5,StimulusPr,Pictures\black.bmp,NonCuedStim4,Left
POP_2,16063,1,"<?xml version=""1.0""?>\n<Clock xmlns:dt=""urn:schemas-microsoft-com:datatypes""><Description dt:dt=""string"">E-Prime Primary Realtime Clock</Description><StartTime><Timestamp dt:dt=""int"">0</Timestamp><DateUtc dt:dt=""string"">2014-06-07T21:46:32Z</DateUtc></StartTime><FrequencyChanges><FrequencyChange><Frequency dt:dt=""r8"">2793040000</Frequency><Timestamp dt:dt=""r8"">1.04785437232803E+15</Timestamp><Current dt:dt=""r8"">0</Current><DateUtc dt:dt=""string"">2014-06-07T21:46:32Z</DateUtc></FrequencyChange></FrequencyChanges></Clock>\n",60.031,1,-1146925036,0,,-999999,1,138219,t,14205,152424,6/7/2014,14:46:33,9:46:33 PM,1,Session1,SessionsList,,,,,,,,,,1,1,1,4,,,,,,,,4,1,4,NonCued4,MiniBlocks2,,,,626057,6,1,b,-999999,9,710432,b,459,710891,Green,Congruent,b,White,0,,0,11,706434,,0,0,,,,,,,,,,,,,Pictures\white.bmp,3000,16000,Pictures\black.bmp,,,,,,,,,,6,1,6,StimulusPr,Pictures\GreenRight.bmp,NonCuedStim4,Right
POP_2,16063,1,"<?xml version=""1.0""?>\n<Clock xmlns:dt=""urn:schemas-microsoft-com:datatypes""><Description dt:dt=""string"">E-Prime Primary Realtime Clock</Description><StartTime><Timestamp dt:dt=""int"">0</Timestamp><DateUtc dt:dt=""string"">2014-06-07T21:46:32Z</DateUtc></StartTime><FrequencyChanges><FrequencyChange><Frequency dt:dt=""r8"">2793040000</Frequency><Timestamp dt:dt=""r8"">1.04785437232803E+15</Timestamp><Current dt:dt=""r8"">0</Current><DateUtc dt:dt=""string"">2014-06-07T21:46:32Z</DateUtc></FrequencyChange></FrequencyChanges></Clock>\n",60.031,1,-1146925036,0,,-999999,1,138219,t,14205,152424,6/7/2014,14:46:33,9:46:33 PM,1,Session1,SessionsList,,,,,,,,,,1,1,1,4,,,,,,,,4,1,4,NonCued4,MiniBlocks2,,,,626057,7,1,b,-999999,14,732437,b,619,733056,Red,Incongruent,b,White,0,,0,16,728439,,0,0,,,,,,,,,,,,,Pictures\white.bmp,3000,16000,Pictures\RedLeft.bmp,,,,,,,,,,7,1,7,StimulusPr,Pictures\black.bmp,NonCuedStim4,Left
POP_2,16063,1,"<?xml version=""1.0""?>\n<Clock xmlns:dt=""urn:schemas-microsoft-com:datatypes""><Description dt:dt=""string"">E-Prime Primary Realtime Clock</Description><StartTime><Timestamp dt:dt=""int"">0</Timestamp><DateUtc dt:dt=""string"">2014-06-07T21:46:32Z</DateUtc></StartTime><FrequencyChanges><FrequencyChange><Frequency dt:dt=""r8"">2793040000</Frequency><Timestamp dt:dt=""r8"">1.04785437232803E+15</Timestamp><Current dt:dt=""r8"">0</Current><DateUtc dt:dt=""string"">2014-06-07T21:46:32Z</DateUtc></FrequencyChange></FrequencyChanges></Clock>\n",60.031,1,-1146925036,0,,-999999,1,138219,t,14205,152424,6/7/2014,14:46:33,9:46:33 PM,1,Session1,SessionsList,,,,,,,,,,1,1,1,4,,,,,,,,4,1,4,NonCued4,MiniBlocks2,,,,626057,8,1,r,-999999,19,754426,r,495,754921,Green,Congruent,r,White,0,,0,6,750428,,0,0,,,,,,,,,,,,,Pictures\white.bmp,3000,2000,Pictures\GreenLeft.bmp,,,,,,,,,,8,1,8,StimulusPr,Pictures\black.bmp,NonCuedStim4,Left
POP_2,16063,1,"<?xml version=""1.0""?>\n<Clock xmlns:dt=""urn:schemas-microsoft-com:datatypes""><Description dt:dt=""string"">E-Prime Primary Realtime Clock</Description><StartTime><Timestamp dt:dt=""int"">0</Timestamp><DateUtc dt:dt=""string"">2014-06-07T21:46:32Z</DateUtc></StartTime><FrequencyChanges><FrequencyChange><Frequency dt:dt=""r8"">2793040000</Frequency><Timestamp dt:dt=""r8"">1.04785437232803E+15</Timestamp><Current dt:dt=""r8"">0</Current><DateUtc dt:dt=""string"">2014-06-07T21:46:32Z</DateUtc></FrequencyChange></FrequencyChanges></Clock>\n",60.031,1,-1146925036,0,,-999999,1,138219,t,14205,152424,6/7/2014,14:46:33,9:46:33 PM,1,Session1,SessionsList,,,,,,,,,,1,1,1,4,,,,,,,,4,1,4,NonCued4,MiniBlocks2,,,,626057,9,1,b,-999999,14,765437,b,477,765914,Green,Congruent,b,White,0,,0,2,758424,,0,0,,,,,,,,,,,,,Pictures\white.bmp,6000,2000,Pictures\black.bmp,,,,,,,,,,9,1,9,StimulusPr,Pictures\GreenRight.bmp,NonCuedStim4,Right
POP_2,16063,1,"<?xml version=""1.0""?>\n<Clock xmlns:dt=""urn:schemas-microsoft-com:datatypes""><Description dt:dt=""string"">E-Prime Primary Realtime Clock</Description><StartTime><Timestamp dt:dt=""int"">0</Timestamp><DateUtc dt:dt=""string"">2014-06-07T21:46:32Z</DateUtc></StartTime><FrequencyChanges><FrequencyChange><Frequency dt:dt=""r8"">2793040000</Frequency><Timestamp dt:dt=""r8"">1.04785437232803E+15</Timestamp><Current dt:dt=""r8"">0</Current><DateUtc dt:dt=""string"">2014-06-07T21:46:32Z</DateUtc></FrequencyChange></FrequencyChanges></Clock>\n",60.031,1,-1146925036,0,,-999999,1,138219,t,14205,152424,6/7/2014,14:46:33,9:46:33 PM,1,Session1,SessionsList,,,,,,,,,,1,1,1,4,,,,,,,,4,1,4,NonCued4,MiniBlocks2,,,,626057,10,1,b,-999999,10,774433,b,482,774915,Green,Congruent,b,White,0,,0,12,769435,,0,0,,,,,,,,,,,,,Pictures\white.bmp,4000,4000,Pictures\black.bmp,,,,,,,,,,10,1,10,StimulusPr,Pictures\GreenRight.bmp,NonCuedStim4,Right
POP_2,16063,1,"<?xml version=""1.0""?>\n<Clock xmlns:dt=""urn:schemas-microsoft-com:datatypes""><Description dt:dt=""string"">E-Prime Primary Realtime Clock</Description><StartTime><Timestamp dt:dt=""int"">0</Timestamp><DateUtc dt:dt=""string"">2014-06-07T21:46:32Z</DateUtc></StartTime><FrequencyChanges><FrequencyChange><Frequency dt:dt=""r8"">2793040000</Frequency><Timestamp dt:dt=""r8"">1.04785437232803E+15</Timestamp><Current dt:dt=""r8"">0</Current><DateUtc dt:dt=""string"">2014-06-07T21:46:32Z</DateUtc></FrequencyChange></FrequencyChanges></Clock>\n",60.031,1,-1146925036,0,,-999999,1,138219,t,14205,152424,6/7/2014,14:46:33,9:46:33 PM,2,Session2,SessionsList,0,,-999999,16,798954,t,39382,838336,778931,2,1,2,1,838351,,,,1,1,1,,,,Cued1,MiniBlocks1,,,,,1,1,r,-999999,8,852344,r,512,852856,White,Congruent,r,Green,0,,0,10,847346,,0,0,1,1,1,,,,,,,,,,Pictures\green.bmp,4000,4000,Pictures\left.bmp,,,,,,,,,,,,,StimulusPr,Pictures\black.bmp,CuedStim1,Left
POP_2,16063,1,"<?xml version=""1.0""?>\n<Clock xmlns:dt=""urn:schemas-microsoft-com:datatypes""><Description dt:dt=""string"">E-Prime Primary Realtime Clock</Description><StartTime><Timestamp dt:dt=""int"">0</Timestamp><DateUtc dt:dt=""string"">2014-06-07T21:46:32Z</DateUtc></StartTime><FrequencyChanges><FrequencyChange><Frequency dt:dt=""r8"">2793040000</Frequency><Timestamp dt:dt=""r8"">1.04785437232803E+15</Timestamp><Current dt:dt=""r8"">0</Current><DateUtc dt:dt=""string"">2014-06-07T21:46:32Z</DateUtc></FrequencyChange></FrequencyChanges></Clock>\n",60.031,1,-1146925036,0,,-999999,1,138219,t,14205,152424,6/7/2014,14:46:33,9:46:33 PM,2,Session2,SessionsList,0,,-999999,16,798954,t,39382,838336,778931,2,1,2,1,838351,,,,1,1,1,,,,Cued1,MiniBlocks1,,,,,2,1,b,-999999,19,865354,b,477,865831,White,Congruent,b,Green,0,,0,5,858341,,0,0,2,1,2,,,,,,,,,,Pictures\green.bmp,6000,2000,Pictures\black.bmp,,,,,,,,,,,,,StimulusPr,Pictures\right.bmp,CuedStim1,Right
POP_2,16063,1,"<?xml version=""1.0""?>\n<Clock xmlns:dt=""urn:schemas-microsoft-com:datatypes""><Description dt:dt=""string"">E-Prime Primary Realtime Clock</Description><StartTime><Timestamp dt:dt=""int"">0</Timestamp><DateUtc dt:dt=""string"">2014-06-07T21:46:32Z</DateUtc></StartTime><FrequencyChanges><FrequencyChange><Frequency dt:dt=""r8"">2793040000</Frequency><Timestamp dt:dt=""r8"">1.04785437232803E+15</Timestamp><Current dt:dt=""r8"">0</Current><DateUtc dt:dt=""string"">2014-06-07T21:46:32Z</DateUtc></FrequencyChange></FrequencyChanges></Clock>\n",60.031,1,-1146925036,0,,-999999,1,138219,t,14205,152424,6/7/2014,14:46:33,9:46:33 PM,2,Session2,SessionsList,0,,-999999,16,798954,t,39382,838336,778931,2,1,2,1,838351,,,,1,1,1,,,,Cued1,MiniBlocks1,,,,,3,1,b,-999999,15,873350,b,416,873766,White,Congruent,b,Green,0,,0,17,869352,,0,0,3,1,3,,,,,,,,,,Pictures\green.bmp,3000,2000,Pictures\black.bmp,,,,,,,,,,,,,StimulusPr,Pictures\right.bmp,CuedStim1,Right
POP_2,16063,1,"<?xml version=""1.0""?>\n<Clock xmlns:dt=""urn:schemas-microsoft-com:datatypes""><Description dt:dt=""string"">E-Prime Primary Realtime Clock</Description><StartTime><Timestamp dt:dt=""int"">0</Timestamp><DateUtc dt:dt=""string"">2014-06-07T21:46:32Z</DateUtc></StartTime><FrequencyChanges><FrequencyChange><Frequency dt:dt=""r8"">2793040000</Frequency><Timestamp dt:dt=""r8"">1.04785437232803E+15</Timestamp><Current dt:dt=""r8"">0</Current><DateUtc dt:dt=""string"">2014-06-07T21:46:32Z</DateUtc></FrequencyChange></FrequencyChanges></Clock>\n",60.031,1,-1146925036,0,,-999999,1,138219,t,14205,152424,6/7/2014,14:46:33,9:46:33 PM,2,Session2,SessionsList,0,,-999999,16,798954,t,39382,838336,778931,2,1,2,1,838351,,,,1,1,1,,,,Cued1,MiniBlocks1,,,,,4,1,b,-999999,11,881346,b,385,881731,White,Incongruent,b,Red,0,,0,12,877348,,0,0,4,1,4,,,,,,,,,,Pictures\red.bmp,3000,16000,Pictures\left.bmp,,,,,,,,,,,,,StimulusPr,Pictures\black.bmp,CuedStim1,Left
POP_2,16063,1,"<?xml version=""1.0""?>\n<Clock xmlns:dt=""urn:schemas-microsoft-com:datatypes""><Description dt:dt=""string"">E-Prime Primary Realtime Clock</Description><StartTime><Timestamp dt:dt=""int"">0</Timestamp><DateUtc dt:dt=""string"">2014-06-07T21:46:32Z</DateUtc></StartTime><FrequencyChanges><FrequencyChange><Frequency dt:dt=""r8"">2793040000</Frequency><Timestamp dt:dt=""r8"">1.04785437232803E+15</Timestamp><Current dt:dt=""r8"">0</Current><DateUtc dt:dt=""string"">2014-06-07T21:46:32Z</DateUtc></FrequencyChange></FrequencyChanges></Clock>\n",60.031,1,-1146925036,0,,-999999,1,138219,t,14205,152424,6/7/2014,14:46:33,9:46:33 PM,2,Session2,SessionsList,0,,-999999,16,798954,t,39382,838336,778931,2,1,2,1,838351,,,,1,1,1,,,,Cued1,MiniBlocks1,,,,,5,1,r,-999999,16,903351,r,731,904082,White,Congruent,r,Green,0,,0,2,899337,,0,0,5,1,5,,,,,,,,,,Pictures\green.bmp,3000,16000,Pictures\left.bmp,,,,,,,,,,,,,StimulusPr,Pictures\black.bmp,CuedStim1,Left
POP_2,16063,1,"<?xml version=""1.0""?>\n<Clock xmlns:dt=""urn:schemas-microsoft-com:datatypes""><Description dt:dt=""string"">E-Prime Primary Realtime Clock</Description><StartTime><Timestamp dt:dt=""int"">0</Timestamp><DateUtc dt:dt=""string"">2014-06-07T21:46:32Z</DateUtc></StartTime><FrequencyChanges><FrequencyChange><Frequency dt:dt=""r8"">2793040000</Frequency><Timestamp dt:dt=""r8"">1.04785437232803E+15</Timestamp><Current dt:dt=""r8"">0</Current><DateUtc dt:dt=""string"">2014-06-07T21:46:32Z</DateUtc></FrequencyChange></FrequencyChanges></Clock>\n",60.031,1,-1146925036,0,,-999999,1,138219,t,14205,152424,6/7/2014,14:46:33,9:46:33 PM,2,Session2,SessionsList,0,,-999999,16,798954,t,39382,838336,778931,2,1,2,1,838351,,,,1,1,1,,,,Cued1,MiniBlocks1,,,,,6,1,r,-999999,18,931354,r,434,931788,White,Congruent,r,Green,0,,0,9,921326,,0,0,6,1,6,,,,,,,,,,Pictures\green.bmp,9000,10000,Pictures\left.bmp,,,,,,,,,,,,,StimulusPr,Pictures\black.bmp,CuedStim1,Left
POP_2,16063,1,"<?xml version=""1.0""?>\n<Clock xmlns:dt=""urn:schemas-microsoft-com:datatypes""><Description dt:dt=""string"">E-Prime Primary Realtime Clock</Description><StartTime><Timestamp dt:dt=""int"">0</Timestamp><DateUtc dt:dt=""string"">2014-06-07T21:46:32Z</DateUtc></StartTime><FrequencyChanges><FrequencyChange><Frequency dt:dt=""r8"">2793040000</Frequency><Timestamp dt:dt=""r8"">1.04785437232803E+15</Timestamp><Current dt:dt=""r8"">0</Current><DateUtc dt:dt=""string"">2014-06-07T21:46:32Z</DateUtc></FrequencyChange></FrequencyChanges></Clock>\n",60.031,1,-1146925036,0,,-999999,1,138219,t,14205,152424,6/7/2014,14:46:33,9:46:33 PM,2,Session2,SessionsList,0,,-999999,16,798954,t,39382,838336,778931,2,1,2,1,838351,,,,1,1,1,,,,Cued1,MiniBlocks1,,,,,7,1,b,-999999,11,947346,b,405,947751,White,Congruent,b,Green,0,,0,13,943348,,0,0,7,1,7,,,,,,,,,,Pictures\green.bmp,3000,16000,Pictures\black.bmp,,,,,,,,,,,,,StimulusPr,Pictures\right.bmp,CuedStim1,Right
POP_2,16063,1,"<?xml version=""1.0""?>\n<Clock xmlns:dt=""urn:schemas-microsoft-com:datatypes""><Description dt:dt=""string"">E-Prime Primary Realtime Clock</Description><StartTime><Timestamp dt:dt=""int"">0</Timestamp><DateUtc dt:dt=""string"">2014-06-07T21:46:32Z</DateUtc></StartTime><FrequencyChanges><FrequencyChange><Frequency dt:dt=""r8"">2793040000</Frequency><Timestamp dt:dt=""r8"">1.04785437232803E+15</Timestamp><Current dt:dt=""r8"">0</Current><DateUtc dt:dt=""string"">2014-06-07T21:46:32Z</DateUtc></FrequencyChange></FrequencyChanges></Clock>\n",60.031,1,-1146925036,0,,-999999,1,138219,t,14205,152424,6/7/2014,14:46:33,9:46:33 PM,2,Session2,SessionsList,0,,-999999,16,798954,t,39382,838336,778931,2,1,2,1,838351,,,,1,1,1,,,,Cued1,MiniBlocks1,,,,,8,1,r,-999999,16,970351,r,413,970764,White,Incongruent,r,Red,0,,0,2,965337,,0,0,8,1,8,,,,,,,,,,Pictures\red.bmp,4000,2000,Pictures\black.bmp,,,,,,,,,,,,,StimulusPr,Pictures\right.bmp,CuedStim1,Right
POP_2,16063,1,"<?xml version=""1.0""?>\n<Clock xmlns:dt=""urn:schemas-microsoft-com:datatypes""><Description dt:dt=""string"">E-Prime Primary Realtime Clock</Description><StartTime><Timestamp dt:dt=""int"">0</Timestamp><DateUtc dt:dt=""string"">2014-06-07T21:46:32Z</DateUtc></StartTime><FrequencyChanges><FrequencyChange><Frequency dt:dt=""r8"">2793040000</Frequency><Timestamp dt:dt=""r8"">1.04785437232803E+15</Timestamp><Current dt:dt=""r8"">0</Current><DateUtc dt:dt=""string"">2014-06-07T21:46:32Z</DateUtc></FrequencyChange></FrequencyChanges></Clock>\n",60.031,1,-1146925036,0,,-999999,1,138219,t,14205,152424,6/7/2014,14:46:33,9:46:33 PM,2,Session2,SessionsList,0,,-999999,16,798954,t,39382,838336,778931,2,1,2,1,838351,,,,1,1,1,,,,Cued1,MiniBlocks1,,,,,9,1,b,-999999,11,979346,b,333,979679,White,Congruent,b,Green,0,,0,14,974349,,0,0,9,1,9,,,,,,,,,,Pictures\green.bmp,4000,2000,Pictures\black.bmp,,,,,,,,,,,,,StimulusPr,Pictures\right.bmp,CuedStim1,Right
POP_2,16063,1,"<?xml version=""1.0""?>\n<Clock xmlns:dt=""urn:schemas-microsoft-com:datatypes""><Description dt:dt=""string"">E-Prime Primary Realtime Clock</Description><StartTime><Timestamp dt:dt=""int"">0</Timestamp><DateUtc dt:dt=""string"">2014-06-07T21:46:32Z</DateUtc></StartTime><FrequencyChanges><FrequencyChange><Frequency dt:dt=""r8"">2793040000</Frequency><Timestamp dt:dt=""r8"">1.04785437232803E+15</Timestamp><Current dt:dt=""r8"">0</Current><DateUtc dt:dt=""string"">2014-06-07T21:46:32Z</DateUtc></FrequencyChange></FrequencyChanges></Clock>\n",60.031,1,-1146925036,0,,-999999,1,138219,t,14205,152424,6/7/2014,14:46:33,9:46:33 PM,2,Session2,SessionsList,0,,-999999,16,798954,t,39382,838336,778931,2,1,2,1,838351,,,,1,1,1,,,,Cued1,MiniBlocks1,,,,,10,1,r,-999999,7,987342,r,408,987750,White,Congruent,r,Green,0,,0,9,983344,,0,0,10,1,10,,,,,,,,,,Pictures\green.bmp,3000,2000,Pictures\left.bmp,,,,,,,,,,,,,StimulusPr,Pictures\black.bmp,CuedStim1,Left
POP_2,16063,1,"<?xml version=""1.0""?>\n<Clock xmlns:dt=""urn:schemas-microsoft-com:datatypes""><Description dt:dt=""string"">E-Prime Primary Realtime Clock</Description><StartTime><Timestamp dt:dt=""int"">0</Timestamp><DateUtc dt:dt=""string"">2014-06-07T21:46:32Z</DateUtc></StartTime><FrequencyChanges><FrequencyChange><Frequency dt:dt=""r8"">2793040000</Frequency><Timestamp dt:dt=""r8"">1.04785437232803E+15</Timestamp><Current dt:dt=""r8"">0</Current><DateUtc dt:dt=""string"">2014-06-07T21:46:32Z</DateUtc></FrequencyChange></FrequencyChanges></Clock>\n",60.031,1,-1146925036,0,,-999999,1,138219,t,14205,152424,6/7/2014,14:46:33,9:46:33 PM,2,Session2,SessionsList,0,,-999999,16,798954,t,39382,838336,778931,2,1,2,2,,,,,2,1,2,,,,NonCued1,MiniBlocks1,989775,,,,1,1,r,-999999,15,1004351,r,426,1004777,Green,Congruent,r,White,0,,0,17,999353,,0,0,,,,,,,,,,,,,Pictures\white.bmp,4000,2000,Pictures\GreenLeft.bmp,1,1,1,,,,,,,,,,StimulusPr,Pictures\black.bmp,NonCuedStim1,Left
POP_2,16063,1,"<?xml version=""1.0""?>\n<Clock xmlns:dt=""urn:schemas-microsoft-com:datatypes""><Description dt:dt=""string"">E-Prime Primary Realtime Clock</Description><StartTime><Timestamp dt:dt=""int"">0</Timestamp><DateUtc dt:dt=""string"">2014-06-07T21:46:32Z</DateUtc></StartTime><FrequencyChanges><FrequencyChange><Frequency dt:dt=""r8"">2793040000</Frequency><Timestamp dt:dt=""r8"">1.04785437232803E+15</Timestamp><Current dt:dt=""r8"">0</Current><DateUtc dt:dt=""string"">2014-06-07T21:46:32Z</DateUtc></FrequencyChange></FrequencyChanges></Clock>\n",60.031,1,-1146925036,0,,-999999,1,138219,t,14205,152424,6/7/2014,14:46:33,9:46:33 PM,2,Session2,SessionsList,0,,-999999,16,798954,t,39382,838336,778931,2,1,2,2,,,,,2,1,2,,,,NonCued1,MiniBlocks1,989775,,,,2,1,b,-999999,10,1015345,b,510,1015855,Green,Congruent,b,White,0,,0,13,1008349,,0,0,,,,,,,,,,,,,Pictures\white.bmp,6000,16000,Pictures\black.bmp,2,1,2,,,,,,,,,,StimulusPr,Pictures\GreenRight.bmp,NonCuedStim1,Right
POP_2,16063,1,"<?xml version=""1.0""?>\n<Clock xmlns:dt=""urn:schemas-microsoft-com:datatypes""><Description dt:dt=""string"">E-Prime Primary Realtime Clock</Description><StartTime><Timestamp dt:dt=""int"">0</Timestamp><DateUtc dt:dt=""string"">2014-06-07T21:46:32Z</DateUtc></StartTime><FrequencyChanges><FrequencyChange><Frequency dt:dt=""r8"">2793040000</Frequency><Timestamp dt:dt=""r8"">1.04785437232803E+15</Timestamp><Current dt:dt=""r8"">0</Current><DateUtc dt:dt=""string"">2014-06-07T21:46:32Z</DateUtc></FrequencyChange></FrequencyChanges></Clock>\n",60.031,1,-1146925036,0,,-999999,1,138219,t,14205,152424,6/7/2014,14:46:33,9:46:33 PM,2,Session2,SessionsList,0,,-999999,16,798954,t,39382,838336,778931,2,1,2,2,,,,,2,1,2,,,,NonCued1,MiniBlocks1,989775,,,,3,1,r,-999999,14,1040349,r,495,1040844,Red,Incongruent,r,White,0,,0,18,1033353,,0,0,,,,,,,,,,,,,Pictures\white.bmp,6000,10000,Pictures\black.bmp,3,1,3,,,,,,,,,,StimulusPr,Pictures\RedRight.bmp,NonCuedStim1,Right
POP_2,16063,1,"<?xml version=""1.0""?>\n<Clock xmlns:dt=""urn:schemas-microsoft-com:datatypes""><Description dt:dt=""string"">E-Prime Primary Realtime Clock</Description><StartTime><Timestamp dt:dt=""int"">0</Timestamp><DateUtc dt:dt=""string"">2014-06-07T21:46:32Z</DateUtc></StartTime><FrequencyChanges><FrequencyChange><Frequency dt:dt=""r8"">2793040000</Frequency><Timestamp dt:dt=""r8"">1.04785437232803E+15</Timestamp><Current dt:dt=""r8"">0</Current><DateUtc dt:dt=""string"">2014-06-07T21:46:32Z</DateUtc></FrequencyChange></FrequencyChanges></Clock>\n",60.031,1,-1146925036,0,,-999999,1,138219,t,14205,152424,6/7/2014,14:46:33,9:46:33 PM,2,Session2,SessionsList,0,,-999999,16,798954,t,39382,838336,778931,2,1,2,2,,,,,2,1,2,,,,NonCued1,MiniBlocks1,989775,,,,4,1,r,-999999,3,1062338,r,559,1062897,Green,Congruent,r,White,0,,0,8,1052343,,0,0,,,,,,,,,,,,,Pictures\white.bmp,9000,10000,Pictures\GreenLeft.bmp,4,1,4,,,,,,,,,,StimulusPr,Pictures\black.bmp,NonCuedStim1,Left
POP_2,16063,1,"<?xml version=""1.0""?>\n<Clock xmlns:dt=""urn:schemas-microsoft-com:datatypes""><Description dt:dt=""string"">E-Prime Primary Realtime Clock</Description><StartTime><Timestamp dt:dt=""int"">0</Timestamp><DateUtc dt:dt=""string"">2014-06-07T21:46:32Z</DateUtc></StartTime><FrequencyChanges><FrequencyChange><Frequency dt:dt=""r8"">2793040000</Frequency><Timestamp dt:dt=""r8"">1.04785437232803E+15</Timestamp><Current dt:dt=""r8"">0</Current><DateUtc dt:dt=""string"">2014-06-07T21:46:32Z</DateUtc></FrequencyChange></FrequencyChanges></Clock>\n",60.031,1,-1146925036,0,,-999999,1,138219,t,14205,152424,6/7/2014,14:46:33,9:46:33 PM,2,Session2,SessionsList,0,,-999999,16,798954,t,39382,838336,778931,2,1,2,2,,,,,2,1,2,,,,NonCued1,MiniBlocks1,989775,,,,5,1,b,-999999,12,1078347,b,397,1078744,Green,Congruent,b,White,0,,0,14,1074349,,0,0,,,,,,,,,,,,,Pictures\white.bmp,3000,2000,Pictures\black.bmp,5,1,5,,,,,,,,,,StimulusPr,Pictures\GreenRight.bmp,NonCuedStim1,Right
POP_2,16063,1,"<?xml version=""1.0""?>\n<Clock xmlns:dt=""urn:schemas-microsoft-com:datatypes""><Description dt:dt=""string"">E-Prime Primary Realtime Clock</Description><StartTime><Timestamp dt:dt=""int"">0</Timestamp><DateUtc dt:dt=""string"">2014-06-07T21:46:32Z</DateUtc></StartTime><FrequencyChanges><FrequencyChange><Frequency dt:dt=""r8"">2793040000</Frequency><Timestamp dt:dt=""r8"">1.04785437232803E+15</Timestamp><Current dt:dt=""r8"">0</Current><DateUtc dt:dt=""string"">2014-06-07T21:46:32Z</DateUtc></FrequencyChange></FrequencyChanges></Clock>\n",60.031,1,-1146925036,0,,-999999,1,138219,t,14205,152424,6/7/2014,14:46:33,9:46:33 PM,2,Session2,SessionsList,0,,-999999,16,798954,t,39382,838336,778931,2,1,2,2,,,,,2,1,2,,,,NonCued1,MiniBlocks1,989775,,,,6,1,b,-999999,7,1087342,b,503,1087845,Red,Incongruent,b,White,0,,0,10,1082345,,0,0,,,,,,,,,,,,,Pictures\white.bmp,4000,16000,Pictures\RedLeft.bmp,6,1,6,,,,,,,,,,StimulusPr,Pictures\black.bmp,NonCuedStim1,Left
POP_2,16063,1,"<?xml version=""1.0""?>\n<Clock xmlns:dt=""urn:schemas-microsoft-com:datatypes""><Description dt:dt=""string"">E-Prime Primary Realtime Clock</Description><StartTime><Timestamp dt:dt=""int"">0</Timestamp><DateUtc dt:dt=""string"">2014-06-07T21:46:32Z</DateUtc></StartTime><FrequencyChanges><FrequencyChange><Frequency dt:dt=""r8"">2793040000</Frequency><Timestamp dt:dt=""r8"">1.04785437232803E+15</Timestamp><Current dt:dt=""r8"">0</Current><DateUtc dt:dt=""string"">2014-06-07T21:46:32Z</DateUtc></FrequencyChange></FrequencyChanges></Clock>\n",60.031,1,-1146925036,0,,-999999,1,138219,t,14205,152424,6/7/2014,14:46:33,9:46:33 PM,2,Session2,SessionsList,0,,-999999,16,798954,t,39382,838336,778931,2,1,2,2,,,,,2,1,2,,,,NonCued1,MiniBlocks1,989775,,,,7,1,b,-999999,13,1109348,b,446,1109794,Green,Congruent,b,White,0,,0,15,1105350,,0,0,,,,,,,,,,,,,Pictures\white.bmp,3000,4000,Pictures\black.bmp,7,1,7,,,,,,,,,,StimulusPr,Pictures\GreenRight.bmp,NonCuedStim1,Right
POP_2,16063,1,"<?xml version=""1.0""?>\n<Clock xmlns:dt=""urn:schemas-microsoft-com:datatypes""><Description dt:dt=""string"">E-Prime Primary Realtime Clock</Description><StartTime><Timestamp dt:dt=""int"">0</Timestamp><DateUtc dt:dt=""string"">2014-06-07T21:46:32Z</DateUtc></StartTime><FrequencyChanges><FrequencyChange><Frequency dt:dt=""r8"">2793040000</Frequency><Timestamp dt:dt=""r8"">1.04785437232803E+15</Timestamp><Current dt:dt=""r8"">0</Current><DateUtc dt:dt=""string"">2014-06-07T21:46:32Z</DateUtc></FrequencyChange></FrequencyChanges></Clock>\n",60.031,1,-1146925036,0,,-999999,1,138219,t,14205,152424,6/7/2014,14:46:33,9:46:33 PM,2,Session2,SessionsList,0,,-999999,16,798954,t,39382,838336,778931,2,1,2,2,,,,,2,1,2,,,,NonCued1,MiniBlocks1,989775,,,,8,1,b,-999999,8,1119343,b,403,1119746,Green,Congruent,b,White,0,,0,10,1115345,,0,0,,,,,,,,,,,,,Pictures\white.bmp,3000,4000,Pictures\black.bmp,8,1,8,,,,,,,,,,StimulusPr,Pictures\GreenRight.bmp,NonCuedStim1,Right
POP_2,16063,1,"<?xml version=""1.0""?>\n<Clock xmlns:dt=""urn:schemas-microsoft-com:datatypes""><Description dt:dt=""string"">E-Prime Primary Realtime Clock</Description><StartTime><Timestamp dt:dt=""int"">0</Timestamp><DateUtc dt:dt=""string"">2014-06-07T21:46:32Z</DateUtc></StartTime><FrequencyChanges><FrequencyChange><Frequency dt:dt=""r8"">2793040000</Frequency><Timestamp dt:dt=""r8"">1.04785437232803E+15</Timestamp><Current dt:dt=""r8"">0</Current><DateUtc dt:dt=""string"">2014-06-07T21:46:32Z</DateUtc></FrequencyChange></FrequencyChanges></Clock>\n",60.031,1,-1146925036,0,,-999999,1,138219,t,14205,152424,6/7/2014,14:46:33,9:46:33 PM,2,Session2,SessionsList,0,,-999999,16,798954,t,39382,838336,778931,2,1,2,2,,,,,2,1,2,,,,NonCued1,MiniBlocks1,989775,,,,9,1,b,-999999,5,1135335,b,492,1135827,Red,Incongruent,b,White,0,,0,4,1125340,,0,0,,,,,,,,,,,,,Pictures\white.bmp,9000,2000,Pictures\RedLeft.bmp,9,1,9,,,,,,,,,,StimulusPr,Pictures\black.bmp,NonCuedStim1,Left
POP_2,16063,1,"<?xml version=""1.0""?>\n<Clock xmlns:dt=""urn:schemas-microsoft-com:datatypes""><Description dt:dt=""string"">E-Prime Primary Realtime Clock</Description><StartTime><Timestamp dt:dt=""int"">0</Timestamp><DateUtc dt:dt=""string"">2014-06-07T21:46:32Z</DateUtc></StartTime><FrequencyChanges><FrequencyChange><Frequency dt:dt=""r8"">2793040000</Frequency><Timestamp dt:dt=""r8"">1.04785437232803E+15</Timestamp><Current dt:dt=""r8"">0</Current><DateUtc dt:dt=""string"">2014-06-07T21:46:32Z</DateUtc></FrequencyChange></FrequencyChanges></Clock>\n",60.031,1,-1146925036,0,,-999999,1,138219,t,14205,152424,6/7/2014,14:46:33,9:46:33 PM,2,Session2,SessionsList,0,,-999999,16,798954,t,39382,838336,778931,2,1,2,2,,,,,2,1,2,,,,NonCued1,MiniBlocks1,989775,,,,10,1,r,-999999,11,1146346,r,473,1146819,Green,Congruent,r,White,0,,0,15,1139350,,0,0,,,,,,,,,,,,,Pictures\white.bmp,6000,2000,Pictures\GreenLeft.bmp,10,1,10,,,,,,,,,,StimulusPr,Pictures\black.bmp,NonCuedStim1,Left
POP_2,16063,1,"<?xml version=""1.0""?>\n<Clock xmlns:dt=""urn:schemas-microsoft-com:datatypes""><Description dt:dt=""string"">E-Prime Primary Realtime Clock</Description><StartTime><Timestamp dt:dt=""int"">0</Timestamp><DateUtc dt:dt=""string"">2014-06-07T21:46:32Z</DateUtc></StartTime><FrequencyChanges><FrequencyChange><Frequency dt:dt=""r8"">2793040000</Frequency><Timestamp dt:dt=""r8"">1.04785437232803E+15</Timestamp><Current dt:dt=""r8"">0</Current><DateUtc dt:dt=""string"">2014-06-07T21:46:32Z</DateUtc></FrequencyChange></FrequencyChanges></Clock>\n",60.031,1,-1146925036,0,,-999999,1,138219,t,14205,152424,6/7/2014,14:46:33,9:46:33 PM,2,Session2,SessionsList,0,,-999999,16,798954,t,39382,838336,778931,2,1,2,3,,,,,3,1,3,,,,NonCued2,MiniBlocks1,,1148845,,,1,1,b,-999999,16,1169351,b,357,1169708,Green,Congruent,b,White,0,,0,5,1159339,,0,0,,,,,,,,,,,,,Pictures\white.bmp,9000,10000,Pictures\black.bmp,,,,1,1,1,,,,,,,StimulusPr,Pictures\GreenRight.bmp,NonCuedStim2,Right
POP_2,16063,1,"<?xml version=""1.0""?>\n<Clock xmlns:dt=""urn:schemas-microsoft-com:datatypes""><Description dt:dt=""string"">E-Prime Primary Realtime Clock</Description><StartTime><Timestamp dt:dt=""int"">0</Timestamp><DateUtc dt:dt=""string"">2014-06-07T21:46:32Z</DateUtc></StartTime><FrequencyChanges><FrequencyChange><Frequency dt:dt=""r8"">2793040000</Frequency><Timestamp dt:dt=""r8"">1.04785437232803E+15</Timestamp><Current dt:dt=""r8"">0</Current><DateUtc dt:dt=""string"">2014-06-07T21:46:32Z</DateUtc></FrequencyChange></FrequencyChanges></Clock>\n",60.031,1,-1146925036,0,,-999999,1,138219,t,14205,152424,6/7/2014,14:46:33,9:46:33 PM,2,Session2,SessionsList,0,,-999999,16,798954,t,39382,838336,778931,2,1,2,3,,,,,3,1,3,,,,NonCued2,MiniBlocks1,,1148845,,,2,1,r,-999999,7,1185343,r,466,1185809,Green,Congruent,r,White,0,,0,10,1181345,,0,0,,,,,,,,,,,,,Pictures\white.bmp,3000,2000,Pictures\GreenLeft.bmp,,,,2,1,2,,,,,,,StimulusPr,Pictures\black.bmp,NonCuedStim2,Left
POP_2,16063,1,"<?xml version=""1.0""?>\n<Clock xmlns:dt=""urn:schemas-microsoft-com:datatypes""><Description dt:dt=""string"">E-Prime Primary Realtime Clock</Description><StartTime><Timestamp dt:dt=""int"">0</Timestamp><DateUtc dt:dt=""string"">2014-06-07T21:46:32Z</DateUtc></StartTime><FrequencyChanges><FrequencyChange><Frequency dt:dt=""r8"">2793040000</Frequency><Timestamp dt:dt=""r8"">1.04785437232803E+15</Timestamp><Current dt:dt=""r8"">0</Current><DateUtc dt:dt=""string"">2014-06-07T21:46:32Z</DateUtc></FrequencyChange></FrequencyChanges></Clock>\n",60.031,1,-1146925036,0,,-999999,1,138219,t,14205,152424,6/7/2014,14:46:33,9:46:33 PM,2,Session2,SessionsList,0,,-999999,16,798954,t,39382,838336,778931,2,1,2,3,,,,,3,1,3,,,,NonCued2,MiniBlocks1,,1148845,,,3,1,r,-999999,4,1193339,r,521,1193860,Red,Incongruent,r,White,0,,0,5,1189341,,0,0,,,,,,,,,,,,,Pictures\white.bmp,3000,2000,Pictures\black.bmp,,,,3,1,3,,,,,,,StimulusPr,Pictures\RedRight.bmp,NonCuedStim2,Right
POP_2,16063,1,"<?xml version=""1.0""?>\n<Clock xmlns:dt=""urn:schemas-microsoft-com:datatypes""><Description dt:dt=""string"">E-Prime Primary Realtime Clock</Description><StartTime><Timestamp dt:dt=""int"">0</Timestamp><DateUtc dt:dt=""string"">2014-06-07T21:46:32Z</DateUtc></StartTime><FrequencyChanges><FrequencyChange><Frequency dt:dt=""r8"">2793040000</Frequency><Timestamp dt:dt=""r8"">1.04785437232803E+15</Timestamp><Current dt:dt=""r8"">0</Current><DateUtc dt:dt=""string"">2014-06-07T21:46:32Z</DateUtc></FrequencyChange></FrequencyChanges></Clock>\n",60.031,1,-1146925036,0,,-999999,1,138219,t,14205,152424,6/7/2014,14:46:33,9:46:33 PM,2,Session2,SessionsList,0,,-999999,16,798954,t,39382,838336,778931,2,1,2,3,,,,,3,1,3,,,,NonCued2,MiniBlocks1,,1148845,,,4,1,r,-999999,16,1202351,r,499,1202850,Green,Congruent,r,White,0,,0,2,1197337,,0,0,,,,,,,,,,,,,Pictures\white.bmp,4000,16000,Pictures\GreenLeft.bmp,,,,4,1,4,,,,,,,StimulusPr,Pictures\black.bmp,NonCuedStim2,Left
POP_2,16063,1,"<?xml version=""1.0""?>\n<Clock xmlns:dt=""urn:schemas-microsoft-com:datatypes""><Description dt:dt=""string"">E-Prime Primary Realtime Clock</Description><StartTime><Timestamp dt:dt=""int"">0</Timestamp><DateUtc dt:dt=""string"">2014-06-07T21:46:32Z</DateUtc></StartTime><FrequencyChanges><FrequencyChange><Frequency dt:dt=""r8"">2793040000</Frequency><Timestamp dt:dt=""r8"">1.04785437232803E+15</Timestamp><Current dt:dt=""r8"">0</Current><DateUtc dt:dt=""string"">2014-06-07T21:46:32Z</DateUtc></FrequencyChange></FrequencyChanges></Clock>\n",60.031,1,-1146925036,0,,-999999,1,138219,t,14205,152424,6/7/2014,14:46:33,9:46:33 PM,2,Session2,SessionsList,0,,-999999,16,798954,t,39382,838336,778931,2,1,2,3,,,,,3,1,3,,,,NonCued2,MiniBlocks1,,1148845,,,5,1,r,-999999,4,1227339,r,479,1227818,Green,Congruent,r,White,0,,0,4,1220325,,0,0,,,,,,,,,,,,,Pictures\white.bmp,6000,4000,Pictures\GreenLeft.bmp,,,,5,1,5,,,,,,,StimulusPr,Pictures\black.bmp,NonCuedStim2,Left
POP_2,16063,1,"<?xml version=""1.0""?>\n<Clock xmlns:dt=""urn:schemas-microsoft-com:datatypes""><Description dt:dt=""string"">E-Prime Primary Realtime Clock</Description><StartTime><Timestamp dt:dt=""int"">0</Timestamp><DateUtc dt:dt=""string"">2014-06-07T21:46:32Z</DateUtc></StartTime><FrequencyChanges><FrequencyChange><Frequency dt:dt=""r8"">2793040000</Frequency><Timestamp dt:dt=""r8"">1.04785437232803E+15</Timestamp><Current dt:dt=""r8"">0</Current><DateUtc dt:dt=""string"">2014-06-07T21:46:32Z</DateUtc></FrequencyChange></FrequencyChanges></Clock>\n",60.031,1,-1146925036,0,,-999999,1,138219,t,14205,152424,6/7/2014,14:46:33,9:46:33 PM,2,Session2,SessionsList,0,,-999999,16,798954,t,39382,838336,778931,2,1,2,3,,,,,3,1,3,,,,NonCued2,MiniBlocks1,,1148845,,,6,1,b,-999999,16,1237350,b,475,1237825,Red,Incongruent,b,White,0,,0,17,1233352,,0,0,,,,,,,,,,,,,Pictures\white.bmp,3000,4000,Pictures\RedLeft.bmp,,,,6,1,6,,,,,,,StimulusPr,Pictures\black.bmp,NonCuedStim2,Left
POP_2,16063,1,"<?xml version=""1.0""?>\n<Clock xmlns:dt=""urn:schemas-microsoft-com:datatypes""><Description dt:dt=""string"">E-Prime Primary Realtime Clock</Description><StartTime><Timestamp dt:dt=""int"">0</Timestamp><DateUtc dt:dt=""string"">2014-06-07T21:46:32Z</DateUtc></StartTime><FrequencyChanges><FrequencyChange><Frequency dt:dt=""r8"">2793040000</Frequency><Timestamp dt:dt=""r8"">1.04785437232803E+15</Timestamp><Current dt:dt=""r8"">0</Current><DateUtc dt:dt=""string"">2014-06-07T21:46:32Z</DateUtc></FrequencyChange></FrequencyChanges></Clock>\n",60.031,1,-1146925036,0,,-999999,1,138219,t,14205,152424,6/7/2014,14:46:33,9:46:33 PM,2,Session2,SessionsList,0,,-999999,16,798954,t,39382,838336,778931,2,1,2,3,,,,,3,1,3,,,,NonCued2,MiniBlocks1,,1148845,,,7,1,b,-999999,11,1248345,b,395,1248740,Green,Congruent,b,White,0,,0,13,1243347,,0,0,,,,,,,,,,,,,Pictures\white.bmp,4000,16000,Pictures\black.bmp,,,,7,1,7,,,,,,,StimulusPr,Pictures\GreenRight.bmp,NonCuedStim2,Right
POP_2,16063,1,"<?xml version=""1.0""?>\n<Clock xmlns:dt=""urn:schemas-microsoft-com:datatypes""><Description dt:dt=""string"">E-Prime Primary Realtime Clock</Description><StartTime><Timestamp dt:dt=""int"">0</Timestamp><DateUtc dt:dt=""string"">2014-06-07T21:46:32Z</DateUtc></StartTime><FrequencyChanges><FrequencyChange><Frequency dt:dt=""r8"">2793040000</Frequency><Timestamp dt:dt=""r8"">1.04785437232803E+15</Timestamp><Current dt:dt=""r8"">0</Current><DateUtc dt:dt=""string"">2014-06-07T21:46:32Z</DateUtc></FrequencyChange></FrequencyChanges></Clock>\n",60.031,1,-1146925036,0,,-999999,1,138219,t,14205,152424,6/7/2014,14:46:33,9:46:33 PM,2,Session2,SessionsList,0,,-999999,16,798954,t,39382,838336,778931,2,1,2,3,,,,,3,1,3,,,,NonCued2,MiniBlocks1,,1148845,,,8,1,r,-999999,12,1276347,r,403,1276750,Green,Congruent,r,White,0,,0,17,1266352,,0,0,,,,,,,,,,,,,Pictures\white.bmp,9000,2000,Pictures\GreenLeft.bmp,,,,8,1,8,,,,,,,StimulusPr,Pictures\black.bmp,NonCuedStim2,Left
POP_2,16063,1,"<?xml version=""1.0""?>\n<Clock xmlns:dt=""urn:schemas-microsoft-com:datatypes""><Description dt:dt=""string"">E-Prime Primary Realtime Clock</Description><StartTime><Timestamp dt:dt=""int"">0</Timestamp><DateUtc dt:dt=""string"">2014-06-07T21:46:32Z</DateUtc></StartTime><FrequencyChanges><FrequencyChange><Frequency dt:dt=""r8"">2793040000</Frequency><Timestamp dt:dt=""r8"">1.04785437232803E+15</Timestamp><Current dt:dt=""r8"">0</Current><DateUtc dt:dt=""string"">2014-06-07T21:46:32Z</DateUtc></FrequencyChange></FrequencyChanges></Clock>\n",60.031,1,-1146925036,0,,-999999,1,138219,t,14205,152424,6/7/2014,14:46:33,9:46:33 PM,2,Session2,SessionsList,0,,-999999,16,798954,t,39382,838336,778931,2,1,2,3,,,,,3,1,3,,,,NonCued2,MiniBlocks1,,1148845,,,9,1,b,-999999,8,1284343,b,394,1284737,Green,Congruent,b,White,0,,0,10,1280345,,0,0,,,,,,,,,,,,,Pictures\white.bmp,3000,10000,Pictures\black.bmp,,,,9,1,9,,,,,,,StimulusPr,Pictures\GreenRight.bmp,NonCuedStim2,Right
POP_2,16063,1,"<?xml version=""1.0""?>\n<Clock xmlns:dt=""urn:schemas-microsoft-com:datatypes""><Description dt:dt=""string"">E-Prime Primary Realtime Clock</Description><StartTime><Timestamp dt:dt=""int"">0</Timestamp><DateUtc dt:dt=""string"">2014-06-07T21:46:32Z</DateUtc></StartTime><FrequencyChanges><FrequencyChange><Frequency dt:dt=""r8"">2793040000</Frequency><Timestamp dt:dt=""r8"">1.04785437232803E+15</Timestamp><Current dt:dt=""r8"">0</Current><DateUtc dt:dt=""string"">2014-06-07T21:46:32Z</DateUtc></FrequencyChange></FrequencyChanges></Clock>\n",60.031,1,-1146925036,0,,-999999,1,138219,t,14205,152424,6/7/2014,14:46:33,9:46:33 PM,2,Session2,SessionsList,0,,-999999,16,798954,t,39382,838336,778931,2,1,2,3,,,,,3,1,3,,,,NonCued2,MiniBlocks1,,1148845,,,10,1,b,-999999,18,1300352,b,358,1300710,Green,Congruent,b,White,0,,0,2,1296337,,0,0,,,,,,,,,,,,,Pictures\white.bmp,3000,2000,Pictures\black.bmp,,,,10,1,10,,,,,,,StimulusPr,Pictures\GreenRight.bmp,NonCuedStim2,Right
POP_2,16063,1,"<?xml version=""1.0""?>\n<Clock xmlns:dt=""urn:schemas-microsoft-com:datatypes""><Description dt:dt=""string"">E-Prime Primary Realtime Clock</Description><StartTime><Timestamp dt:dt=""int"">0</Timestamp><DateUtc dt:dt=""string"">2014-06-07T21:46:32Z</DateUtc></StartTime><FrequencyChanges><FrequencyChange><Frequency dt:dt=""r8"">2793040000</Frequency><Timestamp dt:dt=""r8"">1.04785437232803E+15</Timestamp><Current dt:dt=""r8"">0</Current><DateUtc dt:dt=""string"">2014-06-07T21:46:32Z</DateUtc></FrequencyChange></FrequencyChanges></Clock>\n",60.031,1,-1146925036,0,,-999999,1,138219,t,14205,152424,6/7/2014,14:46:33,9:46:33 PM,2,Session2,SessionsList,0,,-999999,16,798954,t,39382,838336,778931,2,1,2,4,,1302734,,,4,1,4,,,,Cued2,MiniBlocks1,,,,,1,1,b,-999999,7,1319342,b,515,1319857,White,Congruent,b,Green,0,,0,12,1312346,,0,0,,,,1,1,1,,,,,,,Pictures\green.bmp,6000,4000,Pictures\black.bmp,,,,,,,,,,,,,StimulusPr,Pictures\right.bmp,CuedStim2,Right
POP_2,16063,1,"<?xml version=""1.0""?>\n<Clock xmlns:dt=""urn:schemas-microsoft-com:datatypes""><Description dt:dt=""string"">E-Prime Primary Realtime Clock</Description><StartTime><Timestamp dt:dt=""int"">0</Timestamp><DateUtc dt:dt=""string"">2014-06-07T21:46:32Z</DateUtc></StartTime><FrequencyChanges><FrequencyChange><Frequency dt:dt=""r8"">2793040000</Frequency><Timestamp dt:dt=""r8"">1.04785437232803E+15</Timestamp><Current dt:dt=""r8"">0</Current><DateUtc dt:dt=""string"">2014-06-07T21:46:32Z</DateUtc></FrequencyChange></FrequencyChanges></Clock>\n",60.031,1,-1146925036,0,,-999999,1,138219,t,14205,152424,6/7/2014,14:46:33,9:46:33 PM,2,Session2,SessionsList,0,,-999999,16,798954,t,39382,838336,778931,2,1,2,4,,1302734,,,4,1,4,,,,Cued2,MiniBlocks1,,,,,2,1,b,-999999,17,1335351,b,282,1335633,White,Congruent,b,Green,0,,0,5,1325339,,0,0,,,,2,1,2,,,,,,,Pictures\green.bmp,9000,10000,Pictures\black.bmp,,,,,,,,,,,,,StimulusPr,Pictures\right.bmp,CuedStim2,Right
POP_2,16063,1,"<?xml version=""1.0""?>\n<Clock xmlns:dt=""urn:schemas-microsoft-com:datatypes""><Description dt:dt=""string"">E-Prime Primary Realtime Clock</Description><StartTime><Timestamp dt:dt=""int"">0</Timestamp><DateUtc dt:dt=""string"">2014-06-07T21:46:32Z</DateUtc></StartTime><FrequencyChanges><FrequencyChange><Frequency dt:dt=""r8"">2793040000</Frequency><Timestamp dt:dt=""r8"">1.04785437232803E+15</Timestamp><Current dt:dt=""r8"">0</Current><DateUtc dt:dt=""string"">2014-06-07T21:46:32Z</DateUtc></FrequencyChange></FrequencyChanges></Clock>\n",60.031,1,-1146925036,0,,-999999,1,138219,t,14205,152424,6/7/2014,14:46:33,9:46:33 PM,2,Session2,SessionsList,0,,-999999,16,798954,t,39382,838336,778931,2,1,2,4,,1302734,,,4,1,4,,,,Cued2,MiniBlocks1,,,,,3,1,r,-999999,8,1351343,r,499,1351842,White,Incongruent,r,Red,0,,0,10,1347345,,0,0,,,,3,1,3,,,,,,,Pictures\red.bmp,3000,2000,Pictures\black.bmp,,,,,,,,,,,,,StimulusPr,Pictures\right.bmp,CuedStim2,Right
POP_2,16063,1,"<?xml version=""1.0""?>\n<Clock xmlns:dt=""urn:schemas-microsoft-com:datatypes""><Description dt:dt=""string"">E-Prime Primary Realtime Clock</Description><StartTime><Timestamp dt:dt=""int"">0</Timestamp><DateUtc dt:dt=""string"">2014-06-07T21:46:32Z</DateUtc></StartTime><FrequencyChanges><FrequencyChange><Frequency dt:dt=""r8"">2793040000</Frequency><Timestamp dt:dt=""r8"">1.04785437232803E+15</Timestamp><Current dt:dt=""r8"">0</Current><DateUtc dt:dt=""string"">2014-06-07T21:46:32Z</DateUtc></FrequencyChange></FrequencyChanges></Clock>\n",60.031,1,-1146925036,0,,-999999,1,138219,t,14205,152424,6/7/2014,14:46:33,9:46:33 PM,2,Session2,SessionsList,0,,-999999,16,798954,t,39382,838336,778931,2,1,2,4,,1302734,,,4,1,4,,,,Cued2,MiniBlocks1,,,,,4,1,r,-999999,4,1362338,r,489,1362827,White,Congruent,r,Green,0,,0,6,1355341,,0,0,,,,4,1,4,,,,,,,Pictures\green.bmp,6000,16000,Pictures\left.bmp,,,,,,,,,,,,,StimulusPr,Pictures\black.bmp,CuedStim2,Left
POP_2,16063,1,"<?xml version=""1.0""?>\n<Clock xmlns:dt=""urn:schemas-microsoft-com:datatypes""><Description dt:dt=""string"">E-Prime Primary Realtime Clock</Description><StartTime><Timestamp dt:dt=""int"">0</Timestamp><DateUtc dt:dt=""string"">2014-06-07T21:46:32Z</DateUtc></StartTime><FrequencyChanges><FrequencyChange><Frequency dt:dt=""r8"">2793040000</Frequency><Timestamp dt:dt=""r8"">1.04785437232803E+15</Timestamp><Current dt:dt=""r8"">0</Current><DateUtc dt:dt=""string"">2014-06-07T21:46:32Z</DateUtc></FrequencyChange></FrequencyChanges></Clock>\n",60.031,1,-1146925036,0,,-999999,1,138219,t,14205,152424,6/7/2014,14:46:33,9:46:33 PM,2,Session2,SessionsList,0,,-999999,16,798954,t,39382,838336,778931,2,1,2,4,,1302734,,,4,1,4,,,,Cued2,MiniBlocks1,,,,,5,1,b,-999999,9,1384343,b,362,1384705,White,Congruent,b,Green,0,,0,11,1380345,,0,0,,,,5,1,5,,,,,,,Pictures\green.bmp,3000,2000,Pictures\black.bmp,,,,,,,,,,,,,StimulusPr,Pictures\right.bmp,CuedStim2,Right
POP_2,16063,1,"<?xml version=""1.0""?>\n<Clock xmlns:dt=""urn:schemas-microsoft-com:datatypes""><Description dt:dt=""string"">E-Prime Primary Realtime Clock</Description><StartTime><Timestamp dt:dt=""int"">0</Timestamp><DateUtc dt:dt=""string"">2014-06-07T21:46:32Z</DateUtc></StartTime><FrequencyChanges><FrequencyChange><Frequency dt:dt=""r8"">2793040000</Frequency><Timestamp dt:dt=""r8"">1.04785437232803E+15</Timestamp><Current dt:dt=""r8"">0</Current><DateUtc dt:dt=""string"">2014-06-07T21:46:32Z</DateUtc></FrequencyChange></FrequencyChanges></Clock>\n",60.031,1,-1146925036,0,,-999999,1,138219,t,14205,152424,6/7/2014,14:46:33,9:46:33 PM,2,Session2,SessionsList,0,,-999999,16,798954,t,39382,838336,778931,2,1,2,4,,1302734,,,4,1,4,,,,Cued2,MiniBlocks1,,,,,6,1,r,-999999,5,1392339,r,297,1392636,White,Congruent,r,Green,0,,0,7,1388341,,0,0,,,,6,1,6,,,,,,,Pictures\green.bmp,3000,2000,Pictures\left.bmp,,,,,,,,,,,,,StimulusPr,Pictures\black.bmp,CuedStim2,Left
POP_2,16063,1,"<?xml version=""1.0""?>\n<Clock xmlns:dt=""urn:schemas-microsoft-com:datatypes""><Description dt:dt=""string"">E-Prime Primary Realtime Clock</Description><StartTime><Timestamp dt:dt=""int"">0</Timestamp><DateUtc dt:dt=""string"">2014-06-07T21:46:32Z</DateUtc></StartTime><FrequencyChanges><FrequencyChange><Frequency dt:dt=""r8"">2793040000</Frequency><Timestamp dt:dt=""r8"">1.04785437232803E+15</Timestamp><Current dt:dt=""r8"">0</Current><DateUtc dt:dt=""string"">2014-06-07T21:46:32Z</DateUtc></FrequencyChange></FrequencyChanges></Clock>\n",60.031,1,-1146925036,0,,-999999,1,138219,t,14205,152424,6/7/2014,14:46:33,9:46:33 PM,2,Session2,SessionsList,0,,-999999,16,798954,t,39382,838336,778931,2,1,2,4,,1302734,,,4,1,4,,,,Cued2,MiniBlocks1,,,,,7,1,b,-999999,16,1403350,b,350,1403700,White,Incongruent,b,Red,0,,0,3,1396337,,0,0,,,,7,1,7,,,,,,,Pictures\red.bmp,6000,4000,Pictures\left.bmp,,,,,,,,,,,,,StimulusPr,Pictures\black.bmp,CuedStim2,Left
POP_2,16063,1,"<?xml version=""1.0""?>\n<Clock xmlns:dt=""urn:schemas-microsoft-com:datatypes""><Description dt:dt=""string"">E-Prime Primary Realtime Clock</Description><StartTime><Timestamp dt:dt=""int"">0</Timestamp><DateUtc dt:dt=""string"">2014-06-07T21:46:32Z</DateUtc></StartTime><FrequencyChanges><FrequencyChange><Frequency dt:dt=""r8"">2793040000</Frequency><Timestamp dt:dt=""r8"">1.04785437232803E+15</Timestamp><Current dt:dt=""r8"">0</Current><DateUtc dt:dt=""string"">2014-06-07T21:46:32Z</DateUtc></FrequencyChange></FrequencyChanges></Clock>\n",60.031,1,-1146925036,0,,-999999,1,138219,t,14205,152424,6/7/2014,14:46:33,9:46:33 PM,2,Session2,SessionsList,0,,-999999,16,798954,t,39382,838336,778931,2,1,2,4,,1302734,,,4,1,4,,,,Cued2,MiniBlocks1,,,,,8,1,b,-999999,11,1414345,b,337,1414682,White,Congruent,b,Green,0,,0,13,1409347,,0,0,,,,8,1,8,,,,,,,Pictures\green.bmp,4000,4000,Pictures\black.bmp,,,,,,,,,,,,,StimulusPr,Pictures\right.bmp,CuedStim2,Right
POP_2,16063,1,"<?xml version=""1.0""?>\n<Clock xmlns:dt=""urn:schemas-microsoft-com:datatypes""><Description dt:dt=""string"">E-Prime Primary Realtime Clock</Description><StartTime><Timestamp dt:dt=""int"">0</Timestamp><DateUtc dt:dt=""string"">2014-06-07T21:46:32Z</DateUtc></StartTime><FrequencyChanges><FrequencyChange><Frequency dt:dt=""r8"">2793040000</Frequency><Timestamp dt:dt=""r8"">1.04785437232803E+15</Timestamp><Current dt:dt=""r8"">0</Current><DateUtc dt:dt=""string"">2014-06-07T21:46:32Z</DateUtc></FrequencyChange></FrequencyChanges></Clock>\n",60.031,1,-1146925036,0,,-999999,1,138219,t,14205,152424,6/7/2014,14:46:33,9:46:33 PM,2,Session2,SessionsList,0,,-999999,16,798954,t,39382,838336,778931,2,1,2,4,,1302734,,,4,1,4,,,,Cued2,MiniBlocks1,,,,,9,1,b,-999999,3,1430337,b,328,1430665,White,Incongruent,b,Red,0,,0,7,1420341,,0,0,,,,9,1,9,,,,,,,Pictures\red.bmp,9000,10000,Pictures\left.bmp,,,,,,,,,,,,,StimulusPr,Pictures\black.bmp,CuedStim2,Left
POP_2,16063,1,"<?xml version=""1.0""?>\n<Clock xmlns:dt=""urn:schemas-microsoft-com:datatypes""><Description dt:dt=""string"">E-Prime Primary Realtime Clock</Description><StartTime><Timestamp dt:dt=""int"">0</Timestamp><DateUtc dt:dt=""string"">2014-06-07T21:46:32Z</DateUtc></StartTime><FrequencyChanges><FrequencyChange><Frequency dt:dt=""r8"">2793040000</Frequency><Timestamp dt:dt=""r8"">1.04785437232803E+15</Timestamp><Current dt:dt=""r8"">0</Current><DateUtc dt:dt=""string"">2014-06-07T21:46:32Z</DateUtc></FrequencyChange></FrequencyChanges></Clock>\n",60.031,1,-1146925036,0,,-999999,1,138219,t,14205,152424,6/7/2014,14:46:33,9:46:33 PM,2,Session2,SessionsList,0,,-999999,16,798954,t,39382,838336,778931,2,1,2,4,,1302734,,,4,1,4,,,,Cued2,MiniBlocks1,,,,,10,1,r,-999999,8,1452342,r,348,1452690,White,Congruent,r,Green,0,,0,13,1442347,,0,0,,,,10,1,10,,,,,,,Pictures\green.bmp,9000,10000,Pictures\left.bmp,,,,,,,,,,,,,StimulusPr,Pictures\black.bmp,CuedStim2,Left
