ExperimentName,Subject,Session,Clock.Information,Display.RefreshRate,Group,RandomSeed,Session1Onset.ACC,Session1Onset.CRESP,Session1Onset.DurationError,Session1Onset.OnsetDelay,Session1Onset.OnsetTime,Session1Onset.RESP,Session1Onset.RT,Session1Onset.RTTime,SessionDate,SessionTime,SessionTimeUtc,Block,Procedure[Block],Running[Block],Session2Onset.ACC,Session2Onset.CRESP,Session2Onset.DurationError,Session2Onset.OnsetDelay,Session2Onset.OnsetTime,Session2Onset.RESP,Session2Onset.RT,Session2Onset.RTTime,SessionBreak.OnsetTime,SessionsList,SessionsList.Cycle,SessionsList.Sample,Trial,CuedPrompt1.OnsetTime,CuedPrompt2.OnsetTime,CuedPrompt3.OnsetTime,CuedPrompt4.OnsetTime,MiniBlocks1,MiniBlocks1.Cycle,MiniBlocks1.Sample,MiniBlocks2,MiniBlocks2.Cycle,MiniBlocks2.Sample,Procedure[Trial],Running[Trial],UncuedPrompt1.OnsetTime,UncuedPrompt2.OnsetTime,UncuedPrompt3.OnsetTime,UncuedPrompt4.OnsetTime,SubTrial,Arrow1.ACC,Arrow1.CRESP,Arrow1.DurationError,Arrow1.OnsetDelay,Arrow1.OnsetTime,Arrow1.RESP,Arrow1.RT,Arrow1.RTTime,ArrowColor,Congruence,CorrectResp,Cue,Cue.ACC,Cue.CRESP,Cue.DurationError,Cue.OnsetDelay,Cue.OnsetTime,Cue.RESP,Cue.RT,Cue.RTTime,CuedStim1,CuedStim1.Cycle,CuedStim1.Sample,CuedStim2,CuedStim2.Cycle,CuedStim2.Sample,CuedStim3,CuedStim3.Cycle,CuedStim3.Sample,CuedStim4,CuedStim4.Cycle,CuedStim4.Sample,CueImage,JitterCue,JitterTrial,LeftImage,NonCuedStim1,NonCuedStim1.Cycle,NonCuedStim1.Sample,NonCuedStim2,NonCuedStim2.Cycle,NonCuedStim2.Sample,NonCuedStim3,NonCuedStim3.Cycle,NonCuedStim3.Sample,NonCuedStim4,NonCuedStim4.Cycle,NonCuedStim4.Sample,Procedure[SubTrial],RightImage,Running[SubTrial],Stimulus
POP_2,16054,1,"<?xml version=""1.0""?>\n<Clock xmlns:dt=""urn:schemas-microsoft-com:datatypes""><Description dt:dt=""string"">E-Prime Primary Realtime Clock</Description><StartTime><Timestamp dt:dt=""int"">0</Timestamp><DateUtc dt:dt=""string"">2014-05-07T22:20:58Z</DateUtc></StartTime><FrequencyChanges><FrequencyChange><Frequency dt:dt=""r8"">2793030000</Frequency><Timestamp dt:dt=""r8"">40029046596092</Timestamp><Current dt:dt=""r8"">0</Current><DateUtc dt:dt=""string"">2014-05-07T22:20:58Z</DateUtc></FrequencyChange></FrequencyChanges></Clock>\n",60.03,1,480821271,0,,-999999,7,30826,t,41895,72721,5/7/2014,15:20:58,,1,Session1,SessionsList,,,,,,,,,,1,1,1,1,72722,,,,1,1,1,,,,Cued1,MiniBlocks1,,,,,1,1,r,-999999,11,86732,r,397,87129,White,Congruent,r,Green,0,,0,13,81734,,0,0,1,1,1,,,,,,,,,,Pictures\green.bmp,4000,4000,Pictures\left.bmp,,,,,,,,,,,,,StimulusPr,Pictures\black.bmp,CuedStim1,Left
POP_2,16054,1,"<?xml version=""1.0""?>\n<Clock xmlns:dt=""urn:schemas-microsoft-com:datatypes""><Description dt:dt=""string"">E-Prime Primary Realtime Clock</Description><StartTime><Timestamp dt:dt=""int"">0</Timestamp><DateUtc dt:dt=""string"">2014-05-07T22:20:58Z</DateUtc></StartTime><FrequencyChanges><FrequencyChange><Frequency dt:dt=""r8"">2793030000</Frequency><Timestamp dt:dt=""r8"">40029046596092</Timestamp><Current dt:dt=""r8"">0</Current><DateUtc dt:dt=""string"">2014-05-07T22:20:58Z</DateUtc></FrequencyChange></FrequencyChanges></Clock>\n",60.03,1,480821271,0,,-999999,7,30826,t,41895,72721,5/7/2014,15:20:58,,1,Session1,SessionsList,,,,,,,,,,1,1,1,1,72722,,,,1,1,1,,,,Cued1,MiniBlocks1,,,,,2,1,b,-999999,4,99725,b,338,100063,White,Congruent,b,Green,0,,0,8,92729,,0,0,2,1,2,,,,,,,,,,Pictures\green.bmp,6000,2000,Pictures\black.bmp,,,,,,,,,,,,,StimulusPr,Pictures\right.bmp,CuedStim1,Right
POP_2,16054,1,"<?xml version=""1.0""?>\n<Clock xmlns:dt=""urn:schemas-microsoft-com:datatypes""><Description dt:dt=""string"">E-Prime Primary Realtime Clock</Description><StartTime><Timestamp dt:dt=""int"">0</Timestamp><DateUtc dt:dt=""string"">2014-05-07T22:20:58Z</DateUtc></StartTime><FrequencyChanges><FrequencyChange><Frequency dt:dt=""r8"">2793030000</Frequency><Timestamp dt:dt=""r8"">40029046596092</Timestamp><Current dt:dt=""r8"">0</Current><DateUtc dt:dt=""string"">2014-05-07T22:20:58Z</DateUtc></FrequencyChange></FrequencyChanges></Clock>\n",60.03,1,480821271,0,,-999999,7,30826,t,41895,72721,5/7/2014,15:20:58,,1,Session1,SessionsList,,,,,,,,,,1,1,1,1,72722,,,,1,1,1,,,,Cued1,MiniBlocks1,,,,,3,1,b,-999999,17,107738,b,382,108120,White,Congruent,b,Green,0,,0,2,103723,,0,0,3,1,3,,,,,,,,,,Pictures\green.bmp,3000,2000,Pictures\black.bmp,,,,,,,,,,,,,StimulusPr,Pictures\right.bmp,CuedStim1,Right
POP_2,16054,1,"<?xml version=""1.0""?>\n<Clock xmlns:dt=""urn:schemas-microsoft-com:datatypes""><Description dt:dt=""string"">E-Prime Primary Realtime Clock</Description><StartTime><Timestamp dt:dt=""int"">0</Timestamp><DateUtc dt:dt=""string"">2014-05-07T22:20:58Z</DateUtc></StartTime><FrequencyChanges><FrequencyChange><Frequency dt:dt=""r8"">2793030000</Frequency><Timestamp dt:dt=""r8"">40029046596092</Timestamp><Current dt:dt=""r8"">0</Current><DateUtc dt:dt=""string"">2014-05-07T22:20:58Z</DateUtc></FrequencyChange></FrequencyChanges></Clock>\n",60.03,1,480821271,0,,-999999,7,30826,t,41895,72721,5/7/2014,15:20:58,,1,Session1,SessionsList,,,,,,,,,,1,1,1,1,72722,,,,1,1,1,,,,Cued1,MiniBlocks1,,,,,4,1,b,-999999,13,115734,b,465,116199,White,Incongruent,b,Red,0,,0,16,111736,,0,0,4,1,4,,,,,,,,,,Pictures\red.bmp,3000,16000,Pictures\left.bmp,,,,,,,,,,,,,StimulusPr,Pictures\black.bmp,CuedStim1,Left
POP_2,16054,1,"<?xml version=""1.0""?>\n<Clock xmlns:dt=""urn:schemas-microsoft-com:datatypes""><Description dt:dt=""string"">E-Prime Primary Realtime Clock</Description><StartTime><Timestamp dt:dt=""int"">0</Timestamp><DateUtc dt:dt=""string"">2014-05-07T22:20:58Z</DateUtc></StartTime><FrequencyChanges><FrequencyChange><Frequency dt:dt=""r8"">2793030000</Frequency><Timestamp dt:dt=""r8"">40029046596092</Timestamp><Current dt:dt=""r8"">0</Current><DateUtc dt:dt=""string"">2014-05-07T22:20:58Z</DateUtc></FrequencyChange></FrequencyChanges></Clock>\n",60.03,1,480821271,0,,-999999,7,30826,t,41895,72721,5/7/2014,15:20:58,,1,Session1,SessionsList,,,,,,,,,,1,1,1,1,72722,,,,1,1,1,,,,Cued1,MiniBlocks1,,,,,5,1,r,-999999,16,137723,r,342,138065,White,Congruent,r,Green,0,,0,4,133725,,0,0,5,1,5,,,,,,,,,,Pictures\green.bmp,3000,16000,Pictures\left.bmp,,,,,,,,,,,,,StimulusPr,Pictures\black.bmp,CuedStim1,Left
POP_2,16054,1,"<?xml version=""1.0""?>\n<Clock xmlns:dt=""urn:schemas-microsoft-com:datatypes""><Description dt:dt=""string"">E-Prime Primary Realtime Clock</Description><StartTime><Timestamp dt:dt=""int"">0</Timestamp><DateUtc dt:dt=""string"">2014-05-07T22:20:58Z</DateUtc></StartTime><FrequencyChanges><FrequencyChange><Frequency dt:dt=""r8"">2793030000</Frequency><Timestamp dt:dt=""r8"">40029046596092</Timestamp><Current dt:dt=""r8"">0</Current><DateUtc dt:dt=""string"">2014-05-07T22:20:58Z</DateUtc></FrequencyChange></FrequencyChanges></Clock>\n",60.03,1,480821271,0,,-999999,7,30826,t,41895,72721,5/7/2014,15:20:58,,1,Session1,SessionsList,,,,,,,,,,1,1,1,1,72722,,,,1,1,1,,,,Cued1,MiniBlocks1,,,,,6,1,r,-999999,5,165725,r,343,166068,White,Congruent,r,Green,0,,0,10,155730,,0,0,6,1,6,,,,,,,,,,Pictures\green.bmp,9000,10000,Pictures\left.bmp,,,,,,,,,,,,,StimulusPr,Pictures\black.bmp,CuedStim1,Left
POP_2,16054,1,"<?xml version=""1.0""?>\n<Clock xmlns:dt=""urn:schemas-microsoft-com:datatypes""><Description dt:dt=""string"">E-Prime Primary Realtime Clock</Description><StartTime><Timestamp dt:dt=""int"">0</Timestamp><DateUtc dt:dt=""string"">2014-05-07T22:20:58Z</DateUtc></StartTime><FrequencyChanges><FrequencyChange><Frequency dt:dt=""r8"">2793030000</Frequency><Timestamp dt:dt=""r8"">40029046596092</Timestamp><Current dt:dt=""r8"">0</Current><DateUtc dt:dt=""string"">2014-05-07T22:20:58Z</DateUtc></FrequencyChange></FrequencyChanges></Clock>\n",60.03,1,480821271,0,,-999999,7,30826,t,41895,72721,5/7/2014,15:20:58,,1,Session1,SessionsList,,,,,,,,,,1,1,1,1,72722,,,,1,1,1,,,,Cued1,MiniBlocks1,,,,,7,1,b,-999999,14,181734,b,515,182249,White,Congruent,b,Green,0,,0,15,177736,,0,0,7,1,7,,,,,,,,,,Pictures\green.bmp,3000,16000,Pictures\black.bmp,,,,,,,,,,,,,StimulusPr,Pictures\right.bmp,CuedStim1,Right
POP_2,16054,1,"<?xml version=""1.0""?>\n<Clock xmlns:dt=""urn:schemas-microsoft-com:datatypes""><Description dt:dt=""string"">E-Prime Primary Realtime Clock</Description><StartTime><Timestamp dt:dt=""int"">0</Timestamp><DateUtc dt:dt=""string"">2014-05-07T22:20:58Z</DateUtc></StartTime><FrequencyChanges><FrequencyChange><Frequency dt:dt=""r8"">2793030000</Frequency><Timestamp dt:dt=""r8"">40029046596092</Timestamp><Current dt:dt=""r8"">0</Current><DateUtc dt:dt=""string"">2014-05-07T22:20:58Z</DateUtc></FrequencyChange></FrequencyChanges></Clock>\n",60.03,1,480821271,0,,-999999,7,30826,t,41895,72721,5/7/2014,15:20:58,,1,Session1,SessionsList,,,,,,,,,,1,1,1,1,72722,,,,1,1,1,,,,Cued1,MiniBlocks1,,,,,8,1,r,-999999,18,204723,r,341,205064,White,Incongruent,r,Red,0,,0,5,199725,,0,0,8,1,8,,,,,,,,,,Pictures\red.bmp,4000,2000,Pictures\black.bmp,,,,,,,,,,,,,StimulusPr,Pictures\right.bmp,CuedStim1,Right
POP_2,16054,1,"<?xml version=""1.0""?>\n<Clock xmlns:dt=""urn:schemas-microsoft-com:datatypes""><Description dt:dt=""string"">E-Prime Primary Realtime Clock</Description><StartTime><Timestamp dt:dt=""int"">0</Timestamp><DateUtc dt:dt=""string"">2014-05-07T22:20:58Z</DateUtc></StartTime><FrequencyChanges><FrequencyChange><Frequency dt:dt=""r8"">2793030000</Frequency><Timestamp dt:dt=""r8"">40029046596092</Timestamp><Current dt:dt=""r8"">0</Current><DateUtc dt:dt=""string"">2014-05-07T22:20:58Z</DateUtc></FrequencyChange></FrequencyChanges></Clock>\n",60.03,1,480821271,0,,-999999,7,30826,t,41895,72721,5/7/2014,15:20:58,,1,Session1,SessionsList,,,,,,,,,,1,1,1,1,72722,,,,1,1,1,,,,Cued1,MiniBlocks1,,,,,9,1,b,-999999,15,213735,b,268,214003,White,Congruent,b,Green,0,,0,17,208737,,0,0,9,1,9,,,,,,,,,,Pictures\green.bmp,4000,2000,Pictures\black.bmp,,,,,,,,,,,,,StimulusPr,Pictures\right.bmp,CuedStim1,Right
POP_2,16054,1,"<?xml version=""1.0""?>\n<Clock xmlns:dt=""urn:schemas-microsoft-com:datatypes""><Description dt:dt=""string"">E-Prime Primary Realtime Clock</Description><StartTime><Timestamp dt:dt=""int"">0</Timestamp><DateUtc dt:dt=""string"">2014-05-07T22:20:58Z</DateUtc></StartTime><FrequencyChanges><FrequencyChange><Frequency dt:dt=""r8"">2793030000</Frequency><Timestamp dt:dt=""r8"">40029046596092</Timestamp><Current dt:dt=""r8"">0</Current><DateUtc dt:dt=""string"">2014-05-07T22:20:58Z</DateUtc></FrequencyChange></FrequencyChanges></Clock>\n",60.03,1,480821271,0,,-999999,7,30826,t,41895,72721,5/7/2014,15:20:58,,1,Session1,SessionsList,,,,,,,,,,1,1,1,1,72722,,,,1,1,1,,,,Cued1,MiniBlocks1,,,,,10,1,r,-999999,10,221731,r,282,222013,White,Congruent,r,Green,0,,0,16,217733,,0,0,10,1,10,,,,,,,,,,Pictures\green.bmp,3000,2000,Pictures\left.bmp,,,,,,,,,,,,,StimulusPr,Pictures\black.bmp,CuedStim1,Left
POP_2,16054,1,"<?xml version=""1.0""?>\n<Clock xmlns:dt=""urn:schemas-microsoft-com:datatypes""><Description dt:dt=""string"">E-Prime Primary Realtime Clock</Description><StartTime><Timestamp dt:dt=""int"">0</Timestamp><DateUtc dt:dt=""string"">2014-05-07T22:20:58Z</DateUtc></StartTime><FrequencyChanges><FrequencyChange><Frequency dt:dt=""r8"">2793030000</Frequency><Timestamp dt:dt=""r8"">40029046596092</Timestamp><Current dt:dt=""r8"">0</Current><DateUtc dt:dt=""string"">2014-05-07T22:20:58Z</DateUtc></FrequencyChange></FrequencyChanges></Clock>\n",60.03,1,480821271,0,,-999999,7,30826,t,41895,72721,5/7/2014,15:20:58,,1,Session1,SessionsList,,,,,,,,,,1,1,1,2,,,,,2,1,2,,,,NonCued1,MiniBlocks1,224030,,,,1,0,r,-999999,17,238722,b,366,239088,Green,Congruent,r,White,0,,0,3,233708,,0,0,,,,,,,,,,,,,Pictures\white.bmp,4000,2000,Pictures\GreenLeft.bmp,1,1,1,,,,,,,,,,StimulusPr,Pictures\black.bmp,NonCuedStim1,Left
POP_2,16054,1,"<?xml version=""1.0""?>\n<Clock xmlns:dt=""urn:schemas-microsoft-com:datatypes""><Description dt:dt=""string"">E-Prime Primary Realtime Clock</Description><StartTime><Timestamp dt:dt=""int"">0</Timestamp><DateUtc dt:dt=""string"">2014-05-07T22:20:58Z</DateUtc></StartTime><FrequencyChanges><FrequencyChange><Frequency dt:dt=""r8"">2793030000</Frequency><Timestamp dt:dt=""r8"">40029046596092</Timestamp><Current dt:dt=""r8"">0</Current><DateUtc dt:dt=""string"">2014-05-07T22:20:58Z</DateUtc></FrequencyChange></FrequencyChanges></Clock>\n",60.03,1,480821271,0,,-999999,7,30826,t,41895,72721,5/7/2014,15:20:58,,1,Session1,SessionsList,,,,,,,,,,1,1,1,2,,,,,2,1,2,,,,NonCued1,MiniBlocks1,224030,,,,2,1,b,-999999,12,249733,b,328,250061,Green,Congruent,b,White,0,,0,3,242720,,0,0,,,,,,,,,,,,,Pictures\white.bmp,6000,16000,Pictures\black.bmp,2,1,2,,,,,,,,,,StimulusPr,Pictures\GreenRight.bmp,NonCuedStim1,Right
POP_2,16054,1,"<?xml version=""1.0""?>\n<Clock xmlns:dt=""urn:schemas-microsoft-com:datatypes""><Description dt:dt=""string"">E-Prime Primary Realtime Clock</Description><StartTime><Timestamp dt:dt=""int"">0</Timestamp><DateUtc dt:dt=""string"">2014-05-07T22:20:58Z</DateUtc></StartTime><FrequencyChanges><FrequencyChange><Frequency dt:dt=""r8"">2793030000</Frequency><Timestamp dt:dt=""r8"">40029046596092</Timestamp><Current dt:dt=""r8"">0</Current><DateUtc dt:dt=""string"">2014-05-07T22:20:58Z</DateUtc></FrequencyChange></FrequencyChanges></Clock>\n",60.03,1,480821271,0,,-999999,7,30826,t,41895,72721,5/7/2014,15:20:58,,1,Session1,SessionsList,,,,,,,,,,1,1,1,2,,,,,2,1,2,,,,NonCued1,MiniBlocks1,224030,,,,3,1,r,-999999,18,274738,r,514,275252,Red,Incongruent,r,White,0,,0,15,267724,,0,0,,,,,,,,,,,,,Pictures\white.bmp,6000,10000,Pictures\black.bmp,3,1,3,,,,,,,,,,StimulusPr,Pictures\RedRight.bmp,NonCuedStim1,Right
POP_2,16054,1,"<?xml version=""1.0""?>\n<Clock xmlns:dt=""urn:schemas-microsoft-com:datatypes""><Description dt:dt=""string"">E-Prime Primary Realtime Clock</Description><StartTime><Timestamp dt:dt=""int"">0</Timestamp><DateUtc dt:dt=""string"">2014-05-07T22:20:58Z</DateUtc></StartTime><FrequencyChanges><FrequencyChange><Frequency dt:dt=""r8"">2793030000</Frequency><Timestamp dt:dt=""r8"">40029046596092</Timestamp><Current dt:dt=""r8"">0</Current><DateUtc dt:dt=""string"">2014-05-07T22:20:58Z</DateUtc></FrequencyChange></FrequencyChanges></Clock>\n",60.03,1,480821271,0,,-999999,7,30826,t,41895,72721,5/7/2014,15:20:58,,1,Session1,SessionsList,,,,,,,,,,1,1,1,2,,,,,2,1,2,,,,NonCued1,MiniBlocks1,224030,,,,4,1,r,-999999,7,296727,r,543,297270,Green,Congruent,r,White,0,,0,6,286715,,0,0,,,,,,,,,,,,,Pictures\white.bmp,9000,10000,Pictures\GreenLeft.bmp,4,1,4,,,,,,,,,,StimulusPr,Pictures\black.bmp,NonCuedStim1,Left
POP_2,16054,1,"<?xml version=""1.0""?>\n<Clock xmlns:dt=""urn:schemas-microsoft-com:datatypes""><Description dt:dt=""string"">E-Prime Primary Realtime Clock</Description><StartTime><Timestamp dt:dt=""int"">0</Timestamp><DateUtc dt:dt=""string"">2014-05-07T22:20:58Z</DateUtc></StartTime><FrequencyChanges><FrequencyChange><Frequency dt:dt=""r8"">2793030000</Frequency><Timestamp dt:dt=""r8"">40029046596092</Timestamp><Current dt:dt=""r8"">0</Current><DateUtc dt:dt=""string"">2014-05-07T22:20:58Z</DateUtc></FrequencyChange></FrequencyChanges></Clock>\n",60.03,1,480821271,0,,-999999,7,30826,t,41895,72721,5/7/2014,15:20:58,,1,Session1,SessionsList,,,,,,,,,,1,1,1,2,,,,,2,1,2,,,,NonCued1,MiniBlocks1,224030,,,,5,1,b,-999999,15,312735,b,464,313199,Green,Congruent,b,White,0,,0,16,308721,,0,0,,,,,,,,,,,,,Pictures\white.bmp,3000,2000,Pictures\black.bmp,5,1,5,,,,,,,,,,StimulusPr,Pictures\GreenRight.bmp,NonCuedStim1,Right
POP_2,16054,1,"<?xml version=""1.0""?>\n<Clock xmlns:dt=""urn:schemas-microsoft-com:datatypes""><Description dt:dt=""string"">E-Prime Primary Realtime Clock</Description><StartTime><Timestamp dt:dt=""int"">0</Timestamp><DateUtc dt:dt=""string"">2014-05-07T22:20:58Z</DateUtc></StartTime><FrequencyChanges><FrequencyChange><Frequency dt:dt=""r8"">2793030000</Frequency><Timestamp dt:dt=""r8"">40029046596092</Timestamp><Current dt:dt=""r8"">0</Current><DateUtc dt:dt=""string"">2014-05-07T22:20:58Z</DateUtc></FrequencyChange></FrequencyChanges></Clock>\n",60.03,1,480821271,0,,-999999,7,30826,t,41895,72721,5/7/2014,15:20:58,,1,Session1,SessionsList,,,,,,,,,,1,1,1,2,,,,,2,1,2,,,,NonCued1,MiniBlocks1,224030,,,,6,0,b,-999999,11,321731,r,361,322092,Red,Incongruent,b,White,0,,0,13,316733,,0,0,,,,,,,,,,,,,Pictures\white.bmp,4000,16000,Pictures\RedLeft.bmp,6,1,6,,,,,,,,,,StimulusPr,Pictures\black.bmp,NonCuedStim1,Left
POP_2,16054,1,"<?xml version=""1.0""?>\n<Clock xmlns:dt=""urn:schemas-microsoft-com:datatypes""><Description dt:dt=""string"">E-Prime Primary Realtime Clock</Description><StartTime><Timestamp dt:dt=""int"">0</Timestamp><DateUtc dt:dt=""string"">2014-05-07T22:20:58Z</DateUtc></StartTime><FrequencyChanges><FrequencyChange><Frequency dt:dt=""r8"">2793030000</Frequency><Timestamp dt:dt=""r8"">40029046596092</Timestamp><Current dt:dt=""r8"">0</Current><DateUtc dt:dt=""string"">2014-05-07T22:20:58Z</DateUtc></FrequencyChange></FrequencyChanges></Clock>\n",60.03,1,480821271,0,,-999999,7,30826,t,41895,72721,5/7/2014,15:20:58,,1,Session1,SessionsList,,,,,,,,,,1,1,1,2,,,,,2,1,2,,,,NonCued1,MiniBlocks1,224030,,,,7,1,b,-999999,17,343737,b,343,344080,Green,Congruent,b,White,0,,0,3,339723,,0,0,,,,,,,,,,,,,Pictures\white.bmp,3000,4000,Pictures\black.bmp,7,1,7,,,,,,,,,,StimulusPr,Pictures\GreenRight.bmp,NonCuedStim1,Right
POP_2,16054,1,"<?xml version=""1.0""?>\n<Clock xmlns:dt=""urn:schemas-microsoft-com:datatypes""><Description dt:dt=""string"">E-Prime Primary Realtime Clock</Description><StartTime><Timestamp dt:dt=""int"">0</Timestamp><DateUtc dt:dt=""string"">2014-05-07T22:20:58Z</DateUtc></StartTime><FrequencyChanges><FrequencyChange><Frequency dt:dt=""r8"">2793030000</Frequency><Timestamp dt:dt=""r8"">40029046596092</Timestamp><Current dt:dt=""r8"">0</Current><DateUtc dt:dt=""string"">2014-05-07T22:20:58Z</DateUtc></FrequencyChange></FrequencyChanges></Clock>\n",60.03,1,480821271,0,,-999999,7,30826,t,41895,72721,5/7/2014,15:20:58,,1,Session1,SessionsList,,,,,,,,,,1,1,1,2,,,,,2,1,2,,,,NonCued1,MiniBlocks1,224030,,,,8,1,b,-999999,12,353732,b,361,354093,Green,Congruent,b,White,0,,0,14,349734,,0,0,,,,,,,,,,,,,Pictures\white.bmp,3000,4000,Pictures\black.bmp,8,1,8,,,,,,,,,,StimulusPr,Pictures\GreenRight.bmp,NonCuedStim1,Right
POP_2,16054,1,"<?xml version=""1.0""?>\n<Clock xmlns:dt=""urn:schemas-microsoft-com:datatypes""><Description dt:dt=""string"">E-Prime Primary Realtime Clock</Description><StartTime><Timestamp dt:dt=""int"">0</Timestamp><DateUtc dt:dt=""string"">2014-05-07T22:20:58Z</DateUtc></StartTime><FrequencyChanges><FrequencyChange><Frequency dt:dt=""r8"">2793030000</Frequency><Timestamp dt:dt=""r8"">40029046596092</Timestamp><Current dt:dt=""r8"">0</Current><DateUtc dt:dt=""string"">2014-05-07T22:20:58Z</DateUtc></FrequencyChange></FrequencyChanges></Clock>\n",60.03,1,480821271,0,,-999999,7,30826,t,41895,72721,5/7/2014,15:20:58,,1,Session1,SessionsList,,,,,,,,,,1,1,1,2,,,,,2,1,2,,,,NonCued1,MiniBlocks1,224030,,,,9,1,b,-999999,4,369724,b,414,370138,Red,Incongruent,b,White,0,,0,9,359729,,0,0,,,,,,,,,,,,,Pictures\white.bmp,9000,2000,Pictures\RedLeft.bmp,9,1,9,,,,,,,,,,StimulusPr,Pictures\black.bmp,NonCuedStim1,Left
POP_2,16054,1,"<?xml version=""1.0""?>\n<Clock xmlns:dt=""urn:schemas-microsoft-com:datatypes""><Description dt:dt=""string"">E-Prime Primary Realtime Clock</Description><StartTime><Timestamp dt:dt=""int"">0</Timestamp><DateUtc dt:dt=""string"">2014-05-07T22:20:58Z</DateUtc></StartTime><FrequencyChanges><FrequencyChange><Frequency dt:dt=""r8"">2793030000</Frequency><Timestamp dt:dt=""r8"">40029046596092</Timestamp><Current dt:dt=""r8"">0</Current><DateUtc dt:dt=""string"">2014-05-07T22:20:58Z</DateUtc></FrequencyChange></FrequencyChanges></Clock>\n",60.03,1,480821271,0,,-999999,7,30826,t,41895,72721,5/7/2014,15:20:58,,1,Session1,SessionsList,,,,,,,,,,1,1,1,2,,,,,2,1,2,,,,NonCued1,MiniBlocks1,224030,,,,10,1,r,-999999,15,380735,r,449,381184,Green,Congruent,r,White,0,,0,18,373738,,0,0,,,,,,,,,,,,,Pictures\white.bmp,6000,2000,Pictures\GreenLeft.bmp,10,1,10,,,,,,,,,,StimulusPr,Pictures\black.bmp,NonCuedStim1,Left
POP_2,16054,1,"<?xml version=""1.0""?>\n<Clock xmlns:dt=""urn:schemas-microsoft-com:datatypes""><Description dt:dt=""string"">E-Prime Primary Realtime Clock</Description><StartTime><Timestamp dt:dt=""int"">0</Timestamp><DateUtc dt:dt=""string"">2014-05-07T22:20:58Z</DateUtc></StartTime><FrequencyChanges><FrequencyChange><Frequency dt:dt=""r8"">2793030000</Frequency><Timestamp dt:dt=""r8"">40029046596092</Timestamp><Current dt:dt=""r8"">0</Current><DateUtc dt:dt=""string"">2014-05-07T22:20:58Z</DateUtc></FrequencyChange></FrequencyChanges></Clock>\n",60.03,1,480821271,0,,-999999,7,30826,t,41895,72721,5/7/2014,15:20:58,,1,Session1,SessionsList,,,,,,,,,,1,1,1,3,,,,,3,1,3,,,,NonCued2,MiniBlocks1,,383217,,,1,1,b,-999999,3,403723,b,324,404047,Green,Congruent,b,White,0,,0,12,393728,,0,0,,,,,,,,,,,,,Pictures\white.bmp,9000,10000,Pictures\black.bmp,,,,1,1,1,,,,,,,StimulusPr,Pictures\GreenRight.bmp,NonCuedStim2,Right
POP_2,16054,1,"<?xml version=""1.0""?>\n<Clock xmlns:dt=""urn:schemas-microsoft-com:datatypes""><Description dt:dt=""string"">E-Prime Primary Realtime Clock</Description><StartTime><Timestamp dt:dt=""int"">0</Timestamp><DateUtc dt:dt=""string"">2014-05-07T22:20:58Z</DateUtc></StartTime><FrequencyChanges><FrequencyChange><Frequency dt:dt=""r8"">2793030000</Frequency><Timestamp dt:dt=""r8"">40029046596092</Timestamp><Current dt:dt=""r8"">0</Current><DateUtc dt:dt=""string"">2014-05-07T22:20:58Z</DateUtc></FrequencyChange></FrequencyChanges></Clock>\n",60.03,1,480821271,0,,-999999,7,30826,t,41895,72721,5/7/2014,15:20:58,,1,Session1,SessionsList,,,,,,,,,,1,1,1,3,,,,,3,1,3,,,,NonCued2,MiniBlocks1,,383217,,,2,1,r,-999999,12,419732,r,339,420071,Green,Congruent,r,White,0,,0,14,415734,,0,0,,,,,,,,,,,,,Pictures\white.bmp,3000,2000,Pictures\GreenLeft.bmp,,,,2,1,2,,,,,,,StimulusPr,Pictures\black.bmp,NonCuedStim2,Left
POP_2,16054,1,"<?xml version=""1.0""?>\n<Clock xmlns:dt=""urn:schemas-microsoft-com:datatypes""><Description dt:dt=""string"">E-Prime Primary Realtime Clock</Description><StartTime><Timestamp dt:dt=""int"">0</Timestamp><DateUtc dt:dt=""string"">2014-05-07T22:20:58Z</DateUtc></StartTime><FrequencyChanges><FrequencyChange><Frequency dt:dt=""r8"">2793030000</Frequency><Timestamp dt:dt=""r8"">40029046596092</Timestamp><Current dt:dt=""r8"">0</Current><DateUtc dt:dt=""string"">2014-05-07T22:20:58Z</DateUtc></FrequencyChange></FrequencyChanges></Clock>\n",60.03,1,480821271,0,,-999999,7,30826,t,41895,72721,5/7/2014,15:20:58,,1,Session1,SessionsList,,,,,,,,,,1,1,1,3,,,,,3,1,3,,,,NonCued2,MiniBlocks1,,383217,,,3,1,r,-999999,8,427728,r,429,428157,Red,Incongruent,r,White,0,,0,8,423713,,0,0,,,,,,,,,,,,,Pictures\white.bmp,3000,2000,Pictures\black.bmp,,,,3,1,3,,,,,,,StimulusPr,Pictures\RedRight.bmp,NonCuedStim2,Right
POP_2,16054,1,"<?xml version=""1.0""?>\n<Clock xmlns:dt=""urn:schemas-microsoft-com:datatypes""><Description dt:dt=""string"">E-Prime Primary Realtime Clock</Description><StartTime><Timestamp dt:dt=""int"">0</Timestamp><DateUtc dt:dt=""string"">2014-05-07T22:20:58Z</DateUtc></StartTime><FrequencyChanges><FrequencyChange><Frequency dt:dt=""r8"">2793030000</Frequency><Timestamp dt:dt=""r8"">40029046596092</Timestamp><Current dt:dt=""r8"">0</Current><DateUtc dt:dt=""string"">2014-05-07T22:20:58Z</DateUtc></FrequencyChange></FrequencyChanges></Clock>\n",60.03,1,480821271,0,,-999999,7,30826,t,41895,72721,5/7/2014,15:20:58,,1,Session1,SessionsList,,,,,,,,,,1,1,1,3,,,,,3,1,3,,,,NonCued2,MiniBlocks1,,383217,,,4,1,r,-999999,12,436723,r,416,437139,Green,Congruent,r,White,0,,0,5,431726,,0,0,,,,,,,,,,,,,Pictures\white.bmp,4000,16000,Pictures\GreenLeft.bmp,,,,4,1,4,,,,,,,StimulusPr,Pictures\black.bmp,NonCuedStim2,Left
POP_2,16054,1,"<?xml version=""1.0""?>\n<Clock xmlns:dt=""urn:schemas-microsoft-com:datatypes""><Description dt:dt=""string"">E-Prime Primary Realtime Clock</Description><StartTime><Timestamp dt:dt=""int"">0</Timestamp><DateUtc dt:dt=""string"">2014-05-07T22:20:58Z</DateUtc></StartTime><FrequencyChanges><FrequencyChange><Frequency dt:dt=""r8"">2793030000</Frequency><Timestamp dt:dt=""r8"">40029046596092</Timestamp><Current dt:dt=""r8"">0</Current><DateUtc dt:dt=""string"">2014-05-07T22:20:58Z</DateUtc></FrequencyChange></FrequencyChanges></Clock>\n",60.03,1,480821271,0,,-999999,7,30826,t,41895,72721,5/7/2014,15:20:58,,1,Session1,SessionsList,,,,,,,,,,1,1,1,3,,,,,3,1,3,,,,NonCued2,MiniBlocks1,,383217,,,5,1,r,-999999,12,461728,r,356,462084,Green,Congruent,r,White,0,,0,11,454731,,0,0,,,,,,,,,,,,,Pictures\white.bmp,6000,4000,Pictures\GreenLeft.bmp,,,,5,1,5,,,,,,,StimulusPr,Pictures\black.bmp,NonCuedStim2,Left
POP_2,16054,1,"<?xml version=""1.0""?>\n<Clock xmlns:dt=""urn:schemas-microsoft-com:datatypes""><Description dt:dt=""string"">E-Prime Primary Realtime Clock</Description><StartTime><Timestamp dt:dt=""int"">0</Timestamp><DateUtc dt:dt=""string"">2014-05-07T22:20:58Z</DateUtc></StartTime><FrequencyChanges><FrequencyChange><Frequency dt:dt=""r8"">2793030000</Frequency><Timestamp dt:dt=""r8"">40029046596092</Timestamp><Current dt:dt=""r8"">0</Current><DateUtc dt:dt=""string"">2014-05-07T22:20:58Z</DateUtc></FrequencyChange></FrequencyChanges></Clock>\n",60.03,1,480821271,0,,-999999,7,30826,t,41895,72721,5/7/2014,15:20:58,,1,Session1,SessionsList,,,,,,,,,,1,1,1,3,,,,,3,1,3,,,,NonCued2,MiniBlocks1,,383217,,,6,1,b,-999999,19,471739,b,466,472205,Red,Incongruent,b,White,0,,0,5,467725,,0,0,,,,,,,,,,,,,Pictures\white.bmp,3000,4000,Pictures\RedLeft.bmp,,,,6,1,6,,,,,,,StimulusPr,Pictures\black.bmp,NonCuedStim2,Left
POP_2,16054,1,"<?xml version=""1.0""?>\n<Clock xmlns:dt=""urn:schemas-microsoft-com:datatypes""><Description dt:dt=""string"">E-Prime Primary Realtime Clock</Description><StartTime><Timestamp dt:dt=""int"">0</Timestamp><DateUtc dt:dt=""string"">2014-05-07T22:20:58Z</DateUtc></StartTime><FrequencyChanges><FrequencyChange><Frequency dt:dt=""r8"">2793030000</Frequency><Timestamp dt:dt=""r8"">40029046596092</Timestamp><Current dt:dt=""r8"">0</Current><DateUtc dt:dt=""string"">2014-05-07T22:20:58Z</DateUtc></FrequencyChange></FrequencyChanges></Clock>\n",60.03,1,480821271,0,,-999999,7,30826,t,41895,72721,5/7/2014,15:20:58,,1,Session1,SessionsList,,,,,,,,,,1,1,1,3,,,,,3,1,3,,,,NonCued2,MiniBlocks1,,383217,,,7,1,b,-999999,17,482734,b,497,483231,Green,Congruent,b,White,0,,0,15,477720,,0,0,,,,,,,,,,,,,Pictures\white.bmp,4000,16000,Pictures\black.bmp,,,,7,1,7,,,,,,,StimulusPr,Pictures\GreenRight.bmp,NonCuedStim2,Right
POP_2,16054,1,"<?xml version=""1.0""?>\n<Clock xmlns:dt=""urn:schemas-microsoft-com:datatypes""><Description dt:dt=""string"">E-Prime Primary Realtime Clock</Description><StartTime><Timestamp dt:dt=""int"">0</Timestamp><DateUtc dt:dt=""string"">2014-05-07T22:20:58Z</DateUtc></StartTime><FrequencyChanges><FrequencyChange><Frequency dt:dt=""r8"">2793030000</Frequency><Timestamp dt:dt=""r8"">40029046596092</Timestamp><Current dt:dt=""r8"">0</Current><DateUtc dt:dt=""string"">2014-05-07T22:20:58Z</DateUtc></FrequencyChange></FrequencyChanges></Clock>\n",60.03,1,480821271,0,,-999999,7,30826,t,41895,72721,5/7/2014,15:20:58,,1,Session1,SessionsList,,,,,,,,,,1,1,1,3,,,,,3,1,3,,,,NonCued2,MiniBlocks1,,383217,,,8,1,r,-999999,16,510736,r,550,511286,Green,Congruent,r,White,0,,0,5,500725,,0,0,,,,,,,,,,,,,Pictures\white.bmp,9000,2000,Pictures\GreenLeft.bmp,,,,8,1,8,,,,,,,StimulusPr,Pictures\black.bmp,NonCuedStim2,Left
POP_2,16054,1,"<?xml version=""1.0""?>\n<Clock xmlns:dt=""urn:schemas-microsoft-com:datatypes""><Description dt:dt=""string"">E-Prime Primary Realtime Clock</Description><StartTime><Timestamp dt:dt=""int"">0</Timestamp><DateUtc dt:dt=""string"">2014-05-07T22:20:58Z</DateUtc></StartTime><FrequencyChanges><FrequencyChange><Frequency dt:dt=""r8"">2793030000</Frequency><Timestamp dt:dt=""r8"">40029046596092</Timestamp><Current dt:dt=""r8"">0</Current><DateUtc dt:dt=""string"">2014-05-07T22:20:58Z</DateUtc></FrequencyChange></FrequencyChanges></Clock>\n",60.03,1,480821271,0,,-999999,7,30826,t,41895,72721,5/7/2014,15:20:58,,1,Session1,SessionsList,,,,,,,,,,1,1,1,3,,,,,3,1,3,,,,NonCued2,MiniBlocks1,,383217,,,9,1,b,-999999,12,518732,b,277,519009,Green,Congruent,b,White,0,,0,14,514734,,0,0,,,,,,,,,,,,,Pictures\white.bmp,3000,10000,Pictures\black.bmp,,,,9,1,9,,,,,,,StimulusPr,Pictures\GreenRight.bmp,NonCuedStim2,Right
POP_2,16054,1,"<?xml version=""1.0""?>\n<Clock xmlns:dt=""urn:schemas-microsoft-com:datatypes""><Description dt:dt=""string"">E-Prime Primary Realtime Clock</Description><StartTime><Timestamp dt:dt=""int"">0</Timestamp><DateUtc dt:dt=""string"">2014-05-07T22:20:58Z</DateUtc></StartTime><FrequencyChanges><FrequencyChange><Frequency dt:dt=""r8"">2793030000</Frequency><Timestamp dt:dt=""r8"">40029046596092</Timestamp><Current dt:dt=""r8"">0</Current><DateUtc dt:dt=""string"">2014-05-07T22:20:58Z</DateUtc></FrequencyChange></FrequencyChanges></Clock>\n",60.03,1,480821271,0,,-999999,7,30826,t,41895,72721,5/7/2014,15:20:58,,1,Session1,SessionsList,,,,,,,,,,1,1,1,3,,,,,3,1,3,,,,NonCued2,MiniBlocks1,,383217,,,10,1,b,-999999,4,534724,b,556,535280,Green,Congruent,b,White,0,,0,6,530726,,0,0,,,,,,,,,,,,,Pictures\white.bmp,3000,2000,Pictures\black.bmp,,,,10,1,10,,,,,,,StimulusPr,Pictures\GreenRight.bmp,NonCuedStim2,Right
POP_2,16054,1,"<?xml version=""1.0""?>\n<Clock xmlns:dt=""urn:schemas-microsoft-com:datatypes""><Description dt:dt=""string"">E-Prime Primary Realtime Clock</Description><StartTime><Timestamp dt:dt=""int"">0</Timestamp><DateUtc dt:dt=""string"">2014-05-07T22:20:58Z</DateUtc></StartTime><FrequencyChanges><FrequencyChange><Frequency dt:dt=""r8"">2793030000</Frequency><Timestamp dt:dt=""r8"">40029046596092</Timestamp><Current dt:dt=""r8"">0</Current><DateUtc dt:dt=""string"">2014-05-07T22:20:58Z</DateUtc></FrequencyChange></FrequencyChanges></Clock>\n",60.03,1,480821271,0,,-999999,7,30826,t,41895,72721,5/7/2014,15:20:58,,1,Session1,SessionsList,,,,,,,,,,1,1,1,4,,537307,,,4,1,4,,,,Cued2,MiniBlocks1,,,,,1,1,b,-999999,8,554714,b,276,554990,White,Congruent,b,Green,0,,0,15,547735,,0,0,,,,1,1,1,,,,,,,Pictures\green.bmp,6000,4000,Pictures\black.bmp,,,,,,,,,,,,,StimulusPr,Pictures\right.bmp,CuedStim2,Right
POP_2,16054,1,"<?xml version=""1.0""?>\n<Clock xmlns:dt=""urn:schemas-microsoft-com:datatypes""><Description dt:dt=""string"">E-Prime Primary Realtime Clock</Description><StartTime><Timestamp dt:dt=""int"">0</Timestamp><DateUtc dt:dt=""string"">2014-05-07T22:20:58Z</DateUtc></StartTime><FrequencyChanges><FrequencyChange><Frequency dt:dt=""r8"">2793030000</Frequency><Timestamp dt:dt=""r8"">40029046596092</Timestamp><Current dt:dt=""r8"">0</Current><DateUtc dt:dt=""string"">2014-05-07T22:20:58Z</DateUtc></FrequencyChange></FrequencyChanges></Clock>\n",60.03,1,480821271,0,,-999999,7,30826,t,41895,72721,5/7/2014,15:20:58,,1,Session1,SessionsList,,,,,,,,,,1,1,1,4,,537307,,,4,1,4,,,,Cued2,MiniBlocks1,,,,,2,1,b,-999999,3,570723,b,289,571012,White,Congruent,b,Green,0,,0,8,560728,,0,0,,,,2,1,2,,,,,,,Pictures\green.bmp,9000,10000,Pictures\black.bmp,,,,,,,,,,,,,StimulusPr,Pictures\right.bmp,CuedStim2,Right
POP_2,16054,1,"<?xml version=""1.0""?>\n<Clock xmlns:dt=""urn:schemas-microsoft-com:datatypes""><Description dt:dt=""string"">E-Prime Primary Realtime Clock</Description><StartTime><Timestamp dt:dt=""int"">0</Timestamp><DateUtc dt:dt=""string"">2014-05-07T22:20:58Z</DateUtc></StartTime><FrequencyChanges><FrequencyChange><Frequency dt:dt=""r8"">2793030000</Frequency><Timestamp dt:dt=""r8"">40029046596092</Timestamp><Current dt:dt=""r8"">0</Current><DateUtc dt:dt=""string"">2014-05-07T22:20:58Z</DateUtc></FrequencyChange></FrequencyChanges></Clock>\n",60.03,1,480821271,0,,-999999,7,30826,t,41895,72721,5/7/2014,15:20:58,,1,Session1,SessionsList,,,,,,,,,,1,1,1,4,,537307,,,4,1,4,,,,Cued2,MiniBlocks1,,,,,3,1,r,-999999,12,586732,r,464,587196,White,Incongruent,r,Red,0,,0,12,582717,,0,0,,,,3,1,3,,,,,,,Pictures\red.bmp,3000,2000,Pictures\black.bmp,,,,,,,,,,,,,StimulusPr,Pictures\right.bmp,CuedStim2,Right
POP_2,16054,1,"<?xml version=""1.0""?>\n<Clock xmlns:dt=""urn:schemas-microsoft-com:datatypes""><Description dt:dt=""string"">E-Prime Primary Realtime Clock</Description><StartTime><Timestamp dt:dt=""int"">0</Timestamp><DateUtc dt:dt=""string"">2014-05-07T22:20:58Z</DateUtc></StartTime><FrequencyChanges><FrequencyChange><Frequency dt:dt=""r8"">2793030000</Frequency><Timestamp dt:dt=""r8"">40029046596092</Timestamp><Current dt:dt=""r8"">0</Current><DateUtc dt:dt=""string"">2014-05-07T22:20:58Z</DateUtc></FrequencyChange></FrequencyChanges></Clock>\n",60.03,1,480821271,0,,-999999,7,30826,t,41895,72721,5/7/2014,15:20:58,,1,Session1,SessionsList,,,,,,,,,,1,1,1,4,,537307,,,4,1,4,,,,Cued2,MiniBlocks1,,,,,4,1,r,-999999,6,597726,r,310,598036,White,Congruent,r,Green,0,,0,10,590730,,0,0,,,,4,1,4,,,,,,,Pictures\green.bmp,6000,16000,Pictures\left.bmp,,,,,,,,,,,,,StimulusPr,Pictures\black.bmp,CuedStim2,Left
POP_2,16054,1,"<?xml version=""1.0""?>\n<Clock xmlns:dt=""urn:schemas-microsoft-com:datatypes""><Description dt:dt=""string"">E-Prime Primary Realtime Clock</Description><StartTime><Timestamp dt:dt=""int"">0</Timestamp><DateUtc dt:dt=""string"">2014-05-07T22:20:58Z</DateUtc></StartTime><FrequencyChanges><FrequencyChange><Frequency dt:dt=""r8"">2793030000</Frequency><Timestamp dt:dt=""r8"">40029046596092</Timestamp><Current dt:dt=""r8"">0</Current><DateUtc dt:dt=""string"">2014-05-07T22:20:58Z</DateUtc></FrequencyChange></FrequencyChanges></Clock>\n",60.03,1,480821271,0,,-999999,7,30826,t,41895,72721,5/7/2014,15:20:58,,1,Session1,SessionsList,,,,,,,,,,1,1,1,4,,537307,,,4,1,4,,,,Cued2,MiniBlocks1,,,,,5,1,b,-999999,4,619715,b,377,620092,White,Congruent,b,Green,0,,0,14,615734,,0,0,,,,5,1,5,,,,,,,Pictures\green.bmp,3000,2000,Pictures\black.bmp,,,,,,,,,,,,,StimulusPr,Pictures\right.bmp,CuedStim2,Right
POP_2,16054,1,"<?xml version=""1.0""?>\n<Clock xmlns:dt=""urn:schemas-microsoft-com:datatypes""><Description dt:dt=""string"">E-Prime Primary Realtime Clock</Description><StartTime><Timestamp dt:dt=""int"">0</Timestamp><DateUtc dt:dt=""string"">2014-05-07T22:20:58Z</DateUtc></StartTime><FrequencyChanges><FrequencyChange><Frequency dt:dt=""r8"">2793030000</Frequency><Timestamp dt:dt=""r8"">40029046596092</Timestamp><Current dt:dt=""r8"">0</Current><DateUtc dt:dt=""string"">2014-05-07T22:20:58Z</DateUtc></FrequencyChange></FrequencyChanges></Clock>\n",60.03,1,480821271,0,,-999999,7,30826,t,41895,72721,5/7/2014,15:20:58,,1,Session1,SessionsList,,,,,,,,,,1,1,1,4,,537307,,,4,1,4,,,,Cued2,MiniBlocks1,,,,,6,1,r,-999999,8,627728,r,263,627991,White,Congruent,r,Green,0,,0,10,623730,,0,0,,,,6,1,6,,,,,,,Pictures\green.bmp,3000,2000,Pictures\left.bmp,,,,,,,,,,,,,StimulusPr,Pictures\black.bmp,CuedStim2,Left
POP_2,16054,1,"<?xml version=""1.0""?>\n<Clock xmlns:dt=""urn:schemas-microsoft-com:datatypes""><Description dt:dt=""string"">E-Prime Primary Realtime Clock</Description><StartTime><Timestamp dt:dt=""int"">0</Timestamp><DateUtc dt:dt=""string"">2014-05-07T22:20:58Z</DateUtc></StartTime><FrequencyChanges><FrequencyChange><Frequency dt:dt=""r8"">2793030000</Frequency><Timestamp dt:dt=""r8"">40029046596092</Timestamp><Current dt:dt=""r8"">0</Current><DateUtc dt:dt=""string"">2014-05-07T22:20:58Z</DateUtc></FrequencyChange></FrequencyChanges></Clock>\n",60.03,1,480821271,0,,-999999,7,30826,t,41895,72721,5/7/2014,15:20:58,,1,Session1,SessionsList,,,,,,,,,,1,1,1,4,,537307,,,4,1,4,,,,Cued2,MiniBlocks1,,,,,7,1,b,-999999,3,638723,b,310,639033,White,Incongruent,b,Red,0,,0,4,631709,,0,0,,,,7,1,7,,,,,,,Pictures\red.bmp,6000,4000,Pictures\left.bmp,,,,,,,,,,,,,StimulusPr,Pictures\black.bmp,CuedStim2,Left
POP_2,16054,1,"<?xml version=""1.0""?>\n<Clock xmlns:dt=""urn:schemas-microsoft-com:datatypes""><Description dt:dt=""string"">E-Prime Primary Realtime Clock</Description><StartTime><Timestamp dt:dt=""int"">0</Timestamp><DateUtc dt:dt=""string"">2014-05-07T22:20:58Z</DateUtc></StartTime><FrequencyChanges><FrequencyChange><Frequency dt:dt=""r8"">2793030000</Frequency><Timestamp dt:dt=""r8"">40029046596092</Timestamp><Current dt:dt=""r8"">0</Current><DateUtc dt:dt=""string"">2014-05-07T22:20:58Z</DateUtc></FrequencyChange></FrequencyChanges></Clock>\n",60.03,1,480821271,0,,-999999,7,30826,t,41895,72721,5/7/2014,15:20:58,,1,Session1,SessionsList,,,,,,,,,,1,1,1,4,,537307,,,4,1,4,,,,Cued2,MiniBlocks1,,,,,8,1,b,-999999,14,649734,b,303,650037,White,Congruent,b,Green,0,,0,16,644736,,0,0,,,,8,1,8,,,,,,,Pictures\green.bmp,4000,4000,Pictures\black.bmp,,,,,,,,,,,,,StimulusPr,Pictures\right.bmp,CuedStim2,Right
POP_2,16054,1,"<?xml version=""1.0""?>\n<Clock xmlns:dt=""urn:schemas-microsoft-com:datatypes""><Description dt:dt=""string"">E-Prime Primary Realtime Clock</Description><StartTime><Timestamp dt:dt=""int"">0</Timestamp><DateUtc dt:dt=""string"">2014-05-07T22:20:58Z</DateUtc></StartTime><FrequencyChanges><FrequencyChange><Frequency dt:dt=""r8"">2793030000</Frequency><Timestamp dt:dt=""r8"">40029046596092</Timestamp><Current dt:dt=""r8"">0</Current><DateUtc dt:dt=""string"">2014-05-07T22:20:58Z</DateUtc></FrequencyChange></FrequencyChanges></Clock>\n",60.03,1,480821271,0,,-999999,7,30826,t,41895,72721,5/7/2014,15:20:58,,1,Session1,SessionsList,,,,,,,,,,1,1,1,4,,537307,,,4,1,4,,,,Cued2,MiniBlocks1,,,,,9,1,b,-999999,6,665726,b,379,666105,White,Incongruent,b,Red,0,,0,11,655731,,0,0,,,,9,1,9,,,,,,,Pictures\red.bmp,9000,10000,Pictures\left.bmp,,,,,,,,,,,,,StimulusPr,Pictures\black.bmp,CuedStim2,Left
POP_2,16054,1,"<?xml version=""1.0""?>\n<Clock xmlns:dt=""urn:schemas-microsoft-com:datatypes""><Description dt:dt=""string"">E-Prime Primary Realtime Clock</Description><StartTime><Timestamp dt:dt=""int"">0</Timestamp><DateUtc dt:dt=""string"">2014-05-07T22:20:58Z</DateUtc></StartTime><FrequencyChanges><FrequencyChange><Frequency dt:dt=""r8"">2793030000</Frequency><Timestamp dt:dt=""r8"">40029046596092</Timestamp><Current dt:dt=""r8"">0</Current><DateUtc dt:dt=""string"">2014-05-07T22:20:58Z</DateUtc></FrequencyChange></FrequencyChanges></Clock>\n",60.03,1,480821271,0,,-999999,7,30826,t,41895,72721,5/7/2014,15:20:58,,1,Session1,SessionsList,,,,,,,,,,1,1,1,4,,537307,,,4,1,4,,,,Cued2,MiniBlocks1,,,,,10,1,r,-999999,11,687731,r,291,688022,White,Congruent,r,Green,0,,0,16,677736,,0,0,,,,10,1,10,,,,,,,Pictures\green.bmp,9000,10000,Pictures\left.bmp,,,,,,,,,,,,,StimulusPr,Pictures\black.bmp,CuedStim2,Left
POP_2,16054,1,"<?xml version=""1.0""?>\n<Clock xmlns:dt=""urn:schemas-microsoft-com:datatypes""><Description dt:dt=""string"">E-Prime Primary Realtime Clock</Description><StartTime><Timestamp dt:dt=""int"">0</Timestamp><DateUtc dt:dt=""string"">2014-05-07T22:20:58Z</DateUtc></StartTime><FrequencyChanges><FrequencyChange><Frequency dt:dt=""r8"">2793030000</Frequency><Timestamp dt:dt=""r8"">40029046596092</Timestamp><Current dt:dt=""r8"">0</Current><DateUtc dt:dt=""string"">2014-05-07T22:20:58Z</DateUtc></FrequencyChange></FrequencyChanges></Clock>\n",60.03,1,480821271,0,,-999999,7,30826,t,41895,72721,5/7/2014,15:20:58,,2,Session2,SessionsList,0,,-999999,8,722681,t,33535,756216,698043,2,1,2,1,,,,,,,,1,1,1,NonCued3,MiniBlocks2,,,756231,,1,1,b,-999999,6,776221,b,284,776505,Green,Congruent,b,White,0,,0,11,766226,,0,0,,,,,,,,,,,,,Pictures\white.bmp,9000,10000,Pictures\black.bmp,,,,,,,1,1,1,,,,StimulusPr,Pictures\GreenRight.bmp,NonCuedStim3,Right
POP_2,16054,1,"<?xml version=""1.0""?>\n<Clock xmlns:dt=""urn:schemas-microsoft-com:datatypes""><Description dt:dt=""string"">E-Prime Primary Realtime Clock</Description><StartTime><Timestamp dt:dt=""int"">0</Timestamp><DateUtc dt:dt=""string"">2014-05-07T22:20:58Z</DateUtc></StartTime><FrequencyChanges><FrequencyChange><Frequency dt:dt=""r8"">2793030000</Frequency><Timestamp dt:dt=""r8"">40029046596092</Timestamp><Current dt:dt=""r8"">0</Current><DateUtc dt:dt=""string"">2014-05-07T22:20:58Z</DateUtc></FrequencyChange></FrequencyChanges></Clock>\n",60.03,1,480821271,0,,-999999,7,30826,t,41895,72721,5/7/2014,15:20:58,,2,Session2,SessionsList,0,,-999999,8,722681,t,33535,756216,698043,2,1,2,1,,,,,,,,1,1,1,NonCued3,MiniBlocks2,,,756231,,2,1,r,-999999,11,798226,r,384,798610,Red,Incongruent,r,White,0,,0,16,788231,,0,0,,,,,,,,,,,,,Pictures\white.bmp,9000,10000,Pictures\black.bmp,,,,,,,2,1,2,,,,StimulusPr,Pictures\RedRight.bmp,NonCuedStim3,Right
POP_2,16054,1,"<?xml version=""1.0""?>\n<Clock xmlns:dt=""urn:schemas-microsoft-com:datatypes""><Description dt:dt=""string"">E-Prime Primary Realtime Clock</Description><StartTime><Timestamp dt:dt=""int"">0</Timestamp><DateUtc dt:dt=""string"">2014-05-07T22:20:58Z</DateUtc></StartTime><FrequencyChanges><FrequencyChange><Frequency dt:dt=""r8"">2793030000</Frequency><Timestamp dt:dt=""r8"">40029046596092</Timestamp><Current dt:dt=""r8"">0</Current><DateUtc dt:dt=""string"">2014-05-07T22:20:58Z</DateUtc></FrequencyChange></FrequencyChanges></Clock>\n",60.03,1,480821271,0,,-999999,7,30826,t,41895,72721,5/7/2014,15:20:58,,2,Session2,SessionsList,0,,-999999,8,722681,t,33535,756216,698043,2,1,2,1,,,,,,,,1,1,1,NonCued3,MiniBlocks2,,,756231,,3,1,r,-999999,2,815218,r,384,815602,Green,Congruent,r,White,0,,0,4,810220,,0,0,,,,,,,,,,,,,Pictures\white.bmp,4000,4000,Pictures\GreenLeft.bmp,,,,,,,3,1,3,,,,StimulusPr,Pictures\black.bmp,NonCuedStim3,Left
POP_2,16054,1,"<?xml version=""1.0""?>\n<Clock xmlns:dt=""urn:schemas-microsoft-com:datatypes""><Description dt:dt=""string"">E-Prime Primary Realtime Clock</Description><StartTime><Timestamp dt:dt=""int"">0</Timestamp><DateUtc dt:dt=""string"">2014-05-07T22:20:58Z</DateUtc></StartTime><FrequencyChanges><FrequencyChange><Frequency dt:dt=""r8"">2793030000</Frequency><Timestamp dt:dt=""r8"">40029046596092</Timestamp><Current dt:dt=""r8"">0</Current><DateUtc dt:dt=""string"">2014-05-07T22:20:58Z</DateUtc></FrequencyChange></FrequencyChanges></Clock>\n",60.03,1,480821271,0,,-999999,7,30826,t,41895,72721,5/7/2014,15:20:58,,2,Session2,SessionsList,0,,-999999,8,722681,t,33535,756216,698043,2,1,2,1,,,,,,,,1,1,1,NonCued3,MiniBlocks2,,,756231,,4,1,b,-999999,12,828228,b,341,828569,Red,Incongruent,b,White,0,,0,17,821215,,0,0,,,,,,,,,,,,,Pictures\white.bmp,6000,4000,Pictures\RedLeft.bmp,,,,,,,4,1,4,,,,StimulusPr,Pictures\black.bmp,NonCuedStim3,Left
POP_2,16054,1,"<?xml version=""1.0""?>\n<Clock xmlns:dt=""urn:schemas-microsoft-com:datatypes""><Description dt:dt=""string"">E-Prime Primary Realtime Clock</Description><StartTime><Timestamp dt:dt=""int"">0</Timestamp><DateUtc dt:dt=""string"">2014-05-07T22:20:58Z</DateUtc></StartTime><FrequencyChanges><FrequencyChange><Frequency dt:dt=""r8"">2793030000</Frequency><Timestamp dt:dt=""r8"">40029046596092</Timestamp><Current dt:dt=""r8"">0</Current><DateUtc dt:dt=""string"">2014-05-07T22:20:58Z</DateUtc></FrequencyChange></FrequencyChanges></Clock>\n",60.03,1,480821271,0,,-999999,7,30826,t,41895,72721,5/7/2014,15:20:58,,2,Session2,SessionsList,0,,-999999,8,722681,t,33535,756216,698043,2,1,2,1,,,,,,,,1,1,1,NonCued3,MiniBlocks2,,,756231,,5,1,b,-999999,8,838223,b,369,838592,Green,Congruent,b,White,0,,0,10,834225,,0,0,,,,,,,,,,,,,Pictures\white.bmp,3000,2000,Pictures\black.bmp,,,,,,,5,1,5,,,,StimulusPr,Pictures\GreenRight.bmp,NonCuedStim3,Right
POP_2,16054,1,"<?xml version=""1.0""?>\n<Clock xmlns:dt=""urn:schemas-microsoft-com:datatypes""><Description dt:dt=""string"">E-Prime Primary Realtime Clock</Description><StartTime><Timestamp dt:dt=""int"">0</Timestamp><DateUtc dt:dt=""string"">2014-05-07T22:20:58Z</DateUtc></StartTime><FrequencyChanges><FrequencyChange><Frequency dt:dt=""r8"">2793030000</Frequency><Timestamp dt:dt=""r8"">40029046596092</Timestamp><Current dt:dt=""r8"">0</Current><DateUtc dt:dt=""string"">2014-05-07T22:20:58Z</DateUtc></FrequencyChange></FrequencyChanges></Clock>\n",60.03,1,480821271,0,,-999999,7,30826,t,41895,72721,5/7/2014,15:20:58,,2,Session2,SessionsList,0,,-999999,8,722681,t,33535,756216,698043,2,1,2,1,,,,,,,,1,1,1,NonCued3,MiniBlocks2,,,756231,,6,1,r,-999999,4,846219,r,339,846558,Green,Congruent,r,White,0,,0,6,842221,,0,0,,,,,,,,,,,,,Pictures\white.bmp,3000,2000,Pictures\GreenLeft.bmp,,,,,,,6,1,6,,,,StimulusPr,Pictures\black.bmp,NonCuedStim3,Left
POP_2,16054,1,"<?xml version=""1.0""?>\n<Clock xmlns:dt=""urn:schemas-microsoft-com:datatypes""><Description dt:dt=""string"">E-Prime Primary Realtime Clock</Description><StartTime><Timestamp dt:dt=""int"">0</Timestamp><DateUtc dt:dt=""string"">2014-05-07T22:20:58Z</DateUtc></StartTime><FrequencyChanges><FrequencyChange><Frequency dt:dt=""r8"">2793030000</Frequency><Timestamp dt:dt=""r8"">40029046596092</Timestamp><Current dt:dt=""r8"">0</Current><DateUtc dt:dt=""string"">2014-05-07T22:20:58Z</DateUtc></FrequencyChange></FrequencyChanges></Clock>\n",60.03,1,480821271,0,,-999999,7,30826,t,41895,72721,5/7/2014,15:20:58,,2,Session2,SessionsList,0,,-999999,8,722681,t,33535,756216,698043,2,1,2,1,,,,,,,,1,1,1,NonCued3,MiniBlocks2,,,756231,,7,1,b,-999999,15,857230,b,267,857497,Green,Congruent,b,White,0,,0,2,850217,,0,0,,,,,,,,,,,,,Pictures\white.bmp,6000,16000,Pictures\black.bmp,,,,,,,7,1,7,,,,StimulusPr,Pictures\GreenRight.bmp,NonCuedStim3,Right
POP_2,16054,1,"<?xml version=""1.0""?>\n<Clock xmlns:dt=""urn:schemas-microsoft-com:datatypes""><Description dt:dt=""string"">E-Prime Primary Realtime Clock</Description><StartTime><Timestamp dt:dt=""int"">0</Timestamp><DateUtc dt:dt=""string"">2014-05-07T22:20:58Z</DateUtc></StartTime><FrequencyChanges><FrequencyChange><Frequency dt:dt=""r8"">2793030000</Frequency><Timestamp dt:dt=""r8"">40029046596092</Timestamp><Current dt:dt=""r8"">0</Current><DateUtc dt:dt=""string"">2014-05-07T22:20:58Z</DateUtc></FrequencyChange></FrequencyChanges></Clock>\n",60.03,1,480821271,0,,-999999,7,30826,t,41895,72721,5/7/2014,15:20:58,,2,Session2,SessionsList,0,,-999999,8,722681,t,33535,756216,698043,2,1,2,1,,,,,,,,1,1,1,NonCued3,MiniBlocks2,,,756231,,8,1,r,-999999,4,879219,r,384,879603,Red,Incongruent,r,White,0,,0,6,875221,,0,0,,,,,,,,,,,,,Pictures\white.bmp,3000,2000,Pictures\black.bmp,,,,,,,8,1,8,,,,StimulusPr,Pictures\RedRight.bmp,NonCuedStim3,Right
POP_2,16054,1,"<?xml version=""1.0""?>\n<Clock xmlns:dt=""urn:schemas-microsoft-com:datatypes""><Description dt:dt=""string"">E-Prime Primary Realtime Clock</Description><StartTime><Timestamp dt:dt=""int"">0</Timestamp><DateUtc dt:dt=""string"">2014-05-07T22:20:58Z</DateUtc></StartTime><FrequencyChanges><FrequencyChange><Frequency dt:dt=""r8"">2793030000</Frequency><Timestamp dt:dt=""r8"">40029046596092</Timestamp><Current dt:dt=""r8"">0</Current><DateUtc dt:dt=""string"">2014-05-07T22:20:58Z</DateUtc></FrequencyChange></FrequencyChanges></Clock>\n",60.03,1,480821271,0,,-999999,7,30826,t,41895,72721,5/7/2014,15:20:58,,2,Session2,SessionsList,0,,-999999,8,722681,t,33535,756216,698043,2,1,2,1,,,,,,,,1,1,1,NonCued3,MiniBlocks2,,,756231,,9,1,r,-999999,13,893229,r,490,893719,Green,Congruent,r,White,0,,0,2,883217,,0,0,,,,,,,,,,,,,Pictures\white.bmp,9000,10000,Pictures\GreenLeft.bmp,,,,,,,9,1,9,,,,StimulusPr,Pictures\black.bmp,NonCuedStim3,Left
POP_2,16054,1,"<?xml version=""1.0""?>\n<Clock xmlns:dt=""urn:schemas-microsoft-com:datatypes""><Description dt:dt=""string"">E-Prime Primary Realtime Clock</Description><StartTime><Timestamp dt:dt=""int"">0</Timestamp><DateUtc dt:dt=""string"">2014-05-07T22:20:58Z</DateUtc></StartTime><FrequencyChanges><FrequencyChange><Frequency dt:dt=""r8"">2793030000</Frequency><Timestamp dt:dt=""r8"">40029046596092</Timestamp><Current dt:dt=""r8"">0</Current><DateUtc dt:dt=""string"">2014-05-07T22:20:58Z</DateUtc></FrequencyChange></FrequencyChanges></Clock>\n",60.03,1,480821271,0,,-999999,7,30826,t,41895,72721,5/7/2014,15:20:58,,2,Session2,SessionsList,0,,-999999,8,722681,t,33535,756216,698043,2,1,2,1,,,,,,,,1,1,1,NonCued3,MiniBlocks2,,,756231,,10,1,r,-999999,3,912219,r,358,912577,Green,Congruent,r,White,0,,0,7,905223,,0,0,,,,,,,,,,,,,Pictures\white.bmp,6000,4000,Pictures\GreenLeft.bmp,,,,,,,10,1,10,,,,StimulusPr,Pictures\black.bmp,NonCuedStim3,Left
POP_2,16054,1,"<?xml version=""1.0""?>\n<Clock xmlns:dt=""urn:schemas-microsoft-com:datatypes""><Description dt:dt=""string"">E-Prime Primary Realtime Clock</Description><StartTime><Timestamp dt:dt=""int"">0</Timestamp><DateUtc dt:dt=""string"">2014-05-07T22:20:58Z</DateUtc></StartTime><FrequencyChanges><FrequencyChange><Frequency dt:dt=""r8"">2793030000</Frequency><Timestamp dt:dt=""r8"">40029046596092</Timestamp><Current dt:dt=""r8"">0</Current><DateUtc dt:dt=""string"">2014-05-07T22:20:58Z</DateUtc></FrequencyChange></FrequencyChanges></Clock>\n",60.03,1,480821271,0,,-999999,7,30826,t,41895,72721,5/7/2014,15:20:58,,2,Session2,SessionsList,0,,-999999,8,722681,t,33535,756216,698043,2,1,2,2,,,916600,,,,,2,1,2,Cued3,MiniBlocks2,,,,,1,1,b,-999999,12,930227,b,328,930555,White,Congruent,b,Green,0,,0,2,926213,,0,0,,,,,,,1,1,1,,,,Pictures\green.bmp,3000,2000,Pictures\black.bmp,,,,,,,,,,,,,StimulusPr,Pictures\right.bmp,CuedStim3,Right
POP_2,16054,1,"<?xml version=""1.0""?>\n<Clock xmlns:dt=""urn:schemas-microsoft-com:datatypes""><Description dt:dt=""string"">E-Prime Primary Realtime Clock</Description><StartTime><Timestamp dt:dt=""int"">0</Timestamp><DateUtc dt:dt=""string"">2014-05-07T22:20:58Z</DateUtc></StartTime><FrequencyChanges><FrequencyChange><Frequency dt:dt=""r8"">2793030000</Frequency><Timestamp dt:dt=""r8"">40029046596092</Timestamp><Current dt:dt=""r8"">0</Current><DateUtc dt:dt=""string"">2014-05-07T22:20:58Z</DateUtc></FrequencyChange></FrequencyChanges></Clock>\n",60.03,1,480821271,0,,-999999,7,30826,t,41895,72721,5/7/2014,15:20:58,,2,Session2,SessionsList,0,,-999999,8,722681,t,33535,756216,698043,2,1,2,2,,,916600,,,,,2,1,2,Cued3,MiniBlocks2,,,,,2,1,b,-999999,8,938223,b,703,938926,White,Congruent,b,Green,0,,0,10,934225,,0,0,,,,,,,2,1,2,,,,Pictures\green.bmp,3000,10000,Pictures\black.bmp,,,,,,,,,,,,,StimulusPr,Pictures\right.bmp,CuedStim3,Right
POP_2,16054,1,"<?xml version=""1.0""?>\n<Clock xmlns:dt=""urn:schemas-microsoft-com:datatypes""><Description dt:dt=""string"">E-Prime Primary Realtime Clock</Description><StartTime><Timestamp dt:dt=""int"">0</Timestamp><DateUtc dt:dt=""string"">2014-05-07T22:20:58Z</DateUtc></StartTime><FrequencyChanges><FrequencyChange><Frequency dt:dt=""r8"">2793030000</Frequency><Timestamp dt:dt=""r8"">40029046596092</Timestamp><Current dt:dt=""r8"">0</Current><DateUtc dt:dt=""string"">2014-05-07T22:20:58Z</DateUtc></FrequencyChange></FrequencyChanges></Clock>\n",60.03,1,480821271,0,,-999999,7,30826,t,41895,72721,5/7/2014,15:20:58,,2,Session2,SessionsList,0,,-999999,8,722681,t,33535,756216,698043,2,1,2,2,,,916600,,,,,2,1,2,Cued3,MiniBlocks2,,,,,3,1,r,-999999,14,960229,r,240,960469,White,Congruent,r,Green,0,,0,2,950217,,0,0,,,,,,,3,1,3,,,,Pictures\green.bmp,9000,2000,Pictures\left.bmp,,,,,,,,,,,,,StimulusPr,Pictures\black.bmp,CuedStim3,Left
POP_2,16054,1,"<?xml version=""1.0""?>\n<Clock xmlns:dt=""urn:schemas-microsoft-com:datatypes""><Description dt:dt=""string"">E-Prime Primary Realtime Clock</Description><StartTime><Timestamp dt:dt=""int"">0</Timestamp><DateUtc dt:dt=""string"">2014-05-07T22:20:58Z</DateUtc></StartTime><FrequencyChanges><FrequencyChange><Frequency dt:dt=""r8"">2793030000</Frequency><Timestamp dt:dt=""r8"">40029046596092</Timestamp><Current dt:dt=""r8"">0</Current><DateUtc dt:dt=""string"">2014-05-07T22:20:58Z</DateUtc></FrequencyChange></FrequencyChanges></Clock>\n",60.03,1,480821271,0,,-999999,7,30826,t,41895,72721,5/7/2014,15:20:58,,2,Session2,SessionsList,0,,-999999,8,722681,t,33535,756216,698043,2,1,2,2,,,916600,,,,,2,1,2,Cued3,MiniBlocks2,,,,,4,1,r,-999999,9,969224,r,337,969561,White,Congruent,r,Green,0,,0,12,964227,,0,0,,,,,,,4,1,4,,,,Pictures\green.bmp,4000,16000,Pictures\left.bmp,,,,,,,,,,,,,StimulusPr,Pictures\black.bmp,CuedStim3,Left
POP_2,16054,1,"<?xml version=""1.0""?>\n<Clock xmlns:dt=""urn:schemas-microsoft-com:datatypes""><Description dt:dt=""string"">E-Prime Primary Realtime Clock</Description><StartTime><Timestamp dt:dt=""int"">0</Timestamp><DateUtc dt:dt=""string"">2014-05-07T22:20:58Z</DateUtc></StartTime><FrequencyChanges><FrequencyChange><Frequency dt:dt=""r8"">2793030000</Frequency><Timestamp dt:dt=""r8"">40029046596092</Timestamp><Current dt:dt=""r8"">0</Current><DateUtc dt:dt=""string"">2014-05-07T22:20:58Z</DateUtc></FrequencyChange></FrequencyChanges></Clock>\n",60.03,1,480821271,0,,-999999,7,30826,t,41895,72721,5/7/2014,15:20:58,,2,Session2,SessionsList,0,,-999999,8,722681,t,33535,756216,698043,2,1,2,2,,,916600,,,,,2,1,2,Cued3,MiniBlocks2,,,,,5,1,r,-999999,14,991230,r,621,991851,White,Incongruent,r,Red,0,,0,16,987232,,0,0,,,,,,,5,1,5,,,,Pictures\red.bmp,3000,4000,Pictures\black.bmp,,,,,,,,,,,,,StimulusPr,Pictures\right.bmp,CuedStim3,Right
POP_2,16054,1,"<?xml version=""1.0""?>\n<Clock xmlns:dt=""urn:schemas-microsoft-com:datatypes""><Description dt:dt=""string"">E-Prime Primary Realtime Clock</Description><StartTime><Timestamp dt:dt=""int"">0</Timestamp><DateUtc dt:dt=""string"">2014-05-07T22:20:58Z</DateUtc></StartTime><FrequencyChanges><FrequencyChange><Frequency dt:dt=""r8"">2793030000</Frequency><Timestamp dt:dt=""r8"">40029046596092</Timestamp><Current dt:dt=""r8"">0</Current><DateUtc dt:dt=""string"">2014-05-07T22:20:58Z</DateUtc></FrequencyChange></FrequencyChanges></Clock>\n",60.03,1,480821271,0,,-999999,7,30826,t,41895,72721,5/7/2014,15:20:58,,2,Session2,SessionsList,0,,-999999,8,722681,t,33535,756216,698043,2,1,2,2,,,916600,,,,,2,1,2,Cued3,MiniBlocks2,,,,,6,1,b,-999999,16,1004223,b,277,1004500,White,Congruent,b,Green,0,,0,11,997227,,0,0,,,,,,,6,1,6,,,,Pictures\green.bmp,6000,4000,Pictures\black.bmp,,,,,,,,,,,,,StimulusPr,Pictures\right.bmp,CuedStim3,Right
POP_2,16054,1,"<?xml version=""1.0""?>\n<Clock xmlns:dt=""urn:schemas-microsoft-com:datatypes""><Description dt:dt=""string"">E-Prime Primary Realtime Clock</Description><StartTime><Timestamp dt:dt=""int"">0</Timestamp><DateUtc dt:dt=""string"">2014-05-07T22:20:58Z</DateUtc></StartTime><FrequencyChanges><FrequencyChange><Frequency dt:dt=""r8"">2793030000</Frequency><Timestamp dt:dt=""r8"">40029046596092</Timestamp><Current dt:dt=""r8"">0</Current><DateUtc dt:dt=""string"">2014-05-07T22:20:58Z</DateUtc></FrequencyChange></FrequencyChanges></Clock>\n",60.03,1,480821271,0,,-999999,7,30826,t,41895,72721,5/7/2014,15:20:58,,2,Session2,SessionsList,0,,-999999,8,722681,t,33535,756216,698043,2,1,2,2,,,916600,,,,,2,1,2,Cued3,MiniBlocks2,,,,,7,1,r,-999999,2,1015218,r,236,1015454,White,Congruent,r,Green,0,,0,4,1010220,,0,0,,,,,,,7,1,7,,,,Pictures\green.bmp,4000,16000,Pictures\left.bmp,,,,,,,,,,,,,StimulusPr,Pictures\black.bmp,CuedStim3,Left
POP_2,16054,1,"<?xml version=""1.0""?>\n<Clock xmlns:dt=""urn:schemas-microsoft-com:datatypes""><Description dt:dt=""string"">E-Prime Primary Realtime Clock</Description><StartTime><Timestamp dt:dt=""int"">0</Timestamp><DateUtc dt:dt=""string"">2014-05-07T22:20:58Z</DateUtc></StartTime><FrequencyChanges><FrequencyChange><Frequency dt:dt=""r8"">2793030000</Frequency><Timestamp dt:dt=""r8"">40029046596092</Timestamp><Current dt:dt=""r8"">0</Current><DateUtc dt:dt=""string"">2014-05-07T22:20:58Z</DateUtc></FrequencyChange></FrequencyChanges></Clock>\n",60.03,1,480821271,0,,-999999,7,30826,t,41895,72721,5/7/2014,15:20:58,,2,Session2,SessionsList,0,,-999999,8,722681,t,33535,756216,698043,2,1,2,2,,,916600,,,,,2,1,2,Cued3,MiniBlocks2,,,,,8,1,b,-999999,16,1037224,b,304,1037528,White,Incongruent,b,Red,0,,0,11,1033226,,0,0,,,,,,,8,1,8,,,,Pictures\red.bmp,3000,2000,Pictures\left.bmp,,,,,,,,,,,,,StimulusPr,Pictures\black.bmp,CuedStim3,Left
POP_2,16054,1,"<?xml version=""1.0""?>\n<Clock xmlns:dt=""urn:schemas-microsoft-com:datatypes""><Description dt:dt=""string"">E-Prime Primary Realtime Clock</Description><StartTime><Timestamp dt:dt=""int"">0</Timestamp><DateUtc dt:dt=""string"">2014-05-07T22:20:58Z</DateUtc></StartTime><FrequencyChanges><FrequencyChange><Frequency dt:dt=""r8"">2793030000</Frequency><Timestamp dt:dt=""r8"">40029046596092</Timestamp><Current dt:dt=""r8"">0</Current><DateUtc dt:dt=""string"">2014-05-07T22:20:58Z</DateUtc></FrequencyChange></FrequencyChanges></Clock>\n",60.03,1,480821271,0,,-999999,7,30826,t,41895,72721,5/7/2014,15:20:58,,2,Session2,SessionsList,0,,-999999,8,722681,t,33535,756216,698043,2,1,2,2,,,916600,,,,,2,1,2,Cued3,MiniBlocks2,,,,,9,1,r,-999999,7,1045220,r,286,1045506,White,Congruent,r,Green,0,,0,7,1041222,,0,0,,,,,,,9,1,9,,,,Pictures\green.bmp,3000,2000,Pictures\left.bmp,,,,,,,,,,,,,StimulusPr,Pictures\black.bmp,CuedStim3,Left
POP_2,16054,1,"<?xml version=""1.0""?>\n<Clock xmlns:dt=""urn:schemas-microsoft-com:datatypes""><Description dt:dt=""string"">E-Prime Primary Realtime Clock</Description><StartTime><Timestamp dt:dt=""int"">0</Timestamp><DateUtc dt:dt=""string"">2014-05-07T22:20:58Z</DateUtc></StartTime><FrequencyChanges><FrequencyChange><Frequency dt:dt=""r8"">2793030000</Frequency><Timestamp dt:dt=""r8"">40029046596092</Timestamp><Current dt:dt=""r8"">0</Current><DateUtc dt:dt=""string"">2014-05-07T22:20:58Z</DateUtc></FrequencyChange></FrequencyChanges></Clock>\n",60.03,1,480821271,0,,-999999,7,30826,t,41895,72721,5/7/2014,15:20:58,,2,Session2,SessionsList,0,,-999999,8,722681,t,33535,756216,698043,2,1,2,2,,,916600,,,,,2,1,2,Cued3,MiniBlocks2,,,,,10,1,b,-999999,14,1059229,b,288,1059517,White,Congruent,b,Green,0,,0,2,1049218,,0,0,,,,,,,10,1,10,,,,Pictures\green.bmp,9000,10000,Pictures\black.bmp,,,,,,,,,,,,,StimulusPr,Pictures\right.bmp,CuedStim3,Right
POP_2,16054,1,"<?xml version=""1.0""?>\n<Clock xmlns:dt=""urn:schemas-microsoft-com:datatypes""><Description dt:dt=""string"">E-Prime Primary Realtime Clock</Description><StartTime><Timestamp dt:dt=""int"">0</Timestamp><DateUtc dt:dt=""string"">2014-05-07T22:20:58Z</DateUtc></StartTime><FrequencyChanges><FrequencyChange><Frequency dt:dt=""r8"">2793030000</Frequency><Timestamp dt:dt=""r8"">40029046596092</Timestamp><Current dt:dt=""r8"">0</Current><DateUtc dt:dt=""string"">2014-05-07T22:20:58Z</DateUtc></FrequencyChange></FrequencyChanges></Clock>\n",60.03,1,480821271,0,,-999999,7,30826,t,41895,72721,5/7/2014,15:20:58,,2,Session2,SessionsList,0,,-999999,8,722681,t,33535,756216,698043,2,1,2,3,,,,1069541,,,,3,1,3,Cued4,MiniBlocks2,,,,,1,1,b,-999999,16,1086232,b,407,1086639,White,Congruent,b,Green,0,,0,3,1079219,,0,0,,,,,,,,,,1,1,1,Pictures\green.bmp,6000,2000,Pictures\black.bmp,,,,,,,,,,,,,StimulusPr,Pictures\right.bmp,CuedStim4,Right
POP_2,16054,1,"<?xml version=""1.0""?>\n<Clock xmlns:dt=""urn:schemas-microsoft-com:datatypes""><Description dt:dt=""string"">E-Prime Primary Realtime Clock</Description><StartTime><Timestamp dt:dt=""int"">0</Timestamp><DateUtc dt:dt=""string"">2014-05-07T22:20:58Z</DateUtc></StartTime><FrequencyChanges><FrequencyChange><Frequency dt:dt=""r8"">2793030000</Frequency><Timestamp dt:dt=""r8"">40029046596092</Timestamp><Current dt:dt=""r8"">0</Current><DateUtc dt:dt=""string"">2014-05-07T22:20:58Z</DateUtc></FrequencyChange></FrequencyChanges></Clock>\n",60.03,1,480821271,0,,-999999,7,30826,t,41895,72721,5/7/2014,15:20:58,,2,Session2,SessionsList,0,,-999999,8,722681,t,33535,756216,698043,2,1,2,3,,,,1069541,,,,3,1,3,Cued4,MiniBlocks2,,,,,2,1,r,-999999,9,1100225,r,289,1100514,White,Incongruent,r,Red,0,,0,14,1090230,,0,0,,,,,,,,,,2,1,2,Pictures\red.bmp,9000,2000,Pictures\black.bmp,,,,,,,,,,,,,StimulusPr,Pictures\right.bmp,CuedStim4,Right
POP_2,16054,1,"<?xml version=""1.0""?>\n<Clock xmlns:dt=""urn:schemas-microsoft-com:datatypes""><Description dt:dt=""string"">E-Prime Primary Realtime Clock</Description><StartTime><Timestamp dt:dt=""int"">0</Timestamp><DateUtc dt:dt=""string"">2014-05-07T22:20:58Z</DateUtc></StartTime><FrequencyChanges><FrequencyChange><Frequency dt:dt=""r8"">2793030000</Frequency><Timestamp dt:dt=""r8"">40029046596092</Timestamp><Current dt:dt=""r8"">0</Current><DateUtc dt:dt=""string"">2014-05-07T22:20:58Z</DateUtc></FrequencyChange></FrequencyChanges></Clock>\n",60.03,1,480821271,0,,-999999,7,30826,t,41895,72721,5/7/2014,15:20:58,,2,Session2,SessionsList,0,,-999999,8,722681,t,33535,756216,698043,2,1,2,3,,,,1069541,,,,3,1,3,Cued4,MiniBlocks2,,,,,3,1,b,-999999,5,1108221,b,255,1108476,White,Congruent,b,Green,0,,0,7,1104223,,0,0,,,,,,,,,,3,1,3,Pictures\green.bmp,3000,4000,Pictures\black.bmp,,,,,,,,,,,,,StimulusPr,Pictures\right.bmp,CuedStim4,Right
POP_2,16054,1,"<?xml version=""1.0""?>\n<Clock xmlns:dt=""urn:schemas-microsoft-com:datatypes""><Description dt:dt=""string"">E-Prime Primary Realtime Clock</Description><StartTime><Timestamp dt:dt=""int"">0</Timestamp><DateUtc dt:dt=""string"">2014-05-07T22:20:58Z</DateUtc></StartTime><FrequencyChanges><FrequencyChange><Frequency dt:dt=""r8"">2793030000</Frequency><Timestamp dt:dt=""r8"">40029046596092</Timestamp><Current dt:dt=""r8"">0</Current><DateUtc dt:dt=""string"">2014-05-07T22:20:58Z</DateUtc></FrequencyChange></FrequencyChanges></Clock>\n",60.03,1,480821271,0,,-999999,7,30826,t,41895,72721,5/7/2014,15:20:58,,2,Session2,SessionsList,0,,-999999,8,722681,t,33535,756216,698043,2,1,2,3,,,,1069541,,,,3,1,3,Cued4,MiniBlocks2,,,,,4,1,r,-999999,17,1118233,r,369,1118602,White,Congruent,r,Green,0,,0,3,1114219,,0,0,,,,,,,,,,4,1,4,Pictures\green.bmp,3000,4000,Pictures\left.bmp,,,,,,,,,,,,,StimulusPr,Pictures\black.bmp,CuedStim4,Left
POP_2,16054,1,"<?xml version=""1.0""?>\n<Clock xmlns:dt=""urn:schemas-microsoft-com:datatypes""><Description dt:dt=""string"">E-Prime Primary Realtime Clock</Description><StartTime><Timestamp dt:dt=""int"">0</Timestamp><DateUtc dt:dt=""string"">2014-05-07T22:20:58Z</DateUtc></StartTime><FrequencyChanges><FrequencyChange><Frequency dt:dt=""r8"">2793030000</Frequency><Timestamp dt:dt=""r8"">40029046596092</Timestamp><Current dt:dt=""r8"">0</Current><DateUtc dt:dt=""string"">2014-05-07T22:20:58Z</DateUtc></FrequencyChange></FrequencyChanges></Clock>\n",60.03,1,480821271,0,,-999999,7,30826,t,41895,72721,5/7/2014,15:20:58,,2,Session2,SessionsList,0,,-999999,8,722681,t,33535,756216,698043,2,1,2,3,,,,1069541,,,,3,1,3,Cued4,MiniBlocks2,,,,,5,1,b,-999999,5,1129211,b,328,1129539,White,Incongruent,b,Red,0,,0,15,1124230,,0,0,,,,,,,,,,5,1,5,Pictures\red.bmp,4000,16000,Pictures\left.bmp,,,,,,,,,,,,,StimulusPr,Pictures\black.bmp,CuedStim4,Left
POP_2,16054,1,"<?xml version=""1.0""?>\n<Clock xmlns:dt=""urn:schemas-microsoft-com:datatypes""><Description dt:dt=""string"">E-Prime Primary Realtime Clock</Description><StartTime><Timestamp dt:dt=""int"">0</Timestamp><DateUtc dt:dt=""string"">2014-05-07T22:20:58Z</DateUtc></StartTime><FrequencyChanges><FrequencyChange><Frequency dt:dt=""r8"">2793030000</Frequency><Timestamp dt:dt=""r8"">40029046596092</Timestamp><Current dt:dt=""r8"">0</Current><DateUtc dt:dt=""string"">2014-05-07T22:20:58Z</DateUtc></FrequencyChange></FrequencyChanges></Clock>\n",60.03,1,480821271,0,,-999999,7,30826,t,41895,72721,5/7/2014,15:20:58,,2,Session2,SessionsList,0,,-999999,8,722681,t,33535,756216,698043,2,1,2,3,,,,1069541,,,,3,1,3,Cued4,MiniBlocks2,,,,,6,1,b,-999999,18,1151233,b,238,1151471,White,Congruent,b,Green,0,,0,4,1147219,,0,0,,,,,,,,,,6,1,6,Pictures\green.bmp,3000,2000,Pictures\black.bmp,,,,,,,,,,,,,StimulusPr,Pictures\right.bmp,CuedStim4,Right
POP_2,16054,1,"<?xml version=""1.0""?>\n<Clock xmlns:dt=""urn:schemas-microsoft-com:datatypes""><Description dt:dt=""string"">E-Prime Primary Realtime Clock</Description><StartTime><Timestamp dt:dt=""int"">0</Timestamp><DateUtc dt:dt=""string"">2014-05-07T22:20:58Z</DateUtc></StartTime><FrequencyChanges><FrequencyChange><Frequency dt:dt=""r8"">2793030000</Frequency><Timestamp dt:dt=""r8"">40029046596092</Timestamp><Current dt:dt=""r8"">0</Current><DateUtc dt:dt=""string"">2014-05-07T22:20:58Z</DateUtc></FrequencyChange></FrequencyChanges></Clock>\n",60.03,1,480821271,0,,-999999,7,30826,t,41895,72721,5/7/2014,15:20:58,,2,Session2,SessionsList,0,,-999999,8,722681,t,33535,756216,698043,2,1,2,3,,,,1069541,,,,3,1,3,Cued4,MiniBlocks2,,,,,7,1,b,-999999,4,1165210,b,279,1165489,White,Congruent,b,Green,0,,0,2,1155215,,0,0,,,,,,,,,,7,1,7,Pictures\green.bmp,9000,10000,Pictures\black.bmp,,,,,,,,,,,,,StimulusPr,Pictures\right.bmp,CuedStim4,Right
POP_2,16054,1,"<?xml version=""1.0""?>\n<Clock xmlns:dt=""urn:schemas-microsoft-com:datatypes""><Description dt:dt=""string"">E-Prime Primary Realtime Clock</Description><StartTime><Timestamp dt:dt=""int"">0</Timestamp><DateUtc dt:dt=""string"">2014-05-07T22:20:58Z</DateUtc></StartTime><FrequencyChanges><FrequencyChange><Frequency dt:dt=""r8"">2793030000</Frequency><Timestamp dt:dt=""r8"">40029046596092</Timestamp><Current dt:dt=""r8"">0</Current><DateUtc dt:dt=""string"">2014-05-07T22:20:58Z</DateUtc></FrequencyChange></FrequencyChanges></Clock>\n",60.03,1,480821271,0,,-999999,7,30826,t,41895,72721,5/7/2014,15:20:58,,2,Session2,SessionsList,0,,-999999,8,722681,t,33535,756216,698043,2,1,2,3,,,,1069541,,,,3,1,3,Cued4,MiniBlocks2,,,,,8,1,b,-999999,18,1184217,b,360,1184577,White,Incongruent,b,Red,0,,0,8,1177220,,0,0,,,,,,,,,,8,1,8,Pictures\red.bmp,6000,10000,Pictures\left.bmp,,,,,,,,,,,,,StimulusPr,Pictures\black.bmp,CuedStim4,Left
POP_2,16054,1,"<?xml version=""1.0""?>\n<Clock xmlns:dt=""urn:schemas-microsoft-com:datatypes""><Description dt:dt=""string"">E-Prime Primary Realtime Clock</Description><StartTime><Timestamp dt:dt=""int"">0</Timestamp><DateUtc dt:dt=""string"">2014-05-07T22:20:58Z</DateUtc></StartTime><FrequencyChanges><FrequencyChange><Frequency dt:dt=""r8"">2793030000</Frequency><Timestamp dt:dt=""r8"">40029046596092</Timestamp><Current dt:dt=""r8"">0</Current><DateUtc dt:dt=""string"">2014-05-07T22:20:58Z</DateUtc></FrequencyChange></FrequencyChanges></Clock>\n",60.03,1,480821271,0,,-999999,7,30826,t,41895,72721,5/7/2014,15:20:58,,2,Session2,SessionsList,0,,-999999,8,722681,t,33535,756216,698043,2,1,2,3,,,,1069541,,,,3,1,3,Cued4,MiniBlocks2,,,,,9,1,r,-999999,9,1203224,r,704,1203928,White,Congruent,r,Green,0,,0,11,1196227,,0,0,,,,,,,,,,9,1,9,Pictures\green.bmp,6000,16000,Pictures\left.bmp,,,,,,,,,,,,,StimulusPr,Pictures\black.bmp,CuedStim4,Left
POP_2,16054,1,"<?xml version=""1.0""?>\n<Clock xmlns:dt=""urn:schemas-microsoft-com:datatypes""><Description dt:dt=""string"">E-Prime Primary Realtime Clock</Description><StartTime><Timestamp dt:dt=""int"">0</Timestamp><DateUtc dt:dt=""string"">2014-05-07T22:20:58Z</DateUtc></StartTime><FrequencyChanges><FrequencyChange><Frequency dt:dt=""r8"">2793030000</Frequency><Timestamp dt:dt=""r8"">40029046596092</Timestamp><Current dt:dt=""r8"">0</Current><DateUtc dt:dt=""string"">2014-05-07T22:20:58Z</DateUtc></FrequencyChange></FrequencyChanges></Clock>\n",60.03,1,480821271,0,,-999999,7,30826,t,41895,72721,5/7/2014,15:20:58,,2,Session2,SessionsList,0,,-999999,8,722681,t,33535,756216,698043,2,1,2,3,,,,1069541,,,,3,1,3,Cued4,MiniBlocks2,,,,,10,1,r,-999999,14,1226229,r,245,1226474,White,Congruent,r,Green,0,,0,2,1221215,,0,0,,,,,,,,,,10,1,10,Pictures\green.bmp,4000,2000,Pictures\left.bmp,,,,,,,,,,,,,StimulusPr,Pictures\black.bmp,CuedStim4,Left
POP_2,16054,1,"<?xml version=""1.0""?>\n<Clock xmlns:dt=""urn:schemas-microsoft-com:datatypes""><Description dt:dt=""string"">E-Prime Primary Realtime Clock</Description><StartTime><Timestamp dt:dt=""int"">0</Timestamp><DateUtc dt:dt=""string"">2014-05-07T22:20:58Z</DateUtc></StartTime><FrequencyChanges><FrequencyChange><Frequency dt:dt=""r8"">2793030000</Frequency><Timestamp dt:dt=""r8"">40029046596092</Timestamp><Current dt:dt=""r8"">0</Current><DateUtc dt:dt=""string"">2014-05-07T22:20:58Z</DateUtc></FrequencyChange></FrequencyChanges></Clock>\n",60.03,1,480821271,0,,-999999,7,30826,t,41895,72721,5/7/2014,15:20:58,,2,Session2,SessionsList,0,,-999999,8,722681,t,33535,756216,698043,2,1,2,4,,,,,,,,4,1,4,NonCued4,MiniBlocks2,,,,1228495,1,1,r,-999999,5,1242221,r,405,1242626,Green,Congruent,r,White,0,,0,8,1238223,,0,0,,,,,,,,,,,,,Pictures\white.bmp,3000,2000,Pictures\GreenLeft.bmp,,,,,,,,,,1,1,1,StimulusPr,Pictures\black.bmp,NonCuedStim4,Left
POP_2,16054,1,"<?xml version=""1.0""?>\n<Clock xmlns:dt=""urn:schemas-microsoft-com:datatypes""><Description dt:dt=""string"">E-Prime Primary Realtime Clock</Description><StartTime><Timestamp dt:dt=""int"">0</Timestamp><DateUtc dt:dt=""string"">2014-05-07T22:20:58Z</DateUtc></StartTime><FrequencyChanges><FrequencyChange><Frequency dt:dt=""r8"">2793030000</Frequency><Timestamp dt:dt=""r8"">40029046596092</Timestamp><Current dt:dt=""r8"">0</Current><DateUtc dt:dt=""string"">2014-05-07T22:20:58Z</DateUtc></FrequencyChange></FrequencyChanges></Clock>\n",60.03,1,480821271,0,,-999999,7,30826,t,41895,72721,5/7/2014,15:20:58,,2,Session2,SessionsList,0,,-999999,8,722681,t,33535,756216,698043,2,1,2,4,,,,,,,,4,1,4,NonCued4,MiniBlocks2,,,,1228495,2,1,r,-999999,17,1251233,r,306,1251539,Green,Congruent,r,White,0,,0,3,1246219,,0,0,,,,,,,,,,,,,Pictures\white.bmp,4000,2000,Pictures\GreenLeft.bmp,,,,,,,,,,2,1,2,StimulusPr,Pictures\black.bmp,NonCuedStim4,Left
POP_2,16054,1,"<?xml version=""1.0""?>\n<Clock xmlns:dt=""urn:schemas-microsoft-com:datatypes""><Description dt:dt=""string"">E-Prime Primary Realtime Clock</Description><StartTime><Timestamp dt:dt=""int"">0</Timestamp><DateUtc dt:dt=""string"">2014-05-07T22:20:58Z</DateUtc></StartTime><FrequencyChanges><FrequencyChange><Frequency dt:dt=""r8"">2793030000</Frequency><Timestamp dt:dt=""r8"">40029046596092</Timestamp><Current dt:dt=""r8"">0</Current><DateUtc dt:dt=""string"">2014-05-07T22:20:58Z</DateUtc></FrequencyChange></FrequencyChanges></Clock>\n",60.03,1,480821271,0,,-999999,7,30826,t,41895,72721,5/7/2014,15:20:58,,2,Session2,SessionsList,0,,-999999,8,722681,t,33535,756216,698043,2,1,2,4,,,,,,,,4,1,4,NonCued4,MiniBlocks2,,,,1228495,3,1,r,-999999,13,1260229,r,430,1260659,Red,Incongruent,r,White,0,,0,15,1255231,,0,0,,,,,,,,,,,,,Pictures\white.bmp,4000,2000,Pictures\black.bmp,,,,,,,,,,3,1,3,StimulusPr,Pictures\RedRight.bmp,NonCuedStim4,Right
POP_2,16054,1,"<?xml version=""1.0""?>\n<Clock xmlns:dt=""urn:schemas-microsoft-com:datatypes""><Description dt:dt=""string"">E-Prime Primary Realtime Clock</Description><StartTime><Timestamp dt:dt=""int"">0</Timestamp><DateUtc dt:dt=""string"">2014-05-07T22:20:58Z</DateUtc></StartTime><FrequencyChanges><FrequencyChange><Frequency dt:dt=""r8"">2793030000</Frequency><Timestamp dt:dt=""r8"">40029046596092</Timestamp><Current dt:dt=""r8"">0</Current><DateUtc dt:dt=""string"">2014-05-07T22:20:58Z</DateUtc></FrequencyChange></FrequencyChanges></Clock>\n",60.03,1,480821271,0,,-999999,7,30826,t,41895,72721,5/7/2014,15:20:58,,2,Session2,SessionsList,0,,-999999,8,722681,t,33535,756216,698043,2,1,2,4,,,,,,,,4,1,4,NonCued4,MiniBlocks2,,,,1228495,4,1,b,-999999,3,1268208,b,478,1268686,Green,Congruent,b,White,0,,0,11,1264227,,0,0,,,,,,,,,,,,,Pictures\white.bmp,3000,16000,Pictures\black.bmp,,,,,,,,,,4,1,4,StimulusPr,Pictures\GreenRight.bmp,NonCuedStim4,Right
POP_2,16054,1,"<?xml version=""1.0""?>\n<Clock xmlns:dt=""urn:schemas-microsoft-com:datatypes""><Description dt:dt=""string"">E-Prime Primary Realtime Clock</Description><StartTime><Timestamp dt:dt=""int"">0</Timestamp><DateUtc dt:dt=""string"">2014-05-07T22:20:58Z</DateUtc></StartTime><FrequencyChanges><FrequencyChange><Frequency dt:dt=""r8"">2793030000</Frequency><Timestamp dt:dt=""r8"">40029046596092</Timestamp><Current dt:dt=""r8"">0</Current><DateUtc dt:dt=""string"">2014-05-07T22:20:58Z</DateUtc></FrequencyChange></FrequencyChanges></Clock>\n",60.03,1,480821271,0,,-999999,7,30826,t,41895,72721,5/7/2014,15:20:58,,2,Session2,SessionsList,0,,-999999,8,722681,t,33535,756216,698043,2,1,2,4,,,,,,,,4,1,4,NonCued4,MiniBlocks2,,,,1228495,5,1,r,-999999,18,1296228,r,316,1296544,Green,Congruent,r,White,0,,0,4,1286216,,0,0,,,,,,,,,,,,,Pictures\white.bmp,9000,10000,Pictures\GreenLeft.bmp,,,,,,,,,,5,1,5,StimulusPr,Pictures\black.bmp,NonCuedStim4,Left
POP_2,16054,1,"<?xml version=""1.0""?>\n<Clock xmlns:dt=""urn:schemas-microsoft-com:datatypes""><Description dt:dt=""string"">E-Prime Primary Realtime Clock</Description><StartTime><Timestamp dt:dt=""int"">0</Timestamp><DateUtc dt:dt=""string"">2014-05-07T22:20:58Z</DateUtc></StartTime><FrequencyChanges><FrequencyChange><Frequency dt:dt=""r8"">2793030000</Frequency><Timestamp dt:dt=""r8"">40029046596092</Timestamp><Current dt:dt=""r8"">0</Current><DateUtc dt:dt=""string"">2014-05-07T22:20:58Z</DateUtc></FrequencyChange></FrequencyChanges></Clock>\n",60.03,1,480821271,0,,-999999,7,30826,t,41895,72721,5/7/2014,15:20:58,,2,Session2,SessionsList,0,,-999999,8,722681,t,33535,756216,698043,2,1,2,4,,,,,,,,4,1,4,NonCued4,MiniBlocks2,,,,1228495,6,1,b,-999999,12,1312220,b,963,1313183,Green,Congruent,b,White,0,,0,7,1308222,,0,0,,,,,,,,,,,,,Pictures\white.bmp,3000,16000,Pictures\black.bmp,,,,,,,,,,6,1,6,StimulusPr,Pictures\GreenRight.bmp,NonCuedStim4,Right
POP_2,16054,1,"<?xml version=""1.0""?>\n<Clock xmlns:dt=""urn:schemas-microsoft-com:datatypes""><Description dt:dt=""string"">E-Prime Primary Realtime Clock</Description><StartTime><Timestamp dt:dt=""int"">0</Timestamp><DateUtc dt:dt=""string"">2014-05-07T22:20:58Z</DateUtc></StartTime><FrequencyChanges><FrequencyChange><Frequency dt:dt=""r8"">2793030000</Frequency><Timestamp dt:dt=""r8"">40029046596092</Timestamp><Current dt:dt=""r8"">0</Current><DateUtc dt:dt=""string"">2014-05-07T22:20:58Z</DateUtc></FrequencyChange></FrequencyChanges></Clock>\n",60.03,1,480821271,0,,-999999,7,30826,t,41895,72721,5/7/2014,15:20:58,,2,Session2,SessionsList,0,,-999999,8,722681,t,33535,756216,698043,2,1,2,4,,,,,,,,4,1,4,NonCued4,MiniBlocks2,,,,1228495,7,0,b,-999999,9,1334225,r,263,1334488,Red,Incongruent,b,White,0,,0,6,1330211,,0,0,,,,,,,,,,,,,Pictures\white.bmp,3000,16000,Pictures\RedLeft.bmp,,,,,,,,,,7,1,7,StimulusPr,Pictures\black.bmp,NonCuedStim4,Left
POP_2,16054,1,"<?xml version=""1.0""?>\n<Clock xmlns:dt=""urn:schemas-microsoft-com:datatypes""><Description dt:dt=""string"">E-Prime Primary Realtime Clock</Description><StartTime><Timestamp dt:dt=""int"">0</Timestamp><DateUtc dt:dt=""string"">2014-05-07T22:20:58Z</DateUtc></StartTime><FrequencyChanges><FrequencyChange><Frequency dt:dt=""r8"">2793030000</Frequency><Timestamp dt:dt=""r8"">40029046596092</Timestamp><Current dt:dt=""r8"">0</Current><DateUtc dt:dt=""string"">2014-05-07T22:20:58Z</DateUtc></FrequencyChange></FrequencyChanges></Clock>\n",60.03,1,480821271,0,,-999999,7,30826,t,41895,72721,5/7/2014,15:20:58,,2,Session2,SessionsList,0,,-999999,8,722681,t,33535,756216,698043,2,1,2,4,,,,,,,,4,1,4,NonCued4,MiniBlocks2,,,,1228495,8,1,r,-999999,15,1356231,r,348,1356579,Green,Congruent,r,White,0,,0,14,1352216,,0,0,,,,,,,,,,,,,Pictures\white.bmp,3000,2000,Pictures\GreenLeft.bmp,,,,,,,,,,8,1,8,StimulusPr,Pictures\black.bmp,NonCuedStim4,Left
POP_2,16054,1,"<?xml version=""1.0""?>\n<Clock xmlns:dt=""urn:schemas-microsoft-com:datatypes""><Description dt:dt=""string"">E-Prime Primary Realtime Clock</Description><StartTime><Timestamp dt:dt=""int"">0</Timestamp><DateUtc dt:dt=""string"">2014-05-07T22:20:58Z</DateUtc></StartTime><FrequencyChanges><FrequencyChange><Frequency dt:dt=""r8"">2793030000</Frequency><Timestamp dt:dt=""r8"">40029046596092</Timestamp><Current dt:dt=""r8"">0</Current><DateUtc dt:dt=""string"">2014-05-07T22:20:58Z</DateUtc></FrequencyChange></FrequencyChanges></Clock>\n",60.03,1,480821271,0,,-999999,7,30826,t,41895,72721,5/7/2014,15:20:58,,2,Session2,SessionsList,0,,-999999,8,722681,t,33535,756216,698043,2,1,2,4,,,,,,,,4,1,4,NonCued4,MiniBlocks2,,,,1228495,9,1,b,-999999,4,1367209,b,345,1367554,Green,Congruent,b,White,0,,0,15,1360212,,0,0,,,,,,,,,,,,,Pictures\white.bmp,6000,2000,Pictures\black.bmp,,,,,,,,,,9,1,9,StimulusPr,Pictures\GreenRight.bmp,NonCuedStim4,Right
POP_2,16054,1,"<?xml version=""1.0""?>\n<Clock xmlns:dt=""urn:schemas-microsoft-com:datatypes""><Description dt:dt=""string"">E-Prime Primary Realtime Clock</Description><StartTime><Timestamp dt:dt=""int"">0</Timestamp><DateUtc dt:dt=""string"">2014-05-07T22:20:58Z</DateUtc></StartTime><FrequencyChanges><FrequencyChange><Frequency dt:dt=""r8"">2793030000</Frequency><Timestamp dt:dt=""r8"">40029046596092</Timestamp><Current dt:dt=""r8"">0</Current><DateUtc dt:dt=""string"">2014-05-07T22:20:58Z</DateUtc></FrequencyChange></FrequencyChanges></Clock>\n",60.03,1,480821271,0,,-999999,7,30826,t,41895,72721,5/7/2014,15:20:58,,2,Session2,SessionsList,0,,-999999,8,722681,t,33535,756216,698043,2,1,2,4,,,,,,,,4,1,4,NonCued4,MiniBlocks2,,,,1228495,10,1,b,-999999,8,1376204,b,352,1376556,Green,Congruent,b,White,0,,0,9,1371207,,0,0,,,,,,,,,,,,,Pictures\white.bmp,4000,4000,Pictures\black.bmp,,,,,,,,,,10,1,10,StimulusPr,Pictures\GreenRight.bmp,NonCuedStim4,Right
