ExperimentName,Subject,Session,Clock.Information,Display.RefreshRate,Group,RandomSeed,Session1Onset.ACC,Session1Onset.CRESP,Session1Onset.DurationError,Session1Onset.OnsetDelay,Session1Onset.OnsetTime,Session1Onset.RESP,Session1Onset.RT,Session1Onset.RTTime,SessionDate,SessionTime,SessionTimeUtc,Block,Procedure[Block],Running[Block],Session2Onset.ACC,Session2Onset.CRESP,Session2Onset.DurationError,Session2Onset.OnsetDelay,Session2Onset.OnsetTime,Session2Onset.RESP,Session2Onset.RT,Session2Onset.RTTime,SessionBreak.OnsetTime,SessionsList,SessionsList.Cycle,SessionsList.Sample,Trial,CuedPrompt1.OnsetTime,CuedPrompt2.OnsetTime,CuedPrompt3.OnsetTime,CuedPrompt4.OnsetTime,MiniBlocks1,MiniBlocks1.Cycle,MiniBlocks1.Sample,MiniBlocks2,MiniBlocks2.Cycle,MiniBlocks2.Sample,Procedure[Trial],Running[Trial],UncuedPrompt1.OnsetTime,UncuedPrompt2.OnsetTime,UncuedPrompt3.OnsetTime,UncuedPrompt4.OnsetTime,SubTrial,Arrow1.ACC,Arrow1.CRESP,Arrow1.DurationError,Arrow1.OnsetDelay,Arrow1.OnsetTime,Arrow1.RESP,Arrow1.RT,Arrow1.RTTime,ArrowColor,Congruence,CorrectResp,Cue,Cue.ACC,Cue.CRESP,Cue.DurationError,Cue.OnsetDelay,Cue.OnsetTime,Cue.RESP,Cue.RT,Cue.RTTime,CuedStim1,CuedStim1.Cycle,CuedStim1.Sample,CuedStim2,CuedStim2.Cycle,CuedStim2.Sample,CuedStim3,CuedStim3.Cycle,CuedStim3.Sample,CuedStim4,CuedStim4.Cycle,CuedStim4.Sample,CueImage,JitterCue,JitterTrial,LeftImage,NonCuedStim1,NonCuedStim1.Cycle,NonCuedStim1.Sample,NonCuedStim2,NonCuedStim2.Cycle,NonCuedStim2.Sample,NonCuedStim3,NonCuedStim3.Cycle,NonCuedStim3.Sample,NonCuedStim4,NonCuedStim4.Cycle,NonCuedStim4.Sample,Procedure[SubTrial],RightImage,Running[SubTrial],Stimulus
POP_2,27011,1,"<?xml version=""1.0""?>\n<Clock xmlns:dt=""urn:schemas-microsoft-com:datatypes""><Description dt:dt=""string"">E-Prime Primary Realtime Clock</Description><StartTime><Timestamp dt:dt=""int"">0</Timestamp><DateUtc dt:dt=""string"">2014-05-02T22:18:06Z</DateUtc></StartTime><FrequencyChanges><FrequencyChange><Frequency dt:dt=""r8"">2793020000</Frequency><Timestamp dt:dt=""r8"">120840905311595</Timestamp><Current dt:dt=""r8"">0</Current><DateUtc dt:dt=""string"">2014-05-02T22:18:06Z</DateUtc></FrequencyChange></FrequencyChanges></Clock>\n",60.034,1,-1726469835,0,,-999999,11,16262,t,52442,68704,5/2/2014,15:18:06,,1,Session1,SessionsList,,,,,,,,,,1,1,1,1,,,,,,,,1,1,1,NonCued3,MiniBlocks2,,,68719,,1,1,b,-999999,18,88726,b,492,89218,Green,Congruent,b,White,0,,0,11,78714,,0,0,,,,,,,,,,,,,Pictures\white.bmp,9000,10000,Pictures\black.bmp,,,,,,,1,1,1,,,,StimulusPr,Pictures\GreenRight.bmp,NonCuedStim3,Right
POP_2,27011,1,"<?xml version=""1.0""?>\n<Clock xmlns:dt=""urn:schemas-microsoft-com:datatypes""><Description dt:dt=""string"">E-Prime Primary Realtime Clock</Description><StartTime><Timestamp dt:dt=""int"">0</Timestamp><DateUtc dt:dt=""string"">2014-05-02T22:18:06Z</DateUtc></StartTime><FrequencyChanges><FrequencyChange><Frequency dt:dt=""r8"">2793020000</Frequency><Timestamp dt:dt=""r8"">120840905311595</Timestamp><Current dt:dt=""r8"">0</Current><DateUtc dt:dt=""string"">2014-05-02T22:18:06Z</DateUtc></FrequencyChange></FrequencyChanges></Clock>\n",60.034,1,-1726469835,0,,-999999,11,16262,t,52442,68704,5/2/2014,15:18:06,,1,Session1,SessionsList,,,,,,,,,,1,1,1,1,,,,,,,,1,1,1,NonCued3,MiniBlocks2,,,68719,,2,1,r,-999999,11,110715,r,692,111407,Red,Incongruent,r,White,0,,0,16,100720,,0,0,,,,,,,,,,,,,Pictures\white.bmp,9000,10000,Pictures\black.bmp,,,,,,,2,1,2,,,,StimulusPr,Pictures\RedRight.bmp,NonCuedStim3,Right
POP_2,27011,1,"<?xml version=""1.0""?>\n<Clock xmlns:dt=""urn:schemas-microsoft-com:datatypes""><Description dt:dt=""string"">E-Prime Primary Realtime Clock</Description><StartTime><Timestamp dt:dt=""int"">0</Timestamp><DateUtc dt:dt=""string"">2014-05-02T22:18:06Z</DateUtc></StartTime><FrequencyChanges><FrequencyChange><Frequency dt:dt=""r8"">2793020000</Frequency><Timestamp dt:dt=""r8"">120840905311595</Timestamp><Current dt:dt=""r8"">0</Current><DateUtc dt:dt=""string"">2014-05-02T22:18:06Z</DateUtc></FrequencyChange></FrequencyChanges></Clock>\n",60.034,1,-1726469835,0,,-999999,11,16262,t,52442,68704,5/2/2014,15:18:06,,1,Session1,SessionsList,,,,,,,,,,1,1,1,1,,,,,,,,1,1,1,NonCued3,MiniBlocks2,,,68719,,3,1,r,-999999,7,127707,r,856,128563,Green,Congruent,r,White,0,,0,5,122693,,0,0,,,,,,,,,,,,,Pictures\white.bmp,4000,4000,Pictures\GreenLeft.bmp,,,,,,,3,1,3,,,,StimulusPr,Pictures\black.bmp,NonCuedStim3,Left
POP_2,27011,1,"<?xml version=""1.0""?>\n<Clock xmlns:dt=""urn:schemas-microsoft-com:datatypes""><Description dt:dt=""string"">E-Prime Primary Realtime Clock</Description><StartTime><Timestamp dt:dt=""int"">0</Timestamp><DateUtc dt:dt=""string"">2014-05-02T22:18:06Z</DateUtc></StartTime><FrequencyChanges><FrequencyChange><Frequency dt:dt=""r8"">2793020000</Frequency><Timestamp dt:dt=""r8"">120840905311595</Timestamp><Current dt:dt=""r8"">0</Current><DateUtc dt:dt=""string"">2014-05-02T22:18:06Z</DateUtc></FrequencyChange></FrequencyChanges></Clock>\n",60.034,1,-1726469835,0,,-999999,11,16262,t,52442,68704,5/2/2014,15:18:06,,1,Session1,SessionsList,,,,,,,,,,1,1,1,1,,,,,,,,1,1,1,NonCued3,MiniBlocks2,,,68719,,4,1,b,-999999,13,140717,b,612,141329,Red,Incongruent,b,White,0,,0,16,133720,,0,0,,,,,,,,,,,,,Pictures\white.bmp,6000,4000,Pictures\RedLeft.bmp,,,,,,,4,1,4,,,,StimulusPr,Pictures\black.bmp,NonCuedStim3,Left
POP_2,27011,1,"<?xml version=""1.0""?>\n<Clock xmlns:dt=""urn:schemas-microsoft-com:datatypes""><Description dt:dt=""string"">E-Prime Primary Realtime Clock</Description><StartTime><Timestamp dt:dt=""int"">0</Timestamp><DateUtc dt:dt=""string"">2014-05-02T22:18:06Z</DateUtc></StartTime><FrequencyChanges><FrequencyChange><Frequency dt:dt=""r8"">2793020000</Frequency><Timestamp dt:dt=""r8"">120840905311595</Timestamp><Current dt:dt=""r8"">0</Current><DateUtc dt:dt=""string"">2014-05-02T22:18:06Z</DateUtc></FrequencyChange></FrequencyChanges></Clock>\n",60.034,1,-1726469835,0,,-999999,11,16262,t,52442,68704,5/2/2014,15:18:06,,1,Session1,SessionsList,,,,,,,,,,1,1,1,1,,,,,,,,1,1,1,NonCued3,MiniBlocks2,,,68719,,5,1,b,-999999,8,150712,b,539,151251,Green,Congruent,b,White,0,,0,10,146714,,0,0,,,,,,,,,,,,,Pictures\white.bmp,3000,2000,Pictures\black.bmp,,,,,,,5,1,5,,,,StimulusPr,Pictures\GreenRight.bmp,NonCuedStim3,Right
POP_2,27011,1,"<?xml version=""1.0""?>\n<Clock xmlns:dt=""urn:schemas-microsoft-com:datatypes""><Description dt:dt=""string"">E-Prime Primary Realtime Clock</Description><StartTime><Timestamp dt:dt=""int"">0</Timestamp><DateUtc dt:dt=""string"">2014-05-02T22:18:06Z</DateUtc></StartTime><FrequencyChanges><FrequencyChange><Frequency dt:dt=""r8"">2793020000</Frequency><Timestamp dt:dt=""r8"">120840905311595</Timestamp><Current dt:dt=""r8"">0</Current><DateUtc dt:dt=""string"">2014-05-02T22:18:06Z</DateUtc></FrequencyChange></FrequencyChanges></Clock>\n",60.034,1,-1726469835,0,,-999999,11,16262,t,52442,68704,5/2/2014,15:18:06,,1,Session1,SessionsList,,,,,,,,,,1,1,1,1,,,,,,,,1,1,1,NonCued3,MiniBlocks2,,,68719,,6,1,r,-999999,4,158708,r,652,159360,Green,Congruent,r,White,0,,0,6,154710,,0,0,,,,,,,,,,,,,Pictures\white.bmp,3000,2000,Pictures\GreenLeft.bmp,,,,,,,6,1,6,,,,StimulusPr,Pictures\black.bmp,NonCuedStim3,Left
POP_2,27011,1,"<?xml version=""1.0""?>\n<Clock xmlns:dt=""urn:schemas-microsoft-com:datatypes""><Description dt:dt=""string"">E-Prime Primary Realtime Clock</Description><StartTime><Timestamp dt:dt=""int"">0</Timestamp><DateUtc dt:dt=""string"">2014-05-02T22:18:06Z</DateUtc></StartTime><FrequencyChanges><FrequencyChange><Frequency dt:dt=""r8"">2793020000</Frequency><Timestamp dt:dt=""r8"">120840905311595</Timestamp><Current dt:dt=""r8"">0</Current><DateUtc dt:dt=""string"">2014-05-02T22:18:06Z</DateUtc></FrequencyChange></FrequencyChanges></Clock>\n",60.034,1,-1726469835,0,,-999999,11,16262,t,52442,68704,5/2/2014,15:18:06,,1,Session1,SessionsList,,,,,,,,,,1,1,1,1,,,,,,,,1,1,1,NonCued3,MiniBlocks2,,,68719,,7,1,b,-999999,15,169719,b,499,170218,Green,Congruent,b,White,0,,0,2,162706,,0,0,,,,,,,,,,,,,Pictures\white.bmp,6000,16000,Pictures\black.bmp,,,,,,,7,1,7,,,,StimulusPr,Pictures\GreenRight.bmp,NonCuedStim3,Right
POP_2,27011,1,"<?xml version=""1.0""?>\n<Clock xmlns:dt=""urn:schemas-microsoft-com:datatypes""><Description dt:dt=""string"">E-Prime Primary Realtime Clock</Description><StartTime><Timestamp dt:dt=""int"">0</Timestamp><DateUtc dt:dt=""string"">2014-05-02T22:18:06Z</DateUtc></StartTime><FrequencyChanges><FrequencyChange><Frequency dt:dt=""r8"">2793020000</Frequency><Timestamp dt:dt=""r8"">120840905311595</Timestamp><Current dt:dt=""r8"">0</Current><DateUtc dt:dt=""string"">2014-05-02T22:18:06Z</DateUtc></FrequencyChange></FrequencyChanges></Clock>\n",60.034,1,-1726469835,0,,-999999,11,16262,t,52442,68704,5/2/2014,15:18:06,,1,Session1,SessionsList,,,,,,,,,,1,1,1,1,,,,,,,,1,1,1,NonCued3,MiniBlocks2,,,68719,,8,1,r,-999999,4,191708,r,824,192532,Red,Incongruent,r,White,0,,0,11,187710,,0,0,,,,,,,,,,,,,Pictures\white.bmp,3000,2000,Pictures\black.bmp,,,,,,,8,1,8,,,,StimulusPr,Pictures\RedRight.bmp,NonCuedStim3,Right
POP_2,27011,1,"<?xml version=""1.0""?>\n<Clock xmlns:dt=""urn:schemas-microsoft-com:datatypes""><Description dt:dt=""string"">E-Prime Primary Realtime Clock</Description><StartTime><Timestamp dt:dt=""int"">0</Timestamp><DateUtc dt:dt=""string"">2014-05-02T22:18:06Z</DateUtc></StartTime><FrequencyChanges><FrequencyChange><Frequency dt:dt=""r8"">2793020000</Frequency><Timestamp dt:dt=""r8"">120840905311595</Timestamp><Current dt:dt=""r8"">0</Current><DateUtc dt:dt=""string"">2014-05-02T22:18:06Z</DateUtc></FrequencyChange></FrequencyChanges></Clock>\n",60.034,1,-1726469835,0,,-999999,11,16262,t,52442,68704,5/2/2014,15:18:06,,1,Session1,SessionsList,,,,,,,,,,1,1,1,1,,,,,,,,1,1,1,NonCued3,MiniBlocks2,,,68719,,9,0,r,-999999,14,205718,b,392,206110,Green,Congruent,r,White,0,,0,2,195706,,0,0,,,,,,,,,,,,,Pictures\white.bmp,9000,10000,Pictures\GreenLeft.bmp,,,,,,,9,1,9,,,,StimulusPr,Pictures\black.bmp,NonCuedStim3,Left
POP_2,27011,1,"<?xml version=""1.0""?>\n<Clock xmlns:dt=""urn:schemas-microsoft-com:datatypes""><Description dt:dt=""string"">E-Prime Primary Realtime Clock</Description><StartTime><Timestamp dt:dt=""int"">0</Timestamp><DateUtc dt:dt=""string"">2014-05-02T22:18:06Z</DateUtc></StartTime><FrequencyChanges><FrequencyChange><Frequency dt:dt=""r8"">2793020000</Frequency><Timestamp dt:dt=""r8"">120840905311595</Timestamp><Current dt:dt=""r8"">0</Current><DateUtc dt:dt=""string"">2014-05-02T22:18:06Z</DateUtc></FrequencyChange></FrequencyChanges></Clock>\n",60.034,1,-1726469835,0,,-999999,11,16262,t,52442,68704,5/2/2014,15:18:06,,1,Session1,SessionsList,,,,,,,,,,1,1,1,1,,,,,,,,1,1,1,NonCued3,MiniBlocks2,,,68719,,10,1,r,-999999,5,224709,r,448,225157,Green,Congruent,r,White,0,,0,7,217695,,0,0,,,,,,,,,,,,,Pictures\white.bmp,6000,4000,Pictures\GreenLeft.bmp,,,,,,,10,1,10,,,,StimulusPr,Pictures\black.bmp,NonCuedStim3,Left
POP_2,27011,1,"<?xml version=""1.0""?>\n<Clock xmlns:dt=""urn:schemas-microsoft-com:datatypes""><Description dt:dt=""string"">E-Prime Primary Realtime Clock</Description><StartTime><Timestamp dt:dt=""int"">0</Timestamp><DateUtc dt:dt=""string"">2014-05-02T22:18:06Z</DateUtc></StartTime><FrequencyChanges><FrequencyChange><Frequency dt:dt=""r8"">2793020000</Frequency><Timestamp dt:dt=""r8"">120840905311595</Timestamp><Current dt:dt=""r8"">0</Current><DateUtc dt:dt=""string"">2014-05-02T22:18:06Z</DateUtc></FrequencyChange></FrequencyChanges></Clock>\n",60.034,1,-1726469835,0,,-999999,11,16262,t,52442,68704,5/2/2014,15:18:06,,1,Session1,SessionsList,,,,,,,,,,1,1,1,2,,,229173,,,,,2,1,2,Cued3,MiniBlocks2,,,,,1,1,b,-999999,4,242700,b,486,243186,White,Congruent,b,Green,0,,0,14,238718,,0,0,,,,,,,1,1,1,,,,Pictures\green.bmp,3000,2000,Pictures\black.bmp,,,,,,,,,,,,,StimulusPr,Pictures\right.bmp,CuedStim3,Right
POP_2,27011,1,"<?xml version=""1.0""?>\n<Clock xmlns:dt=""urn:schemas-microsoft-com:datatypes""><Description dt:dt=""string"">E-Prime Primary Realtime Clock</Description><StartTime><Timestamp dt:dt=""int"">0</Timestamp><DateUtc dt:dt=""string"">2014-05-02T22:18:06Z</DateUtc></StartTime><FrequencyChanges><FrequencyChange><Frequency dt:dt=""r8"">2793020000</Frequency><Timestamp dt:dt=""r8"">120840905311595</Timestamp><Current dt:dt=""r8"">0</Current><DateUtc dt:dt=""string"">2014-05-02T22:18:06Z</DateUtc></FrequencyChange></FrequencyChanges></Clock>\n",60.034,1,-1726469835,0,,-999999,11,16262,t,52442,68704,5/2/2014,15:18:06,,1,Session1,SessionsList,,,,,,,,,,1,1,1,2,,,229173,,,,,2,1,2,Cued3,MiniBlocks2,,,,,2,1,b,-999999,8,250696,b,367,251063,White,Congruent,b,Green,0,,0,10,246698,,0,0,,,,,,,2,1,2,,,,Pictures\green.bmp,3000,10000,Pictures\black.bmp,,,,,,,,,,,,,StimulusPr,Pictures\right.bmp,CuedStim3,Right
POP_2,27011,1,"<?xml version=""1.0""?>\n<Clock xmlns:dt=""urn:schemas-microsoft-com:datatypes""><Description dt:dt=""string"">E-Prime Primary Realtime Clock</Description><StartTime><Timestamp dt:dt=""int"">0</Timestamp><DateUtc dt:dt=""string"">2014-05-02T22:18:06Z</DateUtc></StartTime><FrequencyChanges><FrequencyChange><Frequency dt:dt=""r8"">2793020000</Frequency><Timestamp dt:dt=""r8"">120840905311595</Timestamp><Current dt:dt=""r8"">0</Current><DateUtc dt:dt=""string"">2014-05-02T22:18:06Z</DateUtc></FrequencyChange></FrequencyChanges></Clock>\n",60.034,1,-1726469835,0,,-999999,11,16262,t,52442,68704,5/2/2014,15:18:06,,1,Session1,SessionsList,,,,,,,,,,1,1,1,2,,,229173,,,,,2,1,2,Cued3,MiniBlocks2,,,,,3,1,r,-999999,14,272718,r,392,273110,White,Congruent,r,Green,0,,0,3,262706,,0,0,,,,,,,3,1,3,,,,Pictures\green.bmp,9000,2000,Pictures\left.bmp,,,,,,,,,,,,,StimulusPr,Pictures\black.bmp,CuedStim3,Left
POP_2,27011,1,"<?xml version=""1.0""?>\n<Clock xmlns:dt=""urn:schemas-microsoft-com:datatypes""><Description dt:dt=""string"">E-Prime Primary Realtime Clock</Description><StartTime><Timestamp dt:dt=""int"">0</Timestamp><DateUtc dt:dt=""string"">2014-05-02T22:18:06Z</DateUtc></StartTime><FrequencyChanges><FrequencyChange><Frequency dt:dt=""r8"">2793020000</Frequency><Timestamp dt:dt=""r8"">120840905311595</Timestamp><Current dt:dt=""r8"">0</Current><DateUtc dt:dt=""string"">2014-05-02T22:18:06Z</DateUtc></FrequencyChange></FrequencyChanges></Clock>\n",60.034,1,-1726469835,0,,-999999,11,16262,t,52442,68704,5/2/2014,15:18:06,,1,Session1,SessionsList,,,,,,,,,,1,1,1,2,,,229173,,,,,2,1,2,Cued3,MiniBlocks2,,,,,4,1,r,-999999,15,281714,r,412,282126,White,Congruent,r,Green,0,,0,8,276716,,0,0,,,,,,,4,1,4,,,,Pictures\green.bmp,4000,16000,Pictures\left.bmp,,,,,,,,,,,,,StimulusPr,Pictures\black.bmp,CuedStim3,Left
POP_2,27011,1,"<?xml version=""1.0""?>\n<Clock xmlns:dt=""urn:schemas-microsoft-com:datatypes""><Description dt:dt=""string"">E-Prime Primary Realtime Clock</Description><StartTime><Timestamp dt:dt=""int"">0</Timestamp><DateUtc dt:dt=""string"">2014-05-02T22:18:06Z</DateUtc></StartTime><FrequencyChanges><FrequencyChange><Frequency dt:dt=""r8"">2793020000</Frequency><Timestamp dt:dt=""r8"">120840905311595</Timestamp><Current dt:dt=""r8"">0</Current><DateUtc dt:dt=""string"">2014-05-02T22:18:06Z</DateUtc></FrequencyChange></FrequencyChanges></Clock>\n",60.034,1,-1726469835,0,,-999999,11,16262,t,52442,68704,5/2/2014,15:18:06,,1,Session1,SessionsList,,,,,,,,,,1,1,1,2,,,229173,,,,,2,1,2,Cued3,MiniBlocks2,,,,,5,1,r,-999999,9,303703,r,471,304174,White,Incongruent,r,Red,0,,0,13,299721,,0,0,,,,,,,5,1,5,,,,Pictures\red.bmp,3000,4000,Pictures\black.bmp,,,,,,,,,,,,,StimulusPr,Pictures\right.bmp,CuedStim3,Right
POP_2,27011,1,"<?xml version=""1.0""?>\n<Clock xmlns:dt=""urn:schemas-microsoft-com:datatypes""><Description dt:dt=""string"">E-Prime Primary Realtime Clock</Description><StartTime><Timestamp dt:dt=""int"">0</Timestamp><DateUtc dt:dt=""string"">2014-05-02T22:18:06Z</DateUtc></StartTime><FrequencyChanges><FrequencyChange><Frequency dt:dt=""r8"">2793020000</Frequency><Timestamp dt:dt=""r8"">120840905311595</Timestamp><Current dt:dt=""r8"">0</Current><DateUtc dt:dt=""string"">2014-05-02T22:18:06Z</DateUtc></FrequencyChange></FrequencyChanges></Clock>\n",60.034,1,-1726469835,0,,-999999,11,16262,t,52442,68704,5/2/2014,15:18:06,,1,Session1,SessionsList,,,,,,,,,,1,1,1,2,,,229173,,,,,2,1,2,Cued3,MiniBlocks2,,,,,6,1,b,-999999,5,316696,b,492,317188,White,Congruent,b,Green,0,,0,13,309717,,0,0,,,,,,,6,1,6,,,,Pictures\green.bmp,6000,4000,Pictures\black.bmp,,,,,,,,,,,,,StimulusPr,Pictures\right.bmp,CuedStim3,Right
POP_2,27011,1,"<?xml version=""1.0""?>\n<Clock xmlns:dt=""urn:schemas-microsoft-com:datatypes""><Description dt:dt=""string"">E-Prime Primary Realtime Clock</Description><StartTime><Timestamp dt:dt=""int"">0</Timestamp><DateUtc dt:dt=""string"">2014-05-02T22:18:06Z</DateUtc></StartTime><FrequencyChanges><FrequencyChange><Frequency dt:dt=""r8"">2793020000</Frequency><Timestamp dt:dt=""r8"">120840905311595</Timestamp><Current dt:dt=""r8"">0</Current><DateUtc dt:dt=""string"">2014-05-02T22:18:06Z</DateUtc></FrequencyChange></FrequencyChanges></Clock>\n",60.034,1,-1726469835,0,,-999999,11,16262,t,52442,68704,5/2/2014,15:18:06,,1,Session1,SessionsList,,,,,,,,,,1,1,1,2,,,229173,,,,,2,1,2,Cued3,MiniBlocks2,,,,,7,1,r,-999999,8,327708,r,449,328157,White,Congruent,r,Green,0,,0,3,322693,,0,0,,,,,,,7,1,7,,,,Pictures\green.bmp,4000,16000,Pictures\left.bmp,,,,,,,,,,,,,StimulusPr,Pictures\black.bmp,CuedStim3,Left
POP_2,27011,1,"<?xml version=""1.0""?>\n<Clock xmlns:dt=""urn:schemas-microsoft-com:datatypes""><Description dt:dt=""string"">E-Prime Primary Realtime Clock</Description><StartTime><Timestamp dt:dt=""int"">0</Timestamp><DateUtc dt:dt=""string"">2014-05-02T22:18:06Z</DateUtc></StartTime><FrequencyChanges><FrequencyChange><Frequency dt:dt=""r8"">2793020000</Frequency><Timestamp dt:dt=""r8"">120840905311595</Timestamp><Current dt:dt=""r8"">0</Current><DateUtc dt:dt=""string"">2014-05-02T22:18:06Z</DateUtc></FrequencyChange></FrequencyChanges></Clock>\n",60.034,1,-1726469835,0,,-999999,11,16262,t,52442,68704,5/2/2014,15:18:06,,1,Session1,SessionsList,,,,,,,,,,1,1,1,2,,,229173,,,,,2,1,2,Cued3,MiniBlocks2,,,,,8,1,b,-999999,9,349713,b,523,350236,White,Incongruent,b,Red,0,,0,6,345715,,0,0,,,,,,,8,1,8,,,,Pictures\red.bmp,3000,2000,Pictures\left.bmp,,,,,,,,,,,,,StimulusPr,Pictures\black.bmp,CuedStim3,Left
POP_2,27011,1,"<?xml version=""1.0""?>\n<Clock xmlns:dt=""urn:schemas-microsoft-com:datatypes""><Description dt:dt=""string"">E-Prime Primary Realtime Clock</Description><StartTime><Timestamp dt:dt=""int"">0</Timestamp><DateUtc dt:dt=""string"">2014-05-02T22:18:06Z</DateUtc></StartTime><FrequencyChanges><FrequencyChange><Frequency dt:dt=""r8"">2793020000</Frequency><Timestamp dt:dt=""r8"">120840905311595</Timestamp><Current dt:dt=""r8"">0</Current><DateUtc dt:dt=""string"">2014-05-02T22:18:06Z</DateUtc></FrequencyChange></FrequencyChanges></Clock>\n",60.034,1,-1726469835,0,,-999999,11,16262,t,52442,68704,5/2/2014,15:18:06,,1,Session1,SessionsList,,,,,,,,,,1,1,1,2,,,229173,,,,,2,1,2,Cued3,MiniBlocks2,,,,,9,1,r,-999999,17,357726,r,556,358282,White,Congruent,r,Green,0,,0,2,353711,,0,0,,,,,,,9,1,9,,,,Pictures\green.bmp,3000,2000,Pictures\left.bmp,,,,,,,,,,,,,StimulusPr,Pictures\black.bmp,CuedStim3,Left
POP_2,27011,1,"<?xml version=""1.0""?>\n<Clock xmlns:dt=""urn:schemas-microsoft-com:datatypes""><Description dt:dt=""string"">E-Prime Primary Realtime Clock</Description><StartTime><Timestamp dt:dt=""int"">0</Timestamp><DateUtc dt:dt=""string"">2014-05-02T22:18:06Z</DateUtc></StartTime><FrequencyChanges><FrequencyChange><Frequency dt:dt=""r8"">2793020000</Frequency><Timestamp dt:dt=""r8"">120840905311595</Timestamp><Current dt:dt=""r8"">0</Current><DateUtc dt:dt=""string"">2014-05-02T22:18:06Z</DateUtc></FrequencyChange></FrequencyChanges></Clock>\n",60.034,1,-1726469835,0,,-999999,11,16262,t,52442,68704,5/2/2014,15:18:06,,1,Session1,SessionsList,,,,,,,,,,1,1,1,2,,,229173,,,,,2,1,2,Cued3,MiniBlocks2,,,,,10,1,b,-999999,15,371719,b,391,372110,White,Congruent,b,Green,0,,0,15,361724,,0,0,,,,,,,10,1,10,,,,Pictures\green.bmp,9000,10000,Pictures\black.bmp,,,,,,,,,,,,,StimulusPr,Pictures\right.bmp,CuedStim3,Right
POP_2,27011,1,"<?xml version=""1.0""?>\n<Clock xmlns:dt=""urn:schemas-microsoft-com:datatypes""><Description dt:dt=""string"">E-Prime Primary Realtime Clock</Description><StartTime><Timestamp dt:dt=""int"">0</Timestamp><DateUtc dt:dt=""string"">2014-05-02T22:18:06Z</DateUtc></StartTime><FrequencyChanges><FrequencyChange><Frequency dt:dt=""r8"">2793020000</Frequency><Timestamp dt:dt=""r8"">120840905311595</Timestamp><Current dt:dt=""r8"">0</Current><DateUtc dt:dt=""string"">2014-05-02T22:18:06Z</DateUtc></FrequencyChange></FrequencyChanges></Clock>\n",60.034,1,-1726469835,0,,-999999,11,16262,t,52442,68704,5/2/2014,15:18:06,,1,Session1,SessionsList,,,,,,,,,,1,1,1,3,,,,382131,,,,3,1,3,Cued4,MiniBlocks2,,,,,1,1,b,-999999,18,398722,b,654,399376,White,Congruent,b,Green,0,,0,5,391709,,0,0,,,,,,,,,,1,1,1,Pictures\green.bmp,6000,2000,Pictures\black.bmp,,,,,,,,,,,,,StimulusPr,Pictures\right.bmp,CuedStim4,Right
POP_2,27011,1,"<?xml version=""1.0""?>\n<Clock xmlns:dt=""urn:schemas-microsoft-com:datatypes""><Description dt:dt=""string"">E-Prime Primary Realtime Clock</Description><StartTime><Timestamp dt:dt=""int"">0</Timestamp><DateUtc dt:dt=""string"">2014-05-02T22:18:06Z</DateUtc></StartTime><FrequencyChanges><FrequencyChange><Frequency dt:dt=""r8"">2793020000</Frequency><Timestamp dt:dt=""r8"">120840905311595</Timestamp><Current dt:dt=""r8"">0</Current><DateUtc dt:dt=""string"">2014-05-02T22:18:06Z</DateUtc></FrequencyChange></FrequencyChanges></Clock>\n",60.034,1,-1726469835,0,,-999999,11,16262,t,52442,68704,5/2/2014,15:18:06,,1,Session1,SessionsList,,,,,,,,,,1,1,1,3,,,,382131,,,,3,1,3,Cued4,MiniBlocks2,,,,,2,1,r,-999999,11,412715,r,567,413282,White,Incongruent,r,Red,0,,0,12,402720,,0,0,,,,,,,,,,2,1,2,Pictures\red.bmp,9000,2000,Pictures\black.bmp,,,,,,,,,,,,,StimulusPr,Pictures\right.bmp,CuedStim4,Right
POP_2,27011,1,"<?xml version=""1.0""?>\n<Clock xmlns:dt=""urn:schemas-microsoft-com:datatypes""><Description dt:dt=""string"">E-Prime Primary Realtime Clock</Description><StartTime><Timestamp dt:dt=""int"">0</Timestamp><DateUtc dt:dt=""string"">2014-05-02T22:18:06Z</DateUtc></StartTime><FrequencyChanges><FrequencyChange><Frequency dt:dt=""r8"">2793020000</Frequency><Timestamp dt:dt=""r8"">120840905311595</Timestamp><Current dt:dt=""r8"">0</Current><DateUtc dt:dt=""string"">2014-05-02T22:18:06Z</DateUtc></FrequencyChange></FrequencyChanges></Clock>\n",60.034,1,-1726469835,0,,-999999,11,16262,t,52442,68704,5/2/2014,15:18:06,,1,Session1,SessionsList,,,,,,,,,,1,1,1,3,,,,382131,,,,3,1,3,Cued4,MiniBlocks2,,,,,3,1,b,-999999,7,420711,b,509,421220,White,Congruent,b,Green,0,,0,14,416713,,0,0,,,,,,,,,,3,1,3,Pictures\green.bmp,3000,4000,Pictures\black.bmp,,,,,,,,,,,,,StimulusPr,Pictures\right.bmp,CuedStim4,Right
POP_2,27011,1,"<?xml version=""1.0""?>\n<Clock xmlns:dt=""urn:schemas-microsoft-com:datatypes""><Description dt:dt=""string"">E-Prime Primary Realtime Clock</Description><StartTime><Timestamp dt:dt=""int"">0</Timestamp><DateUtc dt:dt=""string"">2014-05-02T22:18:06Z</DateUtc></StartTime><FrequencyChanges><FrequencyChange><Frequency dt:dt=""r8"">2793020000</Frequency><Timestamp dt:dt=""r8"">120840905311595</Timestamp><Current dt:dt=""r8"">0</Current><DateUtc dt:dt=""string"">2014-05-02T22:18:06Z</DateUtc></FrequencyChange></FrequencyChanges></Clock>\n",60.034,1,-1726469835,0,,-999999,11,16262,t,52442,68704,5/2/2014,15:18:06,,1,Session1,SessionsList,,,,,,,,,,1,1,1,3,,,,382131,,,,3,1,3,Cued4,MiniBlocks2,,,,,4,1,r,-999999,14,430723,r,434,431157,White,Congruent,r,Green,0,,0,17,426725,,0,0,,,,,,,,,,4,1,4,Pictures\green.bmp,3000,4000,Pictures\left.bmp,,,,,,,,,,,,,StimulusPr,Pictures\black.bmp,CuedStim4,Left
POP_2,27011,1,"<?xml version=""1.0""?>\n<Clock xmlns:dt=""urn:schemas-microsoft-com:datatypes""><Description dt:dt=""string"">E-Prime Primary Realtime Clock</Description><StartTime><Timestamp dt:dt=""int"">0</Timestamp><DateUtc dt:dt=""string"">2014-05-02T22:18:06Z</DateUtc></StartTime><FrequencyChanges><FrequencyChange><Frequency dt:dt=""r8"">2793020000</Frequency><Timestamp dt:dt=""r8"">120840905311595</Timestamp><Current dt:dt=""r8"">0</Current><DateUtc dt:dt=""string"">2014-05-02T22:18:06Z</DateUtc></FrequencyChange></FrequencyChanges></Clock>\n",60.034,1,-1726469835,0,,-999999,11,16262,t,52442,68704,5/2/2014,15:18:06,,1,Session1,SessionsList,,,,,,,,,,1,1,1,3,,,,382131,,,,3,1,3,Cued4,MiniBlocks2,,,,,5,1,b,-999999,14,441718,b,643,442361,White,Incongruent,b,Red,0,,0,11,436720,,0,0,,,,,,,,,,5,1,5,Pictures\red.bmp,4000,16000,Pictures\left.bmp,,,,,,,,,,,,,StimulusPr,Pictures\black.bmp,CuedStim4,Left
POP_2,27011,1,"<?xml version=""1.0""?>\n<Clock xmlns:dt=""urn:schemas-microsoft-com:datatypes""><Description dt:dt=""string"">E-Prime Primary Realtime Clock</Description><StartTime><Timestamp dt:dt=""int"">0</Timestamp><DateUtc dt:dt=""string"">2014-05-02T22:18:06Z</DateUtc></StartTime><FrequencyChanges><FrequencyChange><Frequency dt:dt=""r8"">2793020000</Frequency><Timestamp dt:dt=""r8"">120840905311595</Timestamp><Current dt:dt=""r8"">0</Current><DateUtc dt:dt=""string"">2014-05-02T22:18:06Z</DateUtc></FrequencyChange></FrequencyChanges></Clock>\n",60.034,1,-1726469835,0,,-999999,11,16262,t,52442,68704,5/2/2014,15:18:06,,1,Session1,SessionsList,,,,,,,,,,1,1,1,3,,,,382131,,,,3,1,3,Cued4,MiniBlocks2,,,,,6,1,b,-999999,14,463707,b,622,464329,White,Congruent,b,Green,0,,0,16,459725,,0,0,,,,,,,,,,6,1,6,Pictures\green.bmp,3000,2000,Pictures\black.bmp,,,,,,,,,,,,,StimulusPr,Pictures\right.bmp,CuedStim4,Right
POP_2,27011,1,"<?xml version=""1.0""?>\n<Clock xmlns:dt=""urn:schemas-microsoft-com:datatypes""><Description dt:dt=""string"">E-Prime Primary Realtime Clock</Description><StartTime><Timestamp dt:dt=""int"">0</Timestamp><DateUtc dt:dt=""string"">2014-05-02T22:18:06Z</DateUtc></StartTime><FrequencyChanges><FrequencyChange><Frequency dt:dt=""r8"">2793020000</Frequency><Timestamp dt:dt=""r8"">120840905311595</Timestamp><Current dt:dt=""r8"">0</Current><DateUtc dt:dt=""string"">2014-05-02T22:18:06Z</DateUtc></FrequencyChange></FrequencyChanges></Clock>\n",60.034,1,-1726469835,0,,-999999,11,16262,t,52442,68704,5/2/2014,15:18:06,,1,Session1,SessionsList,,,,,,,,,,1,1,1,3,,,,382131,,,,3,1,3,Cued4,MiniBlocks2,,,,,7,1,b,-999999,8,477717,b,410,478127,White,Congruent,b,Green,0,,0,13,467722,,0,0,,,,,,,,,,7,1,7,Pictures\green.bmp,9000,10000,Pictures\black.bmp,,,,,,,,,,,,,StimulusPr,Pictures\right.bmp,CuedStim4,Right
POP_2,27011,1,"<?xml version=""1.0""?>\n<Clock xmlns:dt=""urn:schemas-microsoft-com:datatypes""><Description dt:dt=""string"">E-Prime Primary Realtime Clock</Description><StartTime><Timestamp dt:dt=""int"">0</Timestamp><DateUtc dt:dt=""string"">2014-05-02T22:18:06Z</DateUtc></StartTime><FrequencyChanges><FrequencyChange><Frequency dt:dt=""r8"">2793020000</Frequency><Timestamp dt:dt=""r8"">120840905311595</Timestamp><Current dt:dt=""r8"">0</Current><DateUtc dt:dt=""string"">2014-05-02T22:18:06Z</DateUtc></FrequencyChange></FrequencyChanges></Clock>\n",60.034,1,-1726469835,0,,-999999,11,16262,t,52442,68704,5/2/2014,15:18:06,,1,Session1,SessionsList,,,,,,,,,,1,1,1,3,,,,382131,,,,3,1,3,Cued4,MiniBlocks2,,,,,8,1,b,-999999,11,496707,b,545,497252,White,Incongruent,b,Red,0,,0,2,489711,,0,0,,,,,,,,,,8,1,8,Pictures\red.bmp,6000,10000,Pictures\left.bmp,,,,,,,,,,,,,StimulusPr,Pictures\black.bmp,CuedStim4,Left
POP_2,27011,1,"<?xml version=""1.0""?>\n<Clock xmlns:dt=""urn:schemas-microsoft-com:datatypes""><Description dt:dt=""string"">E-Prime Primary Realtime Clock</Description><StartTime><Timestamp dt:dt=""int"">0</Timestamp><DateUtc dt:dt=""string"">2014-05-02T22:18:06Z</DateUtc></StartTime><FrequencyChanges><FrequencyChange><Frequency dt:dt=""r8"">2793020000</Frequency><Timestamp dt:dt=""r8"">120840905311595</Timestamp><Current dt:dt=""r8"">0</Current><DateUtc dt:dt=""string"">2014-05-02T22:18:06Z</DateUtc></FrequencyChange></FrequencyChanges></Clock>\n",60.034,1,-1726469835,0,,-999999,11,16262,t,52442,68704,5/2/2014,15:18:06,,1,Session1,SessionsList,,,,,,,,,,1,1,1,3,,,,382131,,,,3,1,3,Cued4,MiniBlocks2,,,,,9,1,r,-999999,16,515714,r,381,516095,White,Congruent,r,Green,0,,0,13,508718,,0,0,,,,,,,,,,9,1,9,Pictures\green.bmp,6000,16000,Pictures\left.bmp,,,,,,,,,,,,,StimulusPr,Pictures\black.bmp,CuedStim4,Left
POP_2,27011,1,"<?xml version=""1.0""?>\n<Clock xmlns:dt=""urn:schemas-microsoft-com:datatypes""><Description dt:dt=""string"">E-Prime Primary Realtime Clock</Description><StartTime><Timestamp dt:dt=""int"">0</Timestamp><DateUtc dt:dt=""string"">2014-05-02T22:18:06Z</DateUtc></StartTime><FrequencyChanges><FrequencyChange><Frequency dt:dt=""r8"">2793020000</Frequency><Timestamp dt:dt=""r8"">120840905311595</Timestamp><Current dt:dt=""r8"">0</Current><DateUtc dt:dt=""string"">2014-05-02T22:18:06Z</DateUtc></FrequencyChange></FrequencyChanges></Clock>\n",60.034,1,-1726469835,0,,-999999,11,16262,t,52442,68704,5/2/2014,15:18:06,,1,Session1,SessionsList,,,,,,,,,,1,1,1,3,,,,382131,,,,3,1,3,Cued4,MiniBlocks2,,,,,10,1,r,-999999,10,538720,r,407,539127,White,Congruent,r,Green,0,,0,13,533722,,0,0,,,,,,,,,,10,1,10,Pictures\green.bmp,4000,2000,Pictures\left.bmp,,,,,,,,,,,,,StimulusPr,Pictures\black.bmp,CuedStim4,Left
POP_2,27011,1,"<?xml version=""1.0""?>\n<Clock xmlns:dt=""urn:schemas-microsoft-com:datatypes""><Description dt:dt=""string"">E-Prime Primary Realtime Clock</Description><StartTime><Timestamp dt:dt=""int"">0</Timestamp><DateUtc dt:dt=""string"">2014-05-02T22:18:06Z</DateUtc></StartTime><FrequencyChanges><FrequencyChange><Frequency dt:dt=""r8"">2793020000</Frequency><Timestamp dt:dt=""r8"">120840905311595</Timestamp><Current dt:dt=""r8"">0</Current><DateUtc dt:dt=""string"">2014-05-02T22:18:06Z</DateUtc></FrequencyChange></FrequencyChanges></Clock>\n",60.034,1,-1726469835,0,,-999999,11,16262,t,52442,68704,5/2/2014,15:18:06,,1,Session1,SessionsList,,,,,,,,,,1,1,1,4,,,,,,,,4,1,4,NonCued4,MiniBlocks2,,,,541152,1,1,r,-999999,3,554712,r,571,555283,Green,Congruent,r,White,0,,0,5,550714,,0,0,,,,,,,,,,,,,Pictures\white.bmp,3000,2000,Pictures\GreenLeft.bmp,,,,,,,,,,1,1,1,StimulusPr,Pictures\black.bmp,NonCuedStim4,Left
POP_2,27011,1,"<?xml version=""1.0""?>\n<Clock xmlns:dt=""urn:schemas-microsoft-com:datatypes""><Description dt:dt=""string"">E-Prime Primary Realtime Clock</Description><StartTime><Timestamp dt:dt=""int"">0</Timestamp><DateUtc dt:dt=""string"">2014-05-02T22:18:06Z</DateUtc></StartTime><FrequencyChanges><FrequencyChange><Frequency dt:dt=""r8"">2793020000</Frequency><Timestamp dt:dt=""r8"">120840905311595</Timestamp><Current dt:dt=""r8"">0</Current><DateUtc dt:dt=""string"">2014-05-02T22:18:06Z</DateUtc></FrequencyChange></FrequencyChanges></Clock>\n",60.034,1,-1726469835,0,,-999999,11,16262,t,52442,68704,5/2/2014,15:18:06,,1,Session1,SessionsList,,,,,,,,,,1,1,1,4,,,,,,,,4,1,4,NonCued4,MiniBlocks2,,,,541152,2,1,r,-999999,15,563724,r,356,564080,Green,Congruent,r,White,0,,0,17,558726,,0,0,,,,,,,,,,,,,Pictures\white.bmp,4000,2000,Pictures\GreenLeft.bmp,,,,,,,,,,2,1,2,StimulusPr,Pictures\black.bmp,NonCuedStim4,Left
POP_2,27011,1,"<?xml version=""1.0""?>\n<Clock xmlns:dt=""urn:schemas-microsoft-com:datatypes""><Description dt:dt=""string"">E-Prime Primary Realtime Clock</Description><StartTime><Timestamp dt:dt=""int"">0</Timestamp><DateUtc dt:dt=""string"">2014-05-02T22:18:06Z</DateUtc></StartTime><FrequencyChanges><FrequencyChange><Frequency dt:dt=""r8"">2793020000</Frequency><Timestamp dt:dt=""r8"">120840905311595</Timestamp><Current dt:dt=""r8"">0</Current><DateUtc dt:dt=""string"">2014-05-02T22:18:06Z</DateUtc></FrequencyChange></FrequencyChanges></Clock>\n",60.034,1,-1726469835,0,,-999999,11,16262,t,52442,68704,5/2/2014,15:18:06,,1,Session1,SessionsList,,,,,,,,,,1,1,1,4,,,,,,,,4,1,4,NonCued4,MiniBlocks2,,,,541152,3,0,r,-999999,10,572719,b,408,573127,Red,Incongruent,r,White,0,,0,12,567705,,0,0,,,,,,,,,,,,,Pictures\white.bmp,4000,2000,Pictures\black.bmp,,,,,,,,,,3,1,3,StimulusPr,Pictures\RedRight.bmp,NonCuedStim4,Right
POP_2,27011,1,"<?xml version=""1.0""?>\n<Clock xmlns:dt=""urn:schemas-microsoft-com:datatypes""><Description dt:dt=""string"">E-Prime Primary Realtime Clock</Description><StartTime><Timestamp dt:dt=""int"">0</Timestamp><DateUtc dt:dt=""string"">2014-05-02T22:18:06Z</DateUtc></StartTime><FrequencyChanges><FrequencyChange><Frequency dt:dt=""r8"">2793020000</Frequency><Timestamp dt:dt=""r8"">120840905311595</Timestamp><Current dt:dt=""r8"">0</Current><DateUtc dt:dt=""string"">2014-05-02T22:18:06Z</DateUtc></FrequencyChange></FrequencyChanges></Clock>\n",60.034,1,-1726469835,0,,-999999,11,16262,t,52442,68704,5/2/2014,15:18:06,,1,Session1,SessionsList,,,,,,,,,,1,1,1,4,,,,,,,,4,1,4,NonCued4,MiniBlocks2,,,,541152,4,1,b,-999999,10,580715,b,521,581236,Green,Congruent,b,White,0,,0,12,576717,,0,0,,,,,,,,,,,,,Pictures\white.bmp,3000,16000,Pictures\black.bmp,,,,,,,,,,4,1,4,StimulusPr,Pictures\GreenRight.bmp,NonCuedStim4,Right
POP_2,27011,1,"<?xml version=""1.0""?>\n<Clock xmlns:dt=""urn:schemas-microsoft-com:datatypes""><Description dt:dt=""string"">E-Prime Primary Realtime Clock</Description><StartTime><Timestamp dt:dt=""int"">0</Timestamp><DateUtc dt:dt=""string"">2014-05-02T22:18:06Z</DateUtc></StartTime><FrequencyChanges><FrequencyChange><Frequency dt:dt=""r8"">2793020000</Frequency><Timestamp dt:dt=""r8"">120840905311595</Timestamp><Current dt:dt=""r8"">0</Current><DateUtc dt:dt=""string"">2014-05-02T22:18:06Z</DateUtc></FrequencyChange></FrequencyChanges></Clock>\n",60.034,1,-1726469835,0,,-999999,11,16262,t,52442,68704,5/2/2014,15:18:06,,1,Session1,SessionsList,,,,,,,,,,1,1,1,4,,,,,,,,4,1,4,NonCued4,MiniBlocks2,,,,541152,5,1,r,-999999,8,608718,r,484,609202,Green,Congruent,r,White,0,,0,7,598707,,0,0,,,,,,,,,,,,,Pictures\white.bmp,9000,10000,Pictures\GreenLeft.bmp,,,,,,,,,,5,1,5,StimulusPr,Pictures\black.bmp,NonCuedStim4,Left
POP_2,27011,1,"<?xml version=""1.0""?>\n<Clock xmlns:dt=""urn:schemas-microsoft-com:datatypes""><Description dt:dt=""string"">E-Prime Primary Realtime Clock</Description><StartTime><Timestamp dt:dt=""int"">0</Timestamp><DateUtc dt:dt=""string"">2014-05-02T22:18:06Z</DateUtc></StartTime><FrequencyChanges><FrequencyChange><Frequency dt:dt=""r8"">2793020000</Frequency><Timestamp dt:dt=""r8"">120840905311595</Timestamp><Current dt:dt=""r8"">0</Current><DateUtc dt:dt=""string"">2014-05-02T22:18:06Z</DateUtc></FrequencyChange></FrequencyChanges></Clock>\n",60.034,1,-1726469835,0,,-999999,11,16262,t,52442,68704,5/2/2014,15:18:06,,1,Session1,SessionsList,,,,,,,,,,1,1,1,4,,,,,,,,4,1,4,NonCued4,MiniBlocks2,,,,541152,6,1,b,-999999,17,624727,b,743,625470,Green,Congruent,b,White,0,,0,7,620712,,0,0,,,,,,,,,,,,,Pictures\white.bmp,3000,16000,Pictures\black.bmp,,,,,,,,,,6,1,6,StimulusPr,Pictures\GreenRight.bmp,NonCuedStim4,Right
POP_2,27011,1,"<?xml version=""1.0""?>\n<Clock xmlns:dt=""urn:schemas-microsoft-com:datatypes""><Description dt:dt=""string"">E-Prime Primary Realtime Clock</Description><StartTime><Timestamp dt:dt=""int"">0</Timestamp><DateUtc dt:dt=""string"">2014-05-02T22:18:06Z</DateUtc></StartTime><FrequencyChanges><FrequencyChange><Frequency dt:dt=""r8"">2793020000</Frequency><Timestamp dt:dt=""r8"">120840905311595</Timestamp><Current dt:dt=""r8"">0</Current><DateUtc dt:dt=""string"">2014-05-02T22:18:06Z</DateUtc></FrequencyChange></FrequencyChanges></Clock>\n",60.034,1,-1726469835,0,,-999999,11,16262,t,52442,68704,5/2/2014,15:18:06,,1,Session1,SessionsList,,,,,,,,,,1,1,1,4,,,,,,,,4,1,4,NonCued4,MiniBlocks2,,,,541152,7,1,b,-999999,6,646716,b,786,647502,Red,Incongruent,b,White,0,,0,8,642718,,0,0,,,,,,,,,,,,,Pictures\white.bmp,3000,16000,Pictures\RedLeft.bmp,,,,,,,,,,7,1,7,StimulusPr,Pictures\black.bmp,NonCuedStim4,Left
POP_2,27011,1,"<?xml version=""1.0""?>\n<Clock xmlns:dt=""urn:schemas-microsoft-com:datatypes""><Description dt:dt=""string"">E-Prime Primary Realtime Clock</Description><StartTime><Timestamp dt:dt=""int"">0</Timestamp><DateUtc dt:dt=""string"">2014-05-02T22:18:06Z</DateUtc></StartTime><FrequencyChanges><FrequencyChange><Frequency dt:dt=""r8"">2793020000</Frequency><Timestamp dt:dt=""r8"">120840905311595</Timestamp><Current dt:dt=""r8"">0</Current><DateUtc dt:dt=""string"">2014-05-02T22:18:06Z</DateUtc></FrequencyChange></FrequencyChanges></Clock>\n",60.034,1,-1726469835,0,,-999999,11,16262,t,52442,68704,5/2/2014,15:18:06,,1,Session1,SessionsList,,,,,,,,,,1,1,1,4,,,,,,,,4,1,4,NonCued4,MiniBlocks2,,,,541152,8,1,r,-999999,13,668722,r,655,669377,Green,Congruent,r,White,0,,0,14,664724,,0,0,,,,,,,,,,,,,Pictures\white.bmp,3000,2000,Pictures\GreenLeft.bmp,,,,,,,,,,8,1,8,StimulusPr,Pictures\black.bmp,NonCuedStim4,Left
POP_2,27011,1,"<?xml version=""1.0""?>\n<Clock xmlns:dt=""urn:schemas-microsoft-com:datatypes""><Description dt:dt=""string"">E-Prime Primary Realtime Clock</Description><StartTime><Timestamp dt:dt=""int"">0</Timestamp><DateUtc dt:dt=""string"">2014-05-02T22:18:06Z</DateUtc></StartTime><FrequencyChanges><FrequencyChange><Frequency dt:dt=""r8"">2793020000</Frequency><Timestamp dt:dt=""r8"">120840905311595</Timestamp><Current dt:dt=""r8"">0</Current><DateUtc dt:dt=""string"">2014-05-02T22:18:06Z</DateUtc></FrequencyChange></FrequencyChanges></Clock>\n",60.034,1,-1726469835,0,,-999999,11,16262,t,52442,68704,5/2/2014,15:18:06,,1,Session1,SessionsList,,,,,,,,,,1,1,1,4,,,,,,,,4,1,4,NonCued4,MiniBlocks2,,,,541152,9,1,b,-999999,16,679716,b,473,680189,Green,Congruent,b,White,0,,0,10,672720,,0,0,,,,,,,,,,,,,Pictures\white.bmp,6000,2000,Pictures\black.bmp,,,,,,,,,,9,1,9,StimulusPr,Pictures\GreenRight.bmp,NonCuedStim4,Right
POP_2,27011,1,"<?xml version=""1.0""?>\n<Clock xmlns:dt=""urn:schemas-microsoft-com:datatypes""><Description dt:dt=""string"">E-Prime Primary Realtime Clock</Description><StartTime><Timestamp dt:dt=""int"">0</Timestamp><DateUtc dt:dt=""string"">2014-05-02T22:18:06Z</DateUtc></StartTime><FrequencyChanges><FrequencyChange><Frequency dt:dt=""r8"">2793020000</Frequency><Timestamp dt:dt=""r8"">120840905311595</Timestamp><Current dt:dt=""r8"">0</Current><DateUtc dt:dt=""string"">2014-05-02T22:18:06Z</DateUtc></FrequencyChange></FrequencyChanges></Clock>\n",60.034,1,-1726469835,0,,-999999,11,16262,t,52442,68704,5/2/2014,15:18:06,,1,Session1,SessionsList,,,,,,,,,,1,1,1,4,,,,,,,,4,1,4,NonCued4,MiniBlocks2,,,,541152,10,1,b,-999999,7,688712,b,384,689096,Green,Congruent,b,White,0,,0,8,683714,,0,0,,,,,,,,,,,,,Pictures\white.bmp,4000,4000,Pictures\black.bmp,,,,,,,,,,10,1,10,StimulusPr,Pictures\GreenRight.bmp,NonCuedStim4,Right
POP_2,27011,1,"<?xml version=""1.0""?>\n<Clock xmlns:dt=""urn:schemas-microsoft-com:datatypes""><Description dt:dt=""string"">E-Prime Primary Realtime Clock</Description><StartTime><Timestamp dt:dt=""int"">0</Timestamp><DateUtc dt:dt=""string"">2014-05-02T22:18:06Z</DateUtc></StartTime><FrequencyChanges><FrequencyChange><Frequency dt:dt=""r8"">2793020000</Frequency><Timestamp dt:dt=""r8"">120840905311595</Timestamp><Current dt:dt=""r8"">0</Current><DateUtc dt:dt=""string"">2014-05-02T22:18:06Z</DateUtc></FrequencyChange></FrequencyChanges></Clock>\n",60.034,1,-1726469835,0,,-999999,11,16262,t,52442,68704,5/2/2014,15:18:06,,2,Session2,SessionsList,0,,-999999,15,723595,t,37481,761076,693126,2,1,2,1,761093,,,,1,1,1,,,,Cued1,MiniBlocks1,,,,,1,1,r,-999999,10,775086,r,354,775440,White,Congruent,r,Green,0,,0,7,770072,,0,0,1,1,1,,,,,,,,,,Pictures\green.bmp,4000,4000,Pictures\left.bmp,,,,,,,,,,,,,StimulusPr,Pictures\black.bmp,CuedStim1,Left
POP_2,27011,1,"<?xml version=""1.0""?>\n<Clock xmlns:dt=""urn:schemas-microsoft-com:datatypes""><Description dt:dt=""string"">E-Prime Primary Realtime Clock</Description><StartTime><Timestamp dt:dt=""int"">0</Timestamp><DateUtc dt:dt=""string"">2014-05-02T22:18:06Z</DateUtc></StartTime><FrequencyChanges><FrequencyChange><Frequency dt:dt=""r8"">2793020000</Frequency><Timestamp dt:dt=""r8"">120840905311595</Timestamp><Current dt:dt=""r8"">0</Current><DateUtc dt:dt=""string"">2014-05-02T22:18:06Z</DateUtc></FrequencyChange></FrequencyChanges></Clock>\n",60.034,1,-1726469835,0,,-999999,11,16262,t,52442,68704,5/2/2014,15:18:06,,2,Session2,SessionsList,0,,-999999,15,723595,t,37481,761076,693126,2,1,2,1,761093,,,,1,1,1,,,,Cued1,MiniBlocks1,,,,,2,1,b,-999999,14,788079,b,704,788783,White,Congruent,b,Green,0,,0,2,781067,,0,0,2,1,2,,,,,,,,,,Pictures\green.bmp,6000,2000,Pictures\black.bmp,,,,,,,,,,,,,StimulusPr,Pictures\right.bmp,CuedStim1,Right
POP_2,27011,1,"<?xml version=""1.0""?>\n<Clock xmlns:dt=""urn:schemas-microsoft-com:datatypes""><Description dt:dt=""string"">E-Prime Primary Realtime Clock</Description><StartTime><Timestamp dt:dt=""int"">0</Timestamp><DateUtc dt:dt=""string"">2014-05-02T22:18:06Z</DateUtc></StartTime><FrequencyChanges><FrequencyChange><Frequency dt:dt=""r8"">2793020000</Frequency><Timestamp dt:dt=""r8"">120840905311595</Timestamp><Current dt:dt=""r8"">0</Current><DateUtc dt:dt=""string"">2014-05-02T22:18:06Z</DateUtc></FrequencyChange></FrequencyChanges></Clock>\n",60.034,1,-1726469835,0,,-999999,11,16262,t,52442,68704,5/2/2014,15:18:06,,2,Session2,SessionsList,0,,-999999,15,723595,t,37481,761076,693126,2,1,2,1,761093,,,,1,1,1,,,,Cued1,MiniBlocks1,,,,,3,1,b,-999999,17,796075,b,583,796658,White,Congruent,b,Green,0,,0,17,792077,,0,0,3,1,3,,,,,,,,,,Pictures\green.bmp,3000,2000,Pictures\black.bmp,,,,,,,,,,,,,StimulusPr,Pictures\right.bmp,CuedStim1,Right
POP_2,27011,1,"<?xml version=""1.0""?>\n<Clock xmlns:dt=""urn:schemas-microsoft-com:datatypes""><Description dt:dt=""string"">E-Prime Primary Realtime Clock</Description><StartTime><Timestamp dt:dt=""int"">0</Timestamp><DateUtc dt:dt=""string"">2014-05-02T22:18:06Z</DateUtc></StartTime><FrequencyChanges><FrequencyChange><Frequency dt:dt=""r8"">2793020000</Frequency><Timestamp dt:dt=""r8"">120840905311595</Timestamp><Current dt:dt=""r8"">0</Current><DateUtc dt:dt=""string"">2014-05-02T22:18:06Z</DateUtc></FrequencyChange></FrequencyChanges></Clock>\n",60.034,1,-1726469835,0,,-999999,11,16262,t,52442,68704,5/2/2014,15:18:06,,2,Session2,SessionsList,0,,-999999,15,723595,t,37481,761076,693126,2,1,2,1,761093,,,,1,1,1,,,,Cued1,MiniBlocks1,,,,,4,0,b,-999999,13,804088,r,571,804659,White,Incongruent,b,Red,0,,0,14,800090,,0,0,4,1,4,,,,,,,,,,Pictures\red.bmp,3000,16000,Pictures\left.bmp,,,,,,,,,,,,,StimulusPr,Pictures\black.bmp,CuedStim1,Left
POP_2,27011,1,"<?xml version=""1.0""?>\n<Clock xmlns:dt=""urn:schemas-microsoft-com:datatypes""><Description dt:dt=""string"">E-Prime Primary Realtime Clock</Description><StartTime><Timestamp dt:dt=""int"">0</Timestamp><DateUtc dt:dt=""string"">2014-05-02T22:18:06Z</DateUtc></StartTime><FrequencyChanges><FrequencyChange><Frequency dt:dt=""r8"">2793020000</Frequency><Timestamp dt:dt=""r8"">120840905311595</Timestamp><Current dt:dt=""r8"">0</Current><DateUtc dt:dt=""string"">2014-05-02T22:18:06Z</DateUtc></FrequencyChange></FrequencyChanges></Clock>\n",60.034,1,-1726469835,0,,-999999,11,16262,t,52442,68704,5/2/2014,15:18:06,,2,Session2,SessionsList,0,,-999999,15,723595,t,37481,761076,693126,2,1,2,1,761093,,,,1,1,1,,,,Cued1,MiniBlocks1,,,,,5,1,r,-999999,19,826094,r,439,826533,White,Congruent,r,Green,0,,0,3,822079,,0,0,5,1,5,,,,,,,,,,Pictures\green.bmp,3000,16000,Pictures\left.bmp,,,,,,,,,,,,,StimulusPr,Pictures\black.bmp,CuedStim1,Left
POP_2,27011,1,"<?xml version=""1.0""?>\n<Clock xmlns:dt=""urn:schemas-microsoft-com:datatypes""><Description dt:dt=""string"">E-Prime Primary Realtime Clock</Description><StartTime><Timestamp dt:dt=""int"">0</Timestamp><DateUtc dt:dt=""string"">2014-05-02T22:18:06Z</DateUtc></StartTime><FrequencyChanges><FrequencyChange><Frequency dt:dt=""r8"">2793020000</Frequency><Timestamp dt:dt=""r8"">120840905311595</Timestamp><Current dt:dt=""r8"">0</Current><DateUtc dt:dt=""string"">2014-05-02T22:18:06Z</DateUtc></FrequencyChange></FrequencyChanges></Clock>\n",60.034,1,-1726469835,0,,-999999,11,16262,t,52442,68704,5/2/2014,15:18:06,,2,Session2,SessionsList,0,,-999999,15,723595,t,37481,761076,693126,2,1,2,1,761093,,,,1,1,1,,,,Cued1,MiniBlocks1,,,,,6,1,r,-999999,4,854063,r,502,854565,White,Congruent,r,Green,0,,0,9,844085,,0,0,6,1,6,,,,,,,,,,Pictures\green.bmp,9000,10000,Pictures\left.bmp,,,,,,,,,,,,,StimulusPr,Pictures\black.bmp,CuedStim1,Left
POP_2,27011,1,"<?xml version=""1.0""?>\n<Clock xmlns:dt=""urn:schemas-microsoft-com:datatypes""><Description dt:dt=""string"">E-Prime Primary Realtime Clock</Description><StartTime><Timestamp dt:dt=""int"">0</Timestamp><DateUtc dt:dt=""string"">2014-05-02T22:18:06Z</DateUtc></StartTime><FrequencyChanges><FrequencyChange><Frequency dt:dt=""r8"">2793020000</Frequency><Timestamp dt:dt=""r8"">120840905311595</Timestamp><Current dt:dt=""r8"">0</Current><DateUtc dt:dt=""string"">2014-05-02T22:18:06Z</DateUtc></FrequencyChange></FrequencyChanges></Clock>\n",60.034,1,-1726469835,0,,-999999,11,16262,t,52442,68704,5/2/2014,15:18:06,,2,Session2,SessionsList,0,,-999999,15,723595,t,37481,761076,693126,2,1,2,1,761093,,,,1,1,1,,,,Cued1,MiniBlocks1,,,,,7,1,b,-999999,13,870089,b,320,870409,White,Congruent,b,Green,0,,0,9,866074,,0,0,7,1,7,,,,,,,,,,Pictures\green.bmp,3000,16000,Pictures\black.bmp,,,,,,,,,,,,,StimulusPr,Pictures\right.bmp,CuedStim1,Right
POP_2,27011,1,"<?xml version=""1.0""?>\n<Clock xmlns:dt=""urn:schemas-microsoft-com:datatypes""><Description dt:dt=""string"">E-Prime Primary Realtime Clock</Description><StartTime><Timestamp dt:dt=""int"">0</Timestamp><DateUtc dt:dt=""string"">2014-05-02T22:18:06Z</DateUtc></StartTime><FrequencyChanges><FrequencyChange><Frequency dt:dt=""r8"">2793020000</Frequency><Timestamp dt:dt=""r8"">120840905311595</Timestamp><Current dt:dt=""r8"">0</Current><DateUtc dt:dt=""string"">2014-05-02T22:18:06Z</DateUtc></FrequencyChange></FrequencyChanges></Clock>\n",60.034,1,-1726469835,0,,-999999,11,16262,t,52442,68704,5/2/2014,15:18:06,,2,Session2,SessionsList,0,,-999999,15,723595,t,37481,761076,693126,2,1,2,1,761093,,,,1,1,1,,,,Cued1,MiniBlocks1,,,,,8,1,r,-999999,12,893077,r,863,893940,White,Incongruent,r,Red,0,,0,4,888080,,0,0,8,1,8,,,,,,,,,,Pictures\red.bmp,4000,2000,Pictures\black.bmp,,,,,,,,,,,,,StimulusPr,Pictures\right.bmp,CuedStim1,Right
POP_2,27011,1,"<?xml version=""1.0""?>\n<Clock xmlns:dt=""urn:schemas-microsoft-com:datatypes""><Description dt:dt=""string"">E-Prime Primary Realtime Clock</Description><StartTime><Timestamp dt:dt=""int"">0</Timestamp><DateUtc dt:dt=""string"">2014-05-02T22:18:06Z</DateUtc></StartTime><FrequencyChanges><FrequencyChange><Frequency dt:dt=""r8"">2793020000</Frequency><Timestamp dt:dt=""r8"">120840905311595</Timestamp><Current dt:dt=""r8"">0</Current><DateUtc dt:dt=""string"">2014-05-02T22:18:06Z</DateUtc></FrequencyChange></FrequencyChanges></Clock>\n",60.034,1,-1726469835,0,,-999999,11,16262,t,52442,68704,5/2/2014,15:18:06,,2,Session2,SessionsList,0,,-999999,15,723595,t,37481,761076,693126,2,1,2,1,761093,,,,1,1,1,,,,Cued1,MiniBlocks1,,,,,9,1,b,-999999,14,902090,b,365,902455,White,Congruent,b,Green,0,,0,9,897075,,0,0,9,1,9,,,,,,,,,,Pictures\green.bmp,4000,2000,Pictures\black.bmp,,,,,,,,,,,,,StimulusPr,Pictures\right.bmp,CuedStim1,Right
POP_2,27011,1,"<?xml version=""1.0""?>\n<Clock xmlns:dt=""urn:schemas-microsoft-com:datatypes""><Description dt:dt=""string"">E-Prime Primary Realtime Clock</Description><StartTime><Timestamp dt:dt=""int"">0</Timestamp><DateUtc dt:dt=""string"">2014-05-02T22:18:06Z</DateUtc></StartTime><FrequencyChanges><FrequencyChange><Frequency dt:dt=""r8"">2793020000</Frequency><Timestamp dt:dt=""r8"">120840905311595</Timestamp><Current dt:dt=""r8"">0</Current><DateUtc dt:dt=""string"">2014-05-02T22:18:06Z</DateUtc></FrequencyChange></FrequencyChanges></Clock>\n",60.034,1,-1726469835,0,,-999999,11,16262,t,52442,68704,5/2/2014,15:18:06,,2,Session2,SessionsList,0,,-999999,15,723595,t,37481,761076,693126,2,1,2,1,761093,,,,1,1,1,,,,Cued1,MiniBlocks1,,,,,10,1,r,-999999,10,910086,r,369,910455,White,Congruent,r,Green,0,,0,12,906088,,0,0,10,1,10,,,,,,,,,,Pictures\green.bmp,3000,2000,Pictures\left.bmp,,,,,,,,,,,,,StimulusPr,Pictures\black.bmp,CuedStim1,Left
POP_2,27011,1,"<?xml version=""1.0""?>\n<Clock xmlns:dt=""urn:schemas-microsoft-com:datatypes""><Description dt:dt=""string"">E-Prime Primary Realtime Clock</Description><StartTime><Timestamp dt:dt=""int"">0</Timestamp><DateUtc dt:dt=""string"">2014-05-02T22:18:06Z</DateUtc></StartTime><FrequencyChanges><FrequencyChange><Frequency dt:dt=""r8"">2793020000</Frequency><Timestamp dt:dt=""r8"">120840905311595</Timestamp><Current dt:dt=""r8"">0</Current><DateUtc dt:dt=""string"">2014-05-02T22:18:06Z</DateUtc></FrequencyChange></FrequencyChanges></Clock>\n",60.034,1,-1726469835,0,,-999999,11,16262,t,52442,68704,5/2/2014,15:18:06,,2,Session2,SessionsList,0,,-999999,15,723595,t,37481,761076,693126,2,1,2,2,,,,,2,1,2,,,,NonCued1,MiniBlocks1,912484,,,,1,1,r,-999999,17,927094,r,345,927439,Green,Congruent,r,White,0,,0,4,922080,,0,0,,,,,,,,,,,,,Pictures\white.bmp,4000,2000,Pictures\GreenLeft.bmp,1,1,1,,,,,,,,,,StimulusPr,Pictures\black.bmp,NonCuedStim1,Left
POP_2,27011,1,"<?xml version=""1.0""?>\n<Clock xmlns:dt=""urn:schemas-microsoft-com:datatypes""><Description dt:dt=""string"">E-Prime Primary Realtime Clock</Description><StartTime><Timestamp dt:dt=""int"">0</Timestamp><DateUtc dt:dt=""string"">2014-05-02T22:18:06Z</DateUtc></StartTime><FrequencyChanges><FrequencyChange><Frequency dt:dt=""r8"">2793020000</Frequency><Timestamp dt:dt=""r8"">120840905311595</Timestamp><Current dt:dt=""r8"">0</Current><DateUtc dt:dt=""string"">2014-05-02T22:18:06Z</DateUtc></FrequencyChange></FrequencyChanges></Clock>\n",60.034,1,-1726469835,0,,-999999,11,16262,t,52442,68704,5/2/2014,15:18:06,,2,Session2,SessionsList,0,,-999999,15,723595,t,37481,761076,693126,2,1,2,2,,,,,2,1,2,,,,NonCued1,MiniBlocks1,912484,,,,2,1,b,-999999,7,938072,b,540,938612,Green,Congruent,b,White,0,,0,15,931092,,0,0,,,,,,,,,,,,,Pictures\white.bmp,6000,16000,Pictures\black.bmp,2,1,2,,,,,,,,,,StimulusPr,Pictures\GreenRight.bmp,NonCuedStim1,Right
POP_2,27011,1,"<?xml version=""1.0""?>\n<Clock xmlns:dt=""urn:schemas-microsoft-com:datatypes""><Description dt:dt=""string"">E-Prime Primary Realtime Clock</Description><StartTime><Timestamp dt:dt=""int"">0</Timestamp><DateUtc dt:dt=""string"">2014-05-02T22:18:06Z</DateUtc></StartTime><FrequencyChanges><FrequencyChange><Frequency dt:dt=""r8"">2793020000</Frequency><Timestamp dt:dt=""r8"">120840905311595</Timestamp><Current dt:dt=""r8"">0</Current><DateUtc dt:dt=""string"">2014-05-02T22:18:06Z</DateUtc></FrequencyChange></FrequencyChanges></Clock>\n",60.034,1,-1726469835,0,,-999999,11,16262,t,52442,68704,5/2/2014,15:18:06,,2,Session2,SessionsList,0,,-999999,15,723595,t,37481,761076,693126,2,1,2,2,,,,,2,1,2,,,,NonCued1,MiniBlocks1,912484,,,,3,1,r,-999999,16,963093,r,910,964003,Red,Incongruent,r,White,0,,0,6,956079,,0,0,,,,,,,,,,,,,Pictures\white.bmp,6000,10000,Pictures\black.bmp,3,1,3,,,,,,,,,,StimulusPr,Pictures\RedRight.bmp,NonCuedStim1,Right
POP_2,27011,1,"<?xml version=""1.0""?>\n<Clock xmlns:dt=""urn:schemas-microsoft-com:datatypes""><Description dt:dt=""string"">E-Prime Primary Realtime Clock</Description><StartTime><Timestamp dt:dt=""int"">0</Timestamp><DateUtc dt:dt=""string"">2014-05-02T22:18:06Z</DateUtc></StartTime><FrequencyChanges><FrequencyChange><Frequency dt:dt=""r8"">2793020000</Frequency><Timestamp dt:dt=""r8"">120840905311595</Timestamp><Current dt:dt=""r8"">0</Current><DateUtc dt:dt=""string"">2014-05-02T22:18:06Z</DateUtc></FrequencyChange></FrequencyChanges></Clock>\n",60.034,1,-1726469835,0,,-999999,11,16262,t,52442,68704,5/2/2014,15:18:06,,2,Session2,SessionsList,0,,-999999,15,723595,t,37481,761076,693126,2,1,2,2,,,,,2,1,2,,,,NonCued1,MiniBlocks1,912484,,,,4,1,r,-999999,5,985082,r,342,985424,Green,Congruent,r,White,0,,0,11,975087,,0,0,,,,,,,,,,,,,Pictures\white.bmp,9000,10000,Pictures\GreenLeft.bmp,4,1,4,,,,,,,,,,StimulusPr,Pictures\black.bmp,NonCuedStim1,Left
POP_2,27011,1,"<?xml version=""1.0""?>\n<Clock xmlns:dt=""urn:schemas-microsoft-com:datatypes""><Description dt:dt=""string"">E-Prime Primary Realtime Clock</Description><StartTime><Timestamp dt:dt=""int"">0</Timestamp><DateUtc dt:dt=""string"">2014-05-02T22:18:06Z</DateUtc></StartTime><FrequencyChanges><FrequencyChange><Frequency dt:dt=""r8"">2793020000</Frequency><Timestamp dt:dt=""r8"">120840905311595</Timestamp><Current dt:dt=""r8"">0</Current><DateUtc dt:dt=""string"">2014-05-02T22:18:06Z</DateUtc></FrequencyChange></FrequencyChanges></Clock>\n",60.034,1,-1726469835,0,,-999999,11,16262,t,52442,68704,5/2/2014,15:18:06,,2,Session2,SessionsList,0,,-999999,15,723595,t,37481,761076,693126,2,1,2,2,,,,,2,1,2,,,,NonCued1,MiniBlocks1,912484,,,,5,1,b,-999999,4,1001074,b,543,1001617,Green,Congruent,b,White,0,,0,13,997076,,0,0,,,,,,,,,,,,,Pictures\white.bmp,3000,2000,Pictures\black.bmp,5,1,5,,,,,,,,,,StimulusPr,Pictures\GreenRight.bmp,NonCuedStim1,Right
POP_2,27011,1,"<?xml version=""1.0""?>\n<Clock xmlns:dt=""urn:schemas-microsoft-com:datatypes""><Description dt:dt=""string"">E-Prime Primary Realtime Clock</Description><StartTime><Timestamp dt:dt=""int"">0</Timestamp><DateUtc dt:dt=""string"">2014-05-02T22:18:06Z</DateUtc></StartTime><FrequencyChanges><FrequencyChange><Frequency dt:dt=""r8"">2793020000</Frequency><Timestamp dt:dt=""r8"">120840905311595</Timestamp><Current dt:dt=""r8"">0</Current><DateUtc dt:dt=""string"">2014-05-02T22:18:06Z</DateUtc></FrequencyChange></FrequencyChanges></Clock>\n",60.034,1,-1726469835,0,,-999999,11,16262,t,52442,68704,5/2/2014,15:18:06,,2,Session2,SessionsList,0,,-999999,15,723595,t,37481,761076,693126,2,1,2,2,,,,,2,1,2,,,,NonCued1,MiniBlocks1,912484,,,,6,0,b,-999999,9,1010086,r,448,1010534,Red,Incongruent,b,White,0,,0,12,1005088,,0,0,,,,,,,,,,,,,Pictures\white.bmp,4000,16000,Pictures\RedLeft.bmp,6,1,6,,,,,,,,,,StimulusPr,Pictures\black.bmp,NonCuedStim1,Left
POP_2,27011,1,"<?xml version=""1.0""?>\n<Clock xmlns:dt=""urn:schemas-microsoft-com:datatypes""><Description dt:dt=""string"">E-Prime Primary Realtime Clock</Description><StartTime><Timestamp dt:dt=""int"">0</Timestamp><DateUtc dt:dt=""string"">2014-05-02T22:18:06Z</DateUtc></StartTime><FrequencyChanges><FrequencyChange><Frequency dt:dt=""r8"">2793020000</Frequency><Timestamp dt:dt=""r8"">120840905311595</Timestamp><Current dt:dt=""r8"">0</Current><DateUtc dt:dt=""string"">2014-05-02T22:18:06Z</DateUtc></FrequencyChange></FrequencyChanges></Clock>\n",60.034,1,-1726469835,0,,-999999,11,16262,t,52442,68704,5/2/2014,15:18:06,,2,Session2,SessionsList,0,,-999999,15,723595,t,37481,761076,693126,2,1,2,2,,,,,2,1,2,,,,NonCued1,MiniBlocks1,912484,,,,7,1,b,-999999,9,1032075,b,396,1032471,Green,Congruent,b,White,0,,0,17,1028094,,0,0,,,,,,,,,,,,,Pictures\white.bmp,3000,4000,Pictures\black.bmp,7,1,7,,,,,,,,,,StimulusPr,Pictures\GreenRight.bmp,NonCuedStim1,Right
POP_2,27011,1,"<?xml version=""1.0""?>\n<Clock xmlns:dt=""urn:schemas-microsoft-com:datatypes""><Description dt:dt=""string"">E-Prime Primary Realtime Clock</Description><StartTime><Timestamp dt:dt=""int"">0</Timestamp><DateUtc dt:dt=""string"">2014-05-02T22:18:06Z</DateUtc></StartTime><FrequencyChanges><FrequencyChange><Frequency dt:dt=""r8"">2793020000</Frequency><Timestamp dt:dt=""r8"">120840905311595</Timestamp><Current dt:dt=""r8"">0</Current><DateUtc dt:dt=""string"">2014-05-02T22:18:06Z</DateUtc></FrequencyChange></FrequencyChanges></Clock>\n",60.034,1,-1726469835,0,,-999999,11,16262,t,52442,68704,5/2/2014,15:18:06,,2,Session2,SessionsList,0,,-999999,15,723595,t,37481,761076,693126,2,1,2,2,,,,,2,1,2,,,,NonCued1,MiniBlocks1,912484,,,,8,1,b,-999999,10,1042087,b,353,1042440,Green,Congruent,b,White,0,,0,12,1038089,,0,0,,,,,,,,,,,,,Pictures\white.bmp,3000,4000,Pictures\black.bmp,8,1,8,,,,,,,,,,StimulusPr,Pictures\GreenRight.bmp,NonCuedStim1,Right
POP_2,27011,1,"<?xml version=""1.0""?>\n<Clock xmlns:dt=""urn:schemas-microsoft-com:datatypes""><Description dt:dt=""string"">E-Prime Primary Realtime Clock</Description><StartTime><Timestamp dt:dt=""int"">0</Timestamp><DateUtc dt:dt=""string"">2014-05-02T22:18:06Z</DateUtc></StartTime><FrequencyChanges><FrequencyChange><Frequency dt:dt=""r8"">2793020000</Frequency><Timestamp dt:dt=""r8"">120840905311595</Timestamp><Current dt:dt=""r8"">0</Current><DateUtc dt:dt=""string"">2014-05-02T22:18:06Z</DateUtc></FrequencyChange></FrequencyChanges></Clock>\n",60.034,1,-1726469835,0,,-999999,11,16262,t,52442,68704,5/2/2014,15:18:06,,2,Session2,SessionsList,0,,-999999,15,723595,t,37481,761076,693126,2,1,2,2,,,,,2,1,2,,,,NonCued1,MiniBlocks1,912484,,,,9,1,b,-999999,2,1058062,b,1075,1059137,Red,Incongruent,b,White,0,,0,7,1048084,,0,0,,,,,,,,,,,,,Pictures\white.bmp,9000,2000,Pictures\RedLeft.bmp,9,1,9,,,,,,,,,,StimulusPr,Pictures\black.bmp,NonCuedStim1,Left
POP_2,27011,1,"<?xml version=""1.0""?>\n<Clock xmlns:dt=""urn:schemas-microsoft-com:datatypes""><Description dt:dt=""string"">E-Prime Primary Realtime Clock</Description><StartTime><Timestamp dt:dt=""int"">0</Timestamp><DateUtc dt:dt=""string"">2014-05-02T22:18:06Z</DateUtc></StartTime><FrequencyChanges><FrequencyChange><Frequency dt:dt=""r8"">2793020000</Frequency><Timestamp dt:dt=""r8"">120840905311595</Timestamp><Current dt:dt=""r8"">0</Current><DateUtc dt:dt=""string"">2014-05-02T22:18:06Z</DateUtc></FrequencyChange></FrequencyChanges></Clock>\n",60.034,1,-1726469835,0,,-999999,11,16262,t,52442,68704,5/2/2014,15:18:06,,2,Session2,SessionsList,0,,-999999,15,723595,t,37481,761076,693126,2,1,2,2,,,,,2,1,2,,,,NonCued1,MiniBlocks1,912484,,,,10,1,r,-999999,15,1070073,r,492,1070565,Green,Congruent,r,White,0,,0,11,1063076,,0,0,,,,,,,,,,,,,Pictures\white.bmp,6000,2000,Pictures\GreenLeft.bmp,10,1,10,,,,,,,,,,StimulusPr,Pictures\black.bmp,NonCuedStim1,Left
POP_2,27011,1,"<?xml version=""1.0""?>\n<Clock xmlns:dt=""urn:schemas-microsoft-com:datatypes""><Description dt:dt=""string"">E-Prime Primary Realtime Clock</Description><StartTime><Timestamp dt:dt=""int"">0</Timestamp><DateUtc dt:dt=""string"">2014-05-02T22:18:06Z</DateUtc></StartTime><FrequencyChanges><FrequencyChange><Frequency dt:dt=""r8"">2793020000</Frequency><Timestamp dt:dt=""r8"">120840905311595</Timestamp><Current dt:dt=""r8"">0</Current><DateUtc dt:dt=""string"">2014-05-02T22:18:06Z</DateUtc></FrequencyChange></FrequencyChanges></Clock>\n",60.034,1,-1726469835,0,,-999999,11,16262,t,52442,68704,5/2/2014,15:18:06,,2,Session2,SessionsList,0,,-999999,15,723595,t,37481,761076,693126,2,1,2,3,,,,,3,1,3,,,,NonCued2,MiniBlocks1,,1072588,,,1,1,b,-999999,4,1093062,b,425,1093487,Green,Congruent,b,White,0,,0,2,1083067,,0,0,,,,,,,,,,,,,Pictures\white.bmp,9000,10000,Pictures\black.bmp,,,,1,1,1,,,,,,,StimulusPr,Pictures\GreenRight.bmp,NonCuedStim2,Right
POP_2,27011,1,"<?xml version=""1.0""?>\n<Clock xmlns:dt=""urn:schemas-microsoft-com:datatypes""><Description dt:dt=""string"">E-Prime Primary Realtime Clock</Description><StartTime><Timestamp dt:dt=""int"">0</Timestamp><DateUtc dt:dt=""string"">2014-05-02T22:18:06Z</DateUtc></StartTime><FrequencyChanges><FrequencyChange><Frequency dt:dt=""r8"">2793020000</Frequency><Timestamp dt:dt=""r8"">120840905311595</Timestamp><Current dt:dt=""r8"">0</Current><DateUtc dt:dt=""string"">2014-05-02T22:18:06Z</DateUtc></FrequencyChange></FrequencyChanges></Clock>\n",60.034,1,-1726469835,0,,-999999,11,16262,t,52442,68704,5/2/2014,15:18:06,,2,Session2,SessionsList,0,,-999999,15,723595,t,37481,761076,693126,2,1,2,3,,,,,3,1,3,,,,NonCued2,MiniBlocks1,,1072588,,,2,1,r,-999999,9,1109087,r,541,1109628,Green,Congruent,r,White,0,,0,7,1105072,,0,0,,,,,,,,,,,,,Pictures\white.bmp,3000,2000,Pictures\GreenLeft.bmp,,,,2,1,2,,,,,,,StimulusPr,Pictures\black.bmp,NonCuedStim2,Left
POP_2,27011,1,"<?xml version=""1.0""?>\n<Clock xmlns:dt=""urn:schemas-microsoft-com:datatypes""><Description dt:dt=""string"">E-Prime Primary Realtime Clock</Description><StartTime><Timestamp dt:dt=""int"">0</Timestamp><DateUtc dt:dt=""string"">2014-05-02T22:18:06Z</DateUtc></StartTime><FrequencyChanges><FrequencyChange><Frequency dt:dt=""r8"">2793020000</Frequency><Timestamp dt:dt=""r8"">120840905311595</Timestamp><Current dt:dt=""r8"">0</Current><DateUtc dt:dt=""string"">2014-05-02T22:18:06Z</DateUtc></FrequencyChange></FrequencyChanges></Clock>\n",60.034,1,-1726469835,0,,-999999,11,16262,t,52442,68704,5/2/2014,15:18:06,,2,Session2,SessionsList,0,,-999999,15,723595,t,37481,761076,693126,2,1,2,3,,,,,3,1,3,,,,NonCued2,MiniBlocks1,,1072588,,,3,0,r,-999999,3,1117066,b,343,1117409,Red,Incongruent,r,White,0,,0,8,1113085,,0,0,,,,,,,,,,,,,Pictures\white.bmp,3000,2000,Pictures\black.bmp,,,,3,1,3,,,,,,,StimulusPr,Pictures\RedRight.bmp,NonCuedStim2,Right
POP_2,27011,1,"<?xml version=""1.0""?>\n<Clock xmlns:dt=""urn:schemas-microsoft-com:datatypes""><Description dt:dt=""string"">E-Prime Primary Realtime Clock</Description><StartTime><Timestamp dt:dt=""int"">0</Timestamp><DateUtc dt:dt=""string"">2014-05-02T22:18:06Z</DateUtc></StartTime><FrequencyChanges><FrequencyChange><Frequency dt:dt=""r8"">2793020000</Frequency><Timestamp dt:dt=""r8"">120840905311595</Timestamp><Current dt:dt=""r8"">0</Current><DateUtc dt:dt=""string"">2014-05-02T22:18:06Z</DateUtc></FrequencyChange></FrequencyChanges></Clock>\n",60.034,1,-1726469835,0,,-999999,11,16262,t,52442,68704,5/2/2014,15:18:06,,2,Session2,SessionsList,0,,-999999,15,723595,t,37481,761076,693126,2,1,2,3,,,,,3,1,3,,,,NonCued2,MiniBlocks1,,1072588,,,4,1,r,-999999,18,1126095,r,736,1126831,Green,Congruent,r,White,0,,0,4,1121081,,0,0,,,,,,,,,,,,,Pictures\white.bmp,4000,16000,Pictures\GreenLeft.bmp,,,,4,1,4,,,,,,,StimulusPr,Pictures\black.bmp,NonCuedStim2,Left
POP_2,27011,1,"<?xml version=""1.0""?>\n<Clock xmlns:dt=""urn:schemas-microsoft-com:datatypes""><Description dt:dt=""string"">E-Prime Primary Realtime Clock</Description><StartTime><Timestamp dt:dt=""int"">0</Timestamp><DateUtc dt:dt=""string"">2014-05-02T22:18:06Z</DateUtc></StartTime><FrequencyChanges><FrequencyChange><Frequency dt:dt=""r8"">2793020000</Frequency><Timestamp dt:dt=""r8"">120840905311595</Timestamp><Current dt:dt=""r8"">0</Current><DateUtc dt:dt=""string"">2014-05-02T22:18:06Z</DateUtc></FrequencyChange></FrequencyChanges></Clock>\n",60.034,1,-1726469835,0,,-999999,11,16262,t,52442,68704,5/2/2014,15:18:06,,2,Session2,SessionsList,0,,-999999,15,723595,t,37481,761076,693126,2,1,2,3,,,,,3,1,3,,,,NonCued2,MiniBlocks1,,1072588,,,5,1,r,-999999,5,1151066,r,437,1151503,Green,Congruent,r,White,0,,0,17,1144086,,0,0,,,,,,,,,,,,,Pictures\white.bmp,6000,4000,Pictures\GreenLeft.bmp,,,,5,1,5,,,,,,,StimulusPr,Pictures\black.bmp,NonCuedStim2,Left
POP_2,27011,1,"<?xml version=""1.0""?>\n<Clock xmlns:dt=""urn:schemas-microsoft-com:datatypes""><Description dt:dt=""string"">E-Prime Primary Realtime Clock</Description><StartTime><Timestamp dt:dt=""int"">0</Timestamp><DateUtc dt:dt=""string"">2014-05-02T22:18:06Z</DateUtc></StartTime><FrequencyChanges><FrequencyChange><Frequency dt:dt=""r8"">2793020000</Frequency><Timestamp dt:dt=""r8"">120840905311595</Timestamp><Current dt:dt=""r8"">0</Current><DateUtc dt:dt=""string"">2014-05-02T22:18:06Z</DateUtc></FrequencyChange></FrequencyChanges></Clock>\n",60.034,1,-1726469835,0,,-999999,11,16262,t,52442,68704,5/2/2014,15:18:06,,2,Session2,SessionsList,0,,-999999,15,723595,t,37481,761076,693126,2,1,2,3,,,,,3,1,3,,,,NonCued2,MiniBlocks1,,1072588,,,6,1,b,-999999,14,1161078,b,503,1161581,Red,Incongruent,b,White,0,,0,15,1157080,,0,0,,,,,,,,,,,,,Pictures\white.bmp,3000,4000,Pictures\RedLeft.bmp,,,,6,1,6,,,,,,,StimulusPr,Pictures\black.bmp,NonCuedStim2,Left
POP_2,27011,1,"<?xml version=""1.0""?>\n<Clock xmlns:dt=""urn:schemas-microsoft-com:datatypes""><Description dt:dt=""string"">E-Prime Primary Realtime Clock</Description><StartTime><Timestamp dt:dt=""int"">0</Timestamp><DateUtc dt:dt=""string"">2014-05-02T22:18:06Z</DateUtc></StartTime><FrequencyChanges><FrequencyChange><Frequency dt:dt=""r8"">2793020000</Frequency><Timestamp dt:dt=""r8"">120840905311595</Timestamp><Current dt:dt=""r8"">0</Current><DateUtc dt:dt=""string"">2014-05-02T22:18:06Z</DateUtc></FrequencyChange></FrequencyChanges></Clock>\n",60.034,1,-1726469835,0,,-999999,11,16262,t,52442,68704,5/2/2014,15:18:06,,2,Session2,SessionsList,0,,-999999,15,723595,t,37481,761076,693126,2,1,2,3,,,,,3,1,3,,,,NonCued2,MiniBlocks1,,1072588,,,7,0,b,-999999,7,1172072,r,462,1172534,Green,Congruent,b,White,0,,0,15,1167092,,0,0,,,,,,,,,,,,,Pictures\white.bmp,4000,16000,Pictures\black.bmp,,,,7,1,7,,,,,,,StimulusPr,Pictures\GreenRight.bmp,NonCuedStim2,Right
POP_2,27011,1,"<?xml version=""1.0""?>\n<Clock xmlns:dt=""urn:schemas-microsoft-com:datatypes""><Description dt:dt=""string"">E-Prime Primary Realtime Clock</Description><StartTime><Timestamp dt:dt=""int"">0</Timestamp><DateUtc dt:dt=""string"">2014-05-02T22:18:06Z</DateUtc></StartTime><FrequencyChanges><FrequencyChange><Frequency dt:dt=""r8"">2793020000</Frequency><Timestamp dt:dt=""r8"">120840905311595</Timestamp><Current dt:dt=""r8"">0</Current><DateUtc dt:dt=""string"">2014-05-02T22:18:06Z</DateUtc></FrequencyChange></FrequencyChanges></Clock>\n",60.034,1,-1726469835,0,,-999999,11,16262,t,52442,68704,5/2/2014,15:18:06,,2,Session2,SessionsList,0,,-999999,15,723595,t,37481,761076,693126,2,1,2,3,,,,,3,1,3,,,,NonCued2,MiniBlocks1,,1072588,,,8,1,r,-999999,14,1200092,r,692,1200784,Green,Congruent,r,White,0,,0,14,1190080,,0,0,,,,,,,,,,,,,Pictures\white.bmp,9000,2000,Pictures\GreenLeft.bmp,,,,8,1,8,,,,,,,StimulusPr,Pictures\black.bmp,NonCuedStim2,Left
POP_2,27011,1,"<?xml version=""1.0""?>\n<Clock xmlns:dt=""urn:schemas-microsoft-com:datatypes""><Description dt:dt=""string"">E-Prime Primary Realtime Clock</Description><StartTime><Timestamp dt:dt=""int"">0</Timestamp><DateUtc dt:dt=""string"">2014-05-02T22:18:06Z</DateUtc></StartTime><FrequencyChanges><FrequencyChange><Frequency dt:dt=""r8"">2793020000</Frequency><Timestamp dt:dt=""r8"">120840905311595</Timestamp><Current dt:dt=""r8"">0</Current><DateUtc dt:dt=""string"">2014-05-02T22:18:06Z</DateUtc></FrequencyChange></FrequencyChanges></Clock>\n",60.034,1,-1726469835,0,,-999999,11,16262,t,52442,68704,5/2/2014,15:18:06,,2,Session2,SessionsList,0,,-999999,15,723595,t,37481,761076,693126,2,1,2,3,,,,,3,1,3,,,,NonCued2,MiniBlocks1,,1072588,,,9,1,b,-999999,5,1208071,b,557,1208628,Green,Congruent,b,White,0,,0,12,1204090,,0,0,,,,,,,,,,,,,Pictures\white.bmp,3000,10000,Pictures\black.bmp,,,,9,1,9,,,,,,,StimulusPr,Pictures\GreenRight.bmp,NonCuedStim2,Right
POP_2,27011,1,"<?xml version=""1.0""?>\n<Clock xmlns:dt=""urn:schemas-microsoft-com:datatypes""><Description dt:dt=""string"">E-Prime Primary Realtime Clock</Description><StartTime><Timestamp dt:dt=""int"">0</Timestamp><DateUtc dt:dt=""string"">2014-05-02T22:18:06Z</DateUtc></StartTime><FrequencyChanges><FrequencyChange><Frequency dt:dt=""r8"">2793020000</Frequency><Timestamp dt:dt=""r8"">120840905311595</Timestamp><Current dt:dt=""r8"">0</Current><DateUtc dt:dt=""string"">2014-05-02T22:18:06Z</DateUtc></FrequencyChange></FrequencyChanges></Clock>\n",60.034,1,-1726469835,0,,-999999,11,16262,t,52442,68704,5/2/2014,15:18:06,,2,Session2,SessionsList,0,,-999999,15,723595,t,37481,761076,693126,2,1,2,3,,,,,3,1,3,,,,NonCued2,MiniBlocks1,,1072588,,,10,1,b,-999999,3,1224081,b,453,1224534,Green,Congruent,b,White,0,,0,4,1220082,,0,0,,,,,,,,,,,,,Pictures\white.bmp,3000,2000,Pictures\black.bmp,,,,10,1,10,,,,,,,StimulusPr,Pictures\GreenRight.bmp,NonCuedStim2,Right
POP_2,27011,1,"<?xml version=""1.0""?>\n<Clock xmlns:dt=""urn:schemas-microsoft-com:datatypes""><Description dt:dt=""string"">E-Prime Primary Realtime Clock</Description><StartTime><Timestamp dt:dt=""int"">0</Timestamp><DateUtc dt:dt=""string"">2014-05-02T22:18:06Z</DateUtc></StartTime><FrequencyChanges><FrequencyChange><Frequency dt:dt=""r8"">2793020000</Frequency><Timestamp dt:dt=""r8"">120840905311595</Timestamp><Current dt:dt=""r8"">0</Current><DateUtc dt:dt=""string"">2014-05-02T22:18:06Z</DateUtc></FrequencyChange></FrequencyChanges></Clock>\n",60.034,1,-1726469835,0,,-999999,11,16262,t,52442,68704,5/2/2014,15:18:06,,2,Session2,SessionsList,0,,-999999,15,723595,t,37481,761076,693126,2,1,2,4,,1226562,,,4,1,4,,,,Cued2,MiniBlocks1,,,,,1,1,b,-999999,6,1244070,b,386,1244456,White,Congruent,b,Green,0,,0,7,1237073,,0,0,,,,1,1,1,,,,,,,Pictures\green.bmp,6000,4000,Pictures\black.bmp,,,,,,,,,,,,,StimulusPr,Pictures\right.bmp,CuedStim2,Right
POP_2,27011,1,"<?xml version=""1.0""?>\n<Clock xmlns:dt=""urn:schemas-microsoft-com:datatypes""><Description dt:dt=""string"">E-Prime Primary Realtime Clock</Description><StartTime><Timestamp dt:dt=""int"">0</Timestamp><DateUtc dt:dt=""string"">2014-05-02T22:18:06Z</DateUtc></StartTime><FrequencyChanges><FrequencyChange><Frequency dt:dt=""r8"">2793020000</Frequency><Timestamp dt:dt=""r8"">120840905311595</Timestamp><Current dt:dt=""r8"">0</Current><DateUtc dt:dt=""string"">2014-05-02T22:18:06Z</DateUtc></FrequencyChange></FrequencyChanges></Clock>\n",60.034,1,-1726469835,0,,-999999,11,16262,t,52442,68704,5/2/2014,15:18:06,,2,Session2,SessionsList,0,,-999999,15,723595,t,37481,761076,693126,2,1,2,4,,1226562,,,4,1,4,,,,Cued2,MiniBlocks1,,,,,2,1,b,-999999,18,1260095,b,1502,1261597,White,Congruent,b,Green,0,,0,7,1250084,,0,0,,,,2,1,2,,,,,,,Pictures\green.bmp,9000,10000,Pictures\black.bmp,,,,,,,,,,,,,StimulusPr,Pictures\right.bmp,CuedStim2,Right
POP_2,27011,1,"<?xml version=""1.0""?>\n<Clock xmlns:dt=""urn:schemas-microsoft-com:datatypes""><Description dt:dt=""string"">E-Prime Primary Realtime Clock</Description><StartTime><Timestamp dt:dt=""int"">0</Timestamp><DateUtc dt:dt=""string"">2014-05-02T22:18:06Z</DateUtc></StartTime><FrequencyChanges><FrequencyChange><Frequency dt:dt=""r8"">2793020000</Frequency><Timestamp dt:dt=""r8"">120840905311595</Timestamp><Current dt:dt=""r8"">0</Current><DateUtc dt:dt=""string"">2014-05-02T22:18:06Z</DateUtc></FrequencyChange></FrequencyChanges></Clock>\n",60.034,1,-1726469835,0,,-999999,11,16262,t,52442,68704,5/2/2014,15:18:06,,2,Session2,SessionsList,0,,-999999,15,723595,t,37481,761076,693126,2,1,2,4,,1226562,,,4,1,4,,,,Cued2,MiniBlocks1,,,,,3,1,r,-999999,9,1277087,r,885,1277972,White,Incongruent,r,Red,0,,0,11,1273089,,0,0,,,,3,1,3,,,,,,,Pictures\red.bmp,3000,2000,Pictures\black.bmp,,,,,,,,,,,,,StimulusPr,Pictures\right.bmp,CuedStim2,Right
POP_2,27011,1,"<?xml version=""1.0""?>\n<Clock xmlns:dt=""urn:schemas-microsoft-com:datatypes""><Description dt:dt=""string"">E-Prime Primary Realtime Clock</Description><StartTime><Timestamp dt:dt=""int"">0</Timestamp><DateUtc dt:dt=""string"">2014-05-02T22:18:06Z</DateUtc></StartTime><FrequencyChanges><FrequencyChange><Frequency dt:dt=""r8"">2793020000</Frequency><Timestamp dt:dt=""r8"">120840905311595</Timestamp><Current dt:dt=""r8"">0</Current><DateUtc dt:dt=""string"">2014-05-02T22:18:06Z</DateUtc></FrequencyChange></FrequencyChanges></Clock>\n",60.034,1,-1726469835,0,,-999999,11,16262,t,52442,68704,5/2/2014,15:18:06,,2,Session2,SessionsList,0,,-999999,15,723595,t,37481,761076,693126,2,1,2,4,,1226562,,,4,1,4,,,,Cued2,MiniBlocks1,,,,,4,0,r,-999999,4,1288082,b,609,1288691,White,Congruent,r,Green,0,,0,5,1281068,,0,0,,,,4,1,4,,,,,,,Pictures\green.bmp,6000,16000,Pictures\left.bmp,,,,,,,,,,,,,StimulusPr,Pictures\black.bmp,CuedStim2,Left
POP_2,27011,1,"<?xml version=""1.0""?>\n<Clock xmlns:dt=""urn:schemas-microsoft-com:datatypes""><Description dt:dt=""string"">E-Prime Primary Realtime Clock</Description><StartTime><Timestamp dt:dt=""int"">0</Timestamp><DateUtc dt:dt=""string"">2014-05-02T22:18:06Z</DateUtc></StartTime><FrequencyChanges><FrequencyChange><Frequency dt:dt=""r8"">2793020000</Frequency><Timestamp dt:dt=""r8"">120840905311595</Timestamp><Current dt:dt=""r8"">0</Current><DateUtc dt:dt=""string"">2014-05-02T22:18:06Z</DateUtc></FrequencyChange></FrequencyChanges></Clock>\n",60.034,1,-1726469835,0,,-999999,11,16262,t,52442,68704,5/2/2014,15:18:06,,2,Session2,SessionsList,0,,-999999,15,723595,t,37481,761076,693126,2,1,2,4,,1226562,,,4,1,4,,,,Cued2,MiniBlocks1,,,,,5,1,b,-999999,9,1310087,b,479,1310566,White,Congruent,b,Green,0,,0,11,1306089,,0,0,,,,5,1,5,,,,,,,Pictures\green.bmp,3000,2000,Pictures\black.bmp,,,,,,,,,,,,,StimulusPr,Pictures\right.bmp,CuedStim2,Right
POP_2,27011,1,"<?xml version=""1.0""?>\n<Clock xmlns:dt=""urn:schemas-microsoft-com:datatypes""><Description dt:dt=""string"">E-Prime Primary Realtime Clock</Description><StartTime><Timestamp dt:dt=""int"">0</Timestamp><DateUtc dt:dt=""string"">2014-05-02T22:18:06Z</DateUtc></StartTime><FrequencyChanges><FrequencyChange><Frequency dt:dt=""r8"">2793020000</Frequency><Timestamp dt:dt=""r8"">120840905311595</Timestamp><Current dt:dt=""r8"">0</Current><DateUtc dt:dt=""string"">2014-05-02T22:18:06Z</DateUtc></FrequencyChange></FrequencyChanges></Clock>\n",60.034,1,-1726469835,0,,-999999,11,16262,t,52442,68704,5/2/2014,15:18:06,,2,Session2,SessionsList,0,,-999999,15,723595,t,37481,761076,693126,2,1,2,4,,1226562,,,4,1,4,,,,Cued2,MiniBlocks1,,,,,6,1,r,-999999,9,1318083,r,389,1318472,White,Congruent,r,Green,0,,0,7,1314085,,0,0,,,,6,1,6,,,,,,,Pictures\green.bmp,3000,2000,Pictures\left.bmp,,,,,,,,,,,,,StimulusPr,Pictures\black.bmp,CuedStim2,Left
POP_2,27011,1,"<?xml version=""1.0""?>\n<Clock xmlns:dt=""urn:schemas-microsoft-com:datatypes""><Description dt:dt=""string"">E-Prime Primary Realtime Clock</Description><StartTime><Timestamp dt:dt=""int"">0</Timestamp><DateUtc dt:dt=""string"">2014-05-02T22:18:06Z</DateUtc></StartTime><FrequencyChanges><FrequencyChange><Frequency dt:dt=""r8"">2793020000</Frequency><Timestamp dt:dt=""r8"">120840905311595</Timestamp><Current dt:dt=""r8"">0</Current><DateUtc dt:dt=""string"">2014-05-02T22:18:06Z</DateUtc></FrequencyChange></FrequencyChanges></Clock>\n",60.034,1,-1726469835,0,,-999999,11,16262,t,52442,68704,5/2/2014,15:18:06,,2,Session2,SessionsList,0,,-999999,15,723595,t,37481,761076,693126,2,1,2,4,,1226562,,,4,1,4,,,,Cued2,MiniBlocks1,,,,,7,1,b,-999999,17,1329095,b,724,1329819,White,Incongruent,b,Red,0,,0,3,1322081,,0,0,,,,7,1,7,,,,,,,Pictures\red.bmp,6000,4000,Pictures\left.bmp,,,,,,,,,,,,,StimulusPr,Pictures\black.bmp,CuedStim2,Left
POP_2,27011,1,"<?xml version=""1.0""?>\n<Clock xmlns:dt=""urn:schemas-microsoft-com:datatypes""><Description dt:dt=""string"">E-Prime Primary Realtime Clock</Description><StartTime><Timestamp dt:dt=""int"">0</Timestamp><DateUtc dt:dt=""string"">2014-05-02T22:18:06Z</DateUtc></StartTime><FrequencyChanges><FrequencyChange><Frequency dt:dt=""r8"">2793020000</Frequency><Timestamp dt:dt=""r8"">120840905311595</Timestamp><Current dt:dt=""r8"">0</Current><DateUtc dt:dt=""string"">2014-05-02T22:18:06Z</DateUtc></FrequencyChange></FrequencyChanges></Clock>\n",60.034,1,-1726469835,0,,-999999,11,16262,t,52442,68704,5/2/2014,15:18:06,,2,Session2,SessionsList,0,,-999999,15,723595,t,37481,761076,693126,2,1,2,4,,1226562,,,4,1,4,,,,Cued2,MiniBlocks1,,,,,8,1,b,-999999,6,1340072,b,383,1340455,White,Congruent,b,Green,0,,0,14,1335092,,0,0,,,,8,1,8,,,,,,,Pictures\green.bmp,4000,4000,Pictures\black.bmp,,,,,,,,,,,,,StimulusPr,Pictures\right.bmp,CuedStim2,Right
POP_2,27011,1,"<?xml version=""1.0""?>\n<Clock xmlns:dt=""urn:schemas-microsoft-com:datatypes""><Description dt:dt=""string"">E-Prime Primary Realtime Clock</Description><StartTime><Timestamp dt:dt=""int"">0</Timestamp><DateUtc dt:dt=""string"">2014-05-02T22:18:06Z</DateUtc></StartTime><FrequencyChanges><FrequencyChange><Frequency dt:dt=""r8"">2793020000</Frequency><Timestamp dt:dt=""r8"">120840905311595</Timestamp><Current dt:dt=""r8"">0</Current><DateUtc dt:dt=""string"">2014-05-02T22:18:06Z</DateUtc></FrequencyChange></FrequencyChanges></Clock>\n",60.034,1,-1726469835,0,,-999999,11,16262,t,52442,68704,5/2/2014,15:18:06,,2,Session2,SessionsList,0,,-999999,15,723595,t,37481,761076,693126,2,1,2,4,,1226562,,,4,1,4,,,,Cued2,MiniBlocks1,,,,,9,1,b,-999999,3,1356081,b,423,1356504,White,Incongruent,b,Red,0,,0,9,1346086,,0,0,,,,9,1,9,,,,,,,Pictures\red.bmp,9000,10000,Pictures\left.bmp,,,,,,,,,,,,,StimulusPr,Pictures\black.bmp,CuedStim2,Left
POP_2,27011,1,"<?xml version=""1.0""?>\n<Clock xmlns:dt=""urn:schemas-microsoft-com:datatypes""><Description dt:dt=""string"">E-Prime Primary Realtime Clock</Description><StartTime><Timestamp dt:dt=""int"">0</Timestamp><DateUtc dt:dt=""string"">2014-05-02T22:18:06Z</DateUtc></StartTime><FrequencyChanges><FrequencyChange><Frequency dt:dt=""r8"">2793020000</Frequency><Timestamp dt:dt=""r8"">120840905311595</Timestamp><Current dt:dt=""r8"">0</Current><DateUtc dt:dt=""string"">2014-05-02T22:18:06Z</DateUtc></FrequencyChange></FrequencyChanges></Clock>\n",60.034,1,-1726469835,0,,-999999,11,16262,t,52442,68704,5/2/2014,15:18:06,,2,Session2,SessionsList,0,,-999999,15,723595,t,37481,761076,693126,2,1,2,4,,1226562,,,4,1,4,,,,Cued2,MiniBlocks1,,,,,10,1,r,-999999,8,1378087,r,760,1378847,White,Congruent,r,Green,0,,0,13,1368092,,0,0,,,,10,1,10,,,,,,,Pictures\green.bmp,9000,10000,Pictures\left.bmp,,,,,,,,,,,,,StimulusPr,Pictures\black.bmp,CuedStim2,Left
