ExperimentName,Subject,Session,Clock.Information,Display.RefreshRate,Group,RandomSeed,Session1Onset.ACC,Session1Onset.CRESP,Session1Onset.DurationError,Session1Onset.OnsetDelay,Session1Onset.OnsetTime,Session1Onset.RESP,Session1Onset.RT,Session1Onset.RTTime,SessionDate,SessionTime,SessionTimeUtc,Block,Procedure[Block],Running[Block],Session2Onset.ACC,Session2Onset.CRESP,Session2Onset.DurationError,Session2Onset.OnsetDelay,Session2Onset.OnsetTime,Session2Onset.RESP,Session2Onset.RT,Session2Onset.RTTime,SessionBreak.OnsetTime,SessionsList,SessionsList.Cycle,SessionsList.Sample,Trial,CuedPrompt1.OnsetTime,CuedPrompt2.OnsetTime,CuedPrompt3.OnsetTime,CuedPrompt4.OnsetTime,MiniBlocks1,MiniBlocks1.Cycle,MiniBlocks1.Sample,MiniBlocks2,MiniBlocks2.Cycle,MiniBlocks2.Sample,Procedure[Trial],Running[Trial],UncuedPrompt1.OnsetTime,UncuedPrompt2.OnsetTime,UncuedPrompt3.OnsetTime,UncuedPrompt4.OnsetTime,SubTrial,Arrow1.ACC,Arrow1.CRESP,Arrow1.DurationError,Arrow1.OnsetDelay,Arrow1.OnsetTime,Arrow1.RESP,Arrow1.RT,Arrow1.RTTime,ArrowColor,Congruence,CorrectResp,Cue,Cue.ACC,Cue.CRESP,Cue.DurationError,Cue.OnsetDelay,Cue.OnsetTime,Cue.RESP,Cue.RT,Cue.RTTime,CuedStim1,CuedStim1.Cycle,CuedStim1.Sample,CuedStim2,CuedStim2.Cycle,CuedStim2.Sample,CuedStim3,CuedStim3.Cycle,CuedStim3.Sample,CuedStim4,CuedStim4.Cycle,CuedStim4.Sample,CueImage,JitterCue,JitterTrial,LeftImage,NonCuedStim1,NonCuedStim1.Cycle,NonCuedStim1.Sample,NonCuedStim2,NonCuedStim2.Cycle,NonCuedStim2.Sample,NonCuedStim3,NonCuedStim3.Cycle,NonCuedStim3.Sample,NonCuedStim4,NonCuedStim4.Cycle,NonCuedStim4.Sample,Procedure[SubTrial],RightImage,Running[SubTrial],Stimulus
POP_2,27036,1,"<?xml version=""1.0""?>\n<Clock xmlns:dt=""urn:schemas-microsoft-com:datatypes""><Description dt:dt=""string"">E-Prime Primary Realtime Clock</Description><StartTime><Timestamp dt:dt=""int"">0</Timestamp><DateUtc dt:dt=""string"">2014-06-07T20:52:08Z</DateUtc></StartTime><FrequencyChanges><FrequencyChange><Frequency dt:dt=""r8"">2793040000</Frequency><Timestamp dt:dt=""r8"">1.03873834774072E+15</Timestamp><Current dt:dt=""r8"">0</Current><DateUtc dt:dt=""string"">2014-06-07T20:52:08Z</DateUtc></FrequencyChange></FrequencyChanges></Clock>\n",60.03,1,1065478072,0,,-999999,6,55755,t,31895,87650,6/7/2014,13:52:08,8:52:08 PM,1,Session1,SessionsList,,,,,,,,,,1,1,1,1,87656,,,,1,1,1,,,,Cued1,MiniBlocks1,,,,,1,1,r,-999999,14,101665,r,570,102235,White,Congruent,r,Green,0,,0,2,96651,,0,0,1,1,1,,,,,,,,,,Pictures\green.bmp,4000,4000,Pictures\left.bmp,,,,,,,,,,,,,StimulusPr,Pictures\black.bmp,CuedStim1,Left
POP_2,27036,1,"<?xml version=""1.0""?>\n<Clock xmlns:dt=""urn:schemas-microsoft-com:datatypes""><Description dt:dt=""string"">E-Prime Primary Realtime Clock</Description><StartTime><Timestamp dt:dt=""int"">0</Timestamp><DateUtc dt:dt=""string"">2014-06-07T20:52:08Z</DateUtc></StartTime><FrequencyChanges><FrequencyChange><Frequency dt:dt=""r8"">2793040000</Frequency><Timestamp dt:dt=""r8"">1.03873834774072E+15</Timestamp><Current dt:dt=""r8"">0</Current><DateUtc dt:dt=""string"">2014-06-07T20:52:08Z</DateUtc></FrequencyChange></FrequencyChanges></Clock>\n",60.03,1,1065478072,0,,-999999,6,55755,t,31895,87650,6/7/2014,13:52:08,8:52:08 PM,1,Session1,SessionsList,,,,,,,,,,1,1,1,1,87656,,,,1,1,1,,,,Cued1,MiniBlocks1,,,,,2,1,b,-999999,8,114659,b,572,115231,White,Congruent,b,Green,0,,0,2,107646,,0,0,2,1,2,,,,,,,,,,Pictures\green.bmp,6000,2000,Pictures\black.bmp,,,,,,,,,,,,,StimulusPr,Pictures\right.bmp,CuedStim1,Right
POP_2,27036,1,"<?xml version=""1.0""?>\n<Clock xmlns:dt=""urn:schemas-microsoft-com:datatypes""><Description dt:dt=""string"">E-Prime Primary Realtime Clock</Description><StartTime><Timestamp dt:dt=""int"">0</Timestamp><DateUtc dt:dt=""string"">2014-06-07T20:52:08Z</DateUtc></StartTime><FrequencyChanges><FrequencyChange><Frequency dt:dt=""r8"">2793040000</Frequency><Timestamp dt:dt=""r8"">1.03873834774072E+15</Timestamp><Current dt:dt=""r8"">0</Current><DateUtc dt:dt=""string"">2014-06-07T20:52:08Z</DateUtc></FrequencyChange></FrequencyChanges></Clock>\n",60.03,1,1065478072,0,,-999999,6,55755,t,31895,87650,6/7/2014,13:52:08,8:52:08 PM,1,Session1,SessionsList,,,,,,,,,,1,1,1,1,87656,,,,1,1,1,,,,Cued1,MiniBlocks1,,,,,3,1,b,-999999,5,122655,b,582,123237,White,Congruent,b,Green,0,,0,6,118657,,0,0,3,1,3,,,,,,,,,,Pictures\green.bmp,3000,2000,Pictures\black.bmp,,,,,,,,,,,,,StimulusPr,Pictures\right.bmp,CuedStim1,Right
POP_2,27036,1,"<?xml version=""1.0""?>\n<Clock xmlns:dt=""urn:schemas-microsoft-com:datatypes""><Description dt:dt=""string"">E-Prime Primary Realtime Clock</Description><StartTime><Timestamp dt:dt=""int"">0</Timestamp><DateUtc dt:dt=""string"">2014-06-07T20:52:08Z</DateUtc></StartTime><FrequencyChanges><FrequencyChange><Frequency dt:dt=""r8"">2793040000</Frequency><Timestamp dt:dt=""r8"">1.03873834774072E+15</Timestamp><Current dt:dt=""r8"">0</Current><DateUtc dt:dt=""string"">2014-06-07T20:52:08Z</DateUtc></FrequencyChange></FrequencyChanges></Clock>\n",60.03,1,1065478072,0,,-999999,6,55755,t,31895,87650,6/7/2014,13:52:08,8:52:08 PM,1,Session1,SessionsList,,,,,,,,,,1,1,1,1,87656,,,,1,1,1,,,,Cued1,MiniBlocks1,,,,,4,1,b,-999999,17,130667,b,494,131161,White,Incongruent,b,Red,0,,0,3,126653,,0,0,4,1,4,,,,,,,,,,Pictures\red.bmp,3000,16000,Pictures\left.bmp,,,,,,,,,,,,,StimulusPr,Pictures\black.bmp,CuedStim1,Left
POP_2,27036,1,"<?xml version=""1.0""?>\n<Clock xmlns:dt=""urn:schemas-microsoft-com:datatypes""><Description dt:dt=""string"">E-Prime Primary Realtime Clock</Description><StartTime><Timestamp dt:dt=""int"">0</Timestamp><DateUtc dt:dt=""string"">2014-06-07T20:52:08Z</DateUtc></StartTime><FrequencyChanges><FrequencyChange><Frequency dt:dt=""r8"">2793040000</Frequency><Timestamp dt:dt=""r8"">1.03873834774072E+15</Timestamp><Current dt:dt=""r8"">0</Current><DateUtc dt:dt=""string"">2014-06-07T20:52:08Z</DateUtc></FrequencyChange></FrequencyChanges></Clock>\n",60.03,1,1065478072,0,,-999999,6,55755,t,31895,87650,6/7/2014,13:52:08,8:52:08 PM,1,Session1,SessionsList,,,,,,,,,,1,1,1,1,87656,,,,1,1,1,,,,Cued1,MiniBlocks1,,,,,5,1,r,-999999,6,152656,r,605,153261,White,Congruent,r,Green,0,,0,8,148658,,0,0,5,1,5,,,,,,,,,,Pictures\green.bmp,3000,16000,Pictures\left.bmp,,,,,,,,,,,,,StimulusPr,Pictures\black.bmp,CuedStim1,Left
POP_2,27036,1,"<?xml version=""1.0""?>\n<Clock xmlns:dt=""urn:schemas-microsoft-com:datatypes""><Description dt:dt=""string"">E-Prime Primary Realtime Clock</Description><StartTime><Timestamp dt:dt=""int"">0</Timestamp><DateUtc dt:dt=""string"">2014-06-07T20:52:08Z</DateUtc></StartTime><FrequencyChanges><FrequencyChange><Frequency dt:dt=""r8"">2793040000</Frequency><Timestamp dt:dt=""r8"">1.03873834774072E+15</Timestamp><Current dt:dt=""r8"">0</Current><DateUtc dt:dt=""string"">2014-06-07T20:52:08Z</DateUtc></FrequencyChange></FrequencyChanges></Clock>\n",60.03,1,1065478072,0,,-999999,6,55755,t,31895,87650,6/7/2014,13:52:08,8:52:08 PM,1,Session1,SessionsList,,,,,,,,,,1,1,1,1,87656,,,,1,1,1,,,,Cued1,MiniBlocks1,,,,,6,1,r,-999999,10,180659,r,490,181149,White,Congruent,r,Green,0,,0,15,170664,,0,0,6,1,6,,,,,,,,,,Pictures\green.bmp,9000,10000,Pictures\left.bmp,,,,,,,,,,,,,StimulusPr,Pictures\black.bmp,CuedStim1,Left
POP_2,27036,1,"<?xml version=""1.0""?>\n<Clock xmlns:dt=""urn:schemas-microsoft-com:datatypes""><Description dt:dt=""string"">E-Prime Primary Realtime Clock</Description><StartTime><Timestamp dt:dt=""int"">0</Timestamp><DateUtc dt:dt=""string"">2014-06-07T20:52:08Z</DateUtc></StartTime><FrequencyChanges><FrequencyChange><Frequency dt:dt=""r8"">2793040000</Frequency><Timestamp dt:dt=""r8"">1.03873834774072E+15</Timestamp><Current dt:dt=""r8"">0</Current><DateUtc dt:dt=""string"">2014-06-07T20:52:08Z</DateUtc></FrequencyChange></FrequencyChanges></Clock>\n",60.03,1,1065478072,0,,-999999,6,55755,t,31895,87650,6/7/2014,13:52:08,8:52:08 PM,1,Session1,SessionsList,,,,,,,,,,1,1,1,1,87656,,,,1,1,1,,,,Cued1,MiniBlocks1,,,,,7,1,b,-999999,18,196668,b,471,197139,White,Congruent,b,Green,0,,0,2,192636,,0,0,7,1,7,,,,,,,,,,Pictures\green.bmp,3000,16000,Pictures\black.bmp,,,,,,,,,,,,,StimulusPr,Pictures\right.bmp,CuedStim1,Right
POP_2,27036,1,"<?xml version=""1.0""?>\n<Clock xmlns:dt=""urn:schemas-microsoft-com:datatypes""><Description dt:dt=""string"">E-Prime Primary Realtime Clock</Description><StartTime><Timestamp dt:dt=""int"">0</Timestamp><DateUtc dt:dt=""string"">2014-06-07T20:52:08Z</DateUtc></StartTime><FrequencyChanges><FrequencyChange><Frequency dt:dt=""r8"">2793040000</Frequency><Timestamp dt:dt=""r8"">1.03873834774072E+15</Timestamp><Current dt:dt=""r8"">0</Current><DateUtc dt:dt=""string"">2014-06-07T20:52:08Z</DateUtc></FrequencyChange></FrequencyChanges></Clock>\n",60.03,1,1065478072,0,,-999999,6,55755,t,31895,87650,6/7/2014,13:52:08,8:52:08 PM,1,Session1,SessionsList,,,,,,,,,,1,1,1,1,87656,,,,1,1,1,,,,Cued1,MiniBlocks1,,,,,8,0,r,-999999,6,219656,b,445,220101,White,Incongruent,r,Red,0,,0,9,214659,,0,0,8,1,8,,,,,,,,,,Pictures\red.bmp,4000,2000,Pictures\black.bmp,,,,,,,,,,,,,StimulusPr,Pictures\right.bmp,CuedStim1,Right
POP_2,27036,1,"<?xml version=""1.0""?>\n<Clock xmlns:dt=""urn:schemas-microsoft-com:datatypes""><Description dt:dt=""string"">E-Prime Primary Realtime Clock</Description><StartTime><Timestamp dt:dt=""int"">0</Timestamp><DateUtc dt:dt=""string"">2014-06-07T20:52:08Z</DateUtc></StartTime><FrequencyChanges><FrequencyChange><Frequency dt:dt=""r8"">2793040000</Frequency><Timestamp dt:dt=""r8"">1.03873834774072E+15</Timestamp><Current dt:dt=""r8"">0</Current><DateUtc dt:dt=""string"">2014-06-07T20:52:08Z</DateUtc></FrequencyChange></FrequencyChanges></Clock>\n",60.03,1,1065478072,0,,-999999,6,55755,t,31895,87650,6/7/2014,13:52:08,8:52:08 PM,1,Session1,SessionsList,,,,,,,,,,1,1,1,1,87656,,,,1,1,1,,,,Cued1,MiniBlocks1,,,,,9,1,b,-999999,3,228652,b,438,229090,White,Congruent,b,Green,0,,0,4,223654,,0,0,9,1,9,,,,,,,,,,Pictures\green.bmp,4000,2000,Pictures\black.bmp,,,,,,,,,,,,,StimulusPr,Pictures\right.bmp,CuedStim1,Right
POP_2,27036,1,"<?xml version=""1.0""?>\n<Clock xmlns:dt=""urn:schemas-microsoft-com:datatypes""><Description dt:dt=""string"">E-Prime Primary Realtime Clock</Description><StartTime><Timestamp dt:dt=""int"">0</Timestamp><DateUtc dt:dt=""string"">2014-06-07T20:52:08Z</DateUtc></StartTime><FrequencyChanges><FrequencyChange><Frequency dt:dt=""r8"">2793040000</Frequency><Timestamp dt:dt=""r8"">1.03873834774072E+15</Timestamp><Current dt:dt=""r8"">0</Current><DateUtc dt:dt=""string"">2014-06-07T20:52:08Z</DateUtc></FrequencyChange></FrequencyChanges></Clock>\n",60.03,1,1065478072,0,,-999999,6,55755,t,31895,87650,6/7/2014,13:52:08,8:52:08 PM,1,Session1,SessionsList,,,,,,,,,,1,1,1,1,87656,,,,1,1,1,,,,Cued1,MiniBlocks1,,,,,10,1,r,-999999,15,236664,r,408,237072,White,Congruent,r,Green,0,,0,17,232666,,0,0,10,1,10,,,,,,,,,,Pictures\green.bmp,3000,2000,Pictures\left.bmp,,,,,,,,,,,,,StimulusPr,Pictures\black.bmp,CuedStim1,Left
POP_2,27036,1,"<?xml version=""1.0""?>\n<Clock xmlns:dt=""urn:schemas-microsoft-com:datatypes""><Description dt:dt=""string"">E-Prime Primary Realtime Clock</Description><StartTime><Timestamp dt:dt=""int"">0</Timestamp><DateUtc dt:dt=""string"">2014-06-07T20:52:08Z</DateUtc></StartTime><FrequencyChanges><FrequencyChange><Frequency dt:dt=""r8"">2793040000</Frequency><Timestamp dt:dt=""r8"">1.03873834774072E+15</Timestamp><Current dt:dt=""r8"">0</Current><DateUtc dt:dt=""string"">2014-06-07T20:52:08Z</DateUtc></FrequencyChange></FrequencyChanges></Clock>\n",60.03,1,1065478072,0,,-999999,6,55755,t,31895,87650,6/7/2014,13:52:08,8:52:08 PM,1,Session1,SessionsList,,,,,,,,,,1,1,1,2,,,,,2,1,2,,,,NonCued1,MiniBlocks1,239096,,,,1,1,r,-999999,7,253656,r,476,254132,Green,Congruent,r,White,0,,0,9,248658,,0,0,,,,,,,,,,,,,Pictures\white.bmp,4000,2000,Pictures\GreenLeft.bmp,1,1,1,,,,,,,,,,StimulusPr,Pictures\black.bmp,NonCuedStim1,Left
POP_2,27036,1,"<?xml version=""1.0""?>\n<Clock xmlns:dt=""urn:schemas-microsoft-com:datatypes""><Description dt:dt=""string"">E-Prime Primary Realtime Clock</Description><StartTime><Timestamp dt:dt=""int"">0</Timestamp><DateUtc dt:dt=""string"">2014-06-07T20:52:08Z</DateUtc></StartTime><FrequencyChanges><FrequencyChange><Frequency dt:dt=""r8"">2793040000</Frequency><Timestamp dt:dt=""r8"">1.03873834774072E+15</Timestamp><Current dt:dt=""r8"">0</Current><DateUtc dt:dt=""string"">2014-06-07T20:52:08Z</DateUtc></FrequencyChange></FrequencyChanges></Clock>\n",60.03,1,1065478072,0,,-999999,6,55755,t,31895,87650,6/7/2014,13:52:08,8:52:08 PM,1,Session1,SessionsList,,,,,,,,,,1,1,1,2,,,,,2,1,2,,,,NonCued1,MiniBlocks1,239096,,,,2,1,b,-999999,18,264667,b,629,265296,Green,Congruent,b,White,0,,0,5,257654,,0,0,,,,,,,,,,,,,Pictures\white.bmp,6000,16000,Pictures\black.bmp,2,1,2,,,,,,,,,,StimulusPr,Pictures\GreenRight.bmp,NonCuedStim1,Right
POP_2,27036,1,"<?xml version=""1.0""?>\n<Clock xmlns:dt=""urn:schemas-microsoft-com:datatypes""><Description dt:dt=""string"">E-Prime Primary Realtime Clock</Description><StartTime><Timestamp dt:dt=""int"">0</Timestamp><DateUtc dt:dt=""string"">2014-06-07T20:52:08Z</DateUtc></StartTime><FrequencyChanges><FrequencyChange><Frequency dt:dt=""r8"">2793040000</Frequency><Timestamp dt:dt=""r8"">1.03873834774072E+15</Timestamp><Current dt:dt=""r8"">0</Current><DateUtc dt:dt=""string"">2014-06-07T20:52:08Z</DateUtc></FrequencyChange></FrequencyChanges></Clock>\n",60.03,1,1065478072,0,,-999999,6,55755,t,31895,87650,6/7/2014,13:52:08,8:52:08 PM,1,Session1,SessionsList,,,,,,,,,,1,1,1,2,,,,,2,1,2,,,,NonCued1,MiniBlocks1,239096,,,,3,1,r,-999999,4,289654,r,723,290377,Red,Incongruent,r,White,0,,0,8,282658,,0,0,,,,,,,,,,,,,Pictures\white.bmp,6000,10000,Pictures\black.bmp,3,1,3,,,,,,,,,,StimulusPr,Pictures\RedRight.bmp,NonCuedStim1,Right
POP_2,27036,1,"<?xml version=""1.0""?>\n<Clock xmlns:dt=""urn:schemas-microsoft-com:datatypes""><Description dt:dt=""string"">E-Prime Primary Realtime Clock</Description><StartTime><Timestamp dt:dt=""int"">0</Timestamp><DateUtc dt:dt=""string"">2014-06-07T20:52:08Z</DateUtc></StartTime><FrequencyChanges><FrequencyChange><Frequency dt:dt=""r8"">2793040000</Frequency><Timestamp dt:dt=""r8"">1.03873834774072E+15</Timestamp><Current dt:dt=""r8"">0</Current><DateUtc dt:dt=""string"">2014-06-07T20:52:08Z</DateUtc></FrequencyChange></FrequencyChanges></Clock>\n",60.03,1,1065478072,0,,-999999,6,55755,t,31895,87650,6/7/2014,13:52:08,8:52:08 PM,1,Session1,SessionsList,,,,,,,,,,1,1,1,2,,,,,2,1,2,,,,NonCued1,MiniBlocks1,239096,,,,4,1,r,-999999,11,311660,r,467,312127,Green,Congruent,r,White,0,,0,15,301665,,0,0,,,,,,,,,,,,,Pictures\white.bmp,9000,10000,Pictures\GreenLeft.bmp,4,1,4,,,,,,,,,,StimulusPr,Pictures\black.bmp,NonCuedStim1,Left
POP_2,27036,1,"<?xml version=""1.0""?>\n<Clock xmlns:dt=""urn:schemas-microsoft-com:datatypes""><Description dt:dt=""string"">E-Prime Primary Realtime Clock</Description><StartTime><Timestamp dt:dt=""int"">0</Timestamp><DateUtc dt:dt=""string"">2014-06-07T20:52:08Z</DateUtc></StartTime><FrequencyChanges><FrequencyChange><Frequency dt:dt=""r8"">2793040000</Frequency><Timestamp dt:dt=""r8"">1.03873834774072E+15</Timestamp><Current dt:dt=""r8"">0</Current><DateUtc dt:dt=""string"">2014-06-07T20:52:08Z</DateUtc></FrequencyChange></FrequencyChanges></Clock>\n",60.03,1,1065478072,0,,-999999,6,55755,t,31895,87650,6/7/2014,13:52:08,8:52:08 PM,1,Session1,SessionsList,,,,,,,,,,1,1,1,2,,,,,2,1,2,,,,NonCued1,MiniBlocks1,239096,,,,5,1,b,-999999,3,327652,b,468,328120,Green,Congruent,b,White,0,,0,5,323654,,0,0,,,,,,,,,,,,,Pictures\white.bmp,3000,2000,Pictures\black.bmp,5,1,5,,,,,,,,,,StimulusPr,Pictures\GreenRight.bmp,NonCuedStim1,Right
POP_2,27036,1,"<?xml version=""1.0""?>\n<Clock xmlns:dt=""urn:schemas-microsoft-com:datatypes""><Description dt:dt=""string"">E-Prime Primary Realtime Clock</Description><StartTime><Timestamp dt:dt=""int"">0</Timestamp><DateUtc dt:dt=""string"">2014-06-07T20:52:08Z</DateUtc></StartTime><FrequencyChanges><FrequencyChange><Frequency dt:dt=""r8"">2793040000</Frequency><Timestamp dt:dt=""r8"">1.03873834774072E+15</Timestamp><Current dt:dt=""r8"">0</Current><DateUtc dt:dt=""string"">2014-06-07T20:52:08Z</DateUtc></FrequencyChange></FrequencyChanges></Clock>\n",60.03,1,1065478072,0,,-999999,6,55755,t,31895,87650,6/7/2014,13:52:08,8:52:08 PM,1,Session1,SessionsList,,,,,,,,,,1,1,1,2,,,,,2,1,2,,,,NonCued1,MiniBlocks1,239096,,,,6,1,b,-999999,15,336664,b,523,337187,Red,Incongruent,b,White,0,,0,17,331666,,0,0,,,,,,,,,,,,,Pictures\white.bmp,4000,16000,Pictures\RedLeft.bmp,6,1,6,,,,,,,,,,StimulusPr,Pictures\black.bmp,NonCuedStim1,Left
POP_2,27036,1,"<?xml version=""1.0""?>\n<Clock xmlns:dt=""urn:schemas-microsoft-com:datatypes""><Description dt:dt=""string"">E-Prime Primary Realtime Clock</Description><StartTime><Timestamp dt:dt=""int"">0</Timestamp><DateUtc dt:dt=""string"">2014-06-07T20:52:08Z</DateUtc></StartTime><FrequencyChanges><FrequencyChange><Frequency dt:dt=""r8"">2793040000</Frequency><Timestamp dt:dt=""r8"">1.03873834774072E+15</Timestamp><Current dt:dt=""r8"">0</Current><DateUtc dt:dt=""string"">2014-06-07T20:52:08Z</DateUtc></FrequencyChange></FrequencyChanges></Clock>\n",60.03,1,1065478072,0,,-999999,6,55755,t,31895,87650,6/7/2014,13:52:08,8:52:08 PM,1,Session1,SessionsList,,,,,,,,,,1,1,1,2,,,,,2,1,2,,,,NonCued1,MiniBlocks1,239096,,,,7,1,b,-999999,3,358653,b,517,359170,Green,Congruent,b,White,0,,0,5,354655,,0,0,,,,,,,,,,,,,Pictures\white.bmp,3000,4000,Pictures\black.bmp,7,1,7,,,,,,,,,,StimulusPr,Pictures\GreenRight.bmp,NonCuedStim1,Right
POP_2,27036,1,"<?xml version=""1.0""?>\n<Clock xmlns:dt=""urn:schemas-microsoft-com:datatypes""><Description dt:dt=""string"">E-Prime Primary Realtime Clock</Description><StartTime><Timestamp dt:dt=""int"">0</Timestamp><DateUtc dt:dt=""string"">2014-06-07T20:52:08Z</DateUtc></StartTime><FrequencyChanges><FrequencyChange><Frequency dt:dt=""r8"">2793040000</Frequency><Timestamp dt:dt=""r8"">1.03873834774072E+15</Timestamp><Current dt:dt=""r8"">0</Current><DateUtc dt:dt=""string"">2014-06-07T20:52:08Z</DateUtc></FrequencyChange></FrequencyChanges></Clock>\n",60.03,1,1065478072,0,,-999999,6,55755,t,31895,87650,6/7/2014,13:52:08,8:52:08 PM,1,Session1,SessionsList,,,,,,,,,,1,1,1,2,,,,,2,1,2,,,,NonCued1,MiniBlocks1,239096,,,,8,1,b,-999999,14,368664,b,499,369163,Green,Congruent,b,White,0,,0,17,364666,,0,0,,,,,,,,,,,,,Pictures\white.bmp,3000,4000,Pictures\black.bmp,8,1,8,,,,,,,,,,StimulusPr,Pictures\GreenRight.bmp,NonCuedStim1,Right
POP_2,27036,1,"<?xml version=""1.0""?>\n<Clock xmlns:dt=""urn:schemas-microsoft-com:datatypes""><Description dt:dt=""string"">E-Prime Primary Realtime Clock</Description><StartTime><Timestamp dt:dt=""int"">0</Timestamp><DateUtc dt:dt=""string"">2014-06-07T20:52:08Z</DateUtc></StartTime><FrequencyChanges><FrequencyChange><Frequency dt:dt=""r8"">2793040000</Frequency><Timestamp dt:dt=""r8"">1.03873834774072E+15</Timestamp><Current dt:dt=""r8"">0</Current><DateUtc dt:dt=""string"">2014-06-07T20:52:08Z</DateUtc></FrequencyChange></FrequencyChanges></Clock>\n",60.03,1,1065478072,0,,-999999,6,55755,t,31895,87650,6/7/2014,13:52:08,8:52:08 PM,1,Session1,SessionsList,,,,,,,,,,1,1,1,2,,,,,2,1,2,,,,NonCued1,MiniBlocks1,239096,,,,9,1,b,-999999,7,384656,b,490,385146,Red,Incongruent,b,White,0,,0,11,374661,,0,0,,,,,,,,,,,,,Pictures\white.bmp,9000,2000,Pictures\RedLeft.bmp,9,1,9,,,,,,,,,,StimulusPr,Pictures\black.bmp,NonCuedStim1,Left
POP_2,27036,1,"<?xml version=""1.0""?>\n<Clock xmlns:dt=""urn:schemas-microsoft-com:datatypes""><Description dt:dt=""string"">E-Prime Primary Realtime Clock</Description><StartTime><Timestamp dt:dt=""int"">0</Timestamp><DateUtc dt:dt=""string"">2014-06-07T20:52:08Z</DateUtc></StartTime><FrequencyChanges><FrequencyChange><Frequency dt:dt=""r8"">2793040000</Frequency><Timestamp dt:dt=""r8"">1.03873834774072E+15</Timestamp><Current dt:dt=""r8"">0</Current><DateUtc dt:dt=""string"">2014-06-07T20:52:08Z</DateUtc></FrequencyChange></FrequencyChanges></Clock>\n",60.03,1,1065478072,0,,-999999,6,55755,t,31895,87650,6/7/2014,13:52:08,8:52:08 PM,1,Session1,SessionsList,,,,,,,,,,1,1,1,2,,,,,2,1,2,,,,NonCued1,MiniBlocks1,239096,,,,10,1,r,-999999,18,395668,r,642,396310,Green,Congruent,r,White,0,,0,5,388654,,0,0,,,,,,,,,,,,,Pictures\white.bmp,6000,2000,Pictures\GreenLeft.bmp,10,1,10,,,,,,,,,,StimulusPr,Pictures\black.bmp,NonCuedStim1,Left
POP_2,27036,1,"<?xml version=""1.0""?>\n<Clock xmlns:dt=""urn:schemas-microsoft-com:datatypes""><Description dt:dt=""string"">E-Prime Primary Realtime Clock</Description><StartTime><Timestamp dt:dt=""int"">0</Timestamp><DateUtc dt:dt=""string"">2014-06-07T20:52:08Z</DateUtc></StartTime><FrequencyChanges><FrequencyChange><Frequency dt:dt=""r8"">2793040000</Frequency><Timestamp dt:dt=""r8"">1.03873834774072E+15</Timestamp><Current dt:dt=""r8"">0</Current><DateUtc dt:dt=""string"">2014-06-07T20:52:08Z</DateUtc></FrequencyChange></FrequencyChanges></Clock>\n",60.03,1,1065478072,0,,-999999,6,55755,t,31895,87650,6/7/2014,13:52:08,8:52:08 PM,1,Session1,SessionsList,,,,,,,,,,1,1,1,3,,,,,3,1,3,,,,NonCued2,MiniBlocks1,,398333,,,1,1,b,-999999,7,418656,b,360,419016,Green,Congruent,b,White,0,,0,12,408661,,0,0,,,,,,,,,,,,,Pictures\white.bmp,9000,10000,Pictures\black.bmp,,,,1,1,1,,,,,,,StimulusPr,Pictures\GreenRight.bmp,NonCuedStim2,Right
POP_2,27036,1,"<?xml version=""1.0""?>\n<Clock xmlns:dt=""urn:schemas-microsoft-com:datatypes""><Description dt:dt=""string"">E-Prime Primary Realtime Clock</Description><StartTime><Timestamp dt:dt=""int"">0</Timestamp><DateUtc dt:dt=""string"">2014-06-07T20:52:08Z</DateUtc></StartTime><FrequencyChanges><FrequencyChange><Frequency dt:dt=""r8"">2793040000</Frequency><Timestamp dt:dt=""r8"">1.03873834774072E+15</Timestamp><Current dt:dt=""r8"">0</Current><DateUtc dt:dt=""string"">2014-06-07T20:52:08Z</DateUtc></FrequencyChange></FrequencyChanges></Clock>\n",60.03,1,1065478072,0,,-999999,6,55755,t,31895,87650,6/7/2014,13:52:08,8:52:08 PM,1,Session1,SessionsList,,,,,,,,,,1,1,1,3,,,,,3,1,3,,,,NonCued2,MiniBlocks1,,398333,,,2,1,r,-999999,16,434665,r,536,435201,Green,Congruent,r,White,0,,0,18,430667,,0,0,,,,,,,,,,,,,Pictures\white.bmp,3000,2000,Pictures\GreenLeft.bmp,,,,2,1,2,,,,,,,StimulusPr,Pictures\black.bmp,NonCuedStim2,Left
POP_2,27036,1,"<?xml version=""1.0""?>\n<Clock xmlns:dt=""urn:schemas-microsoft-com:datatypes""><Description dt:dt=""string"">E-Prime Primary Realtime Clock</Description><StartTime><Timestamp dt:dt=""int"">0</Timestamp><DateUtc dt:dt=""string"">2014-06-07T20:52:08Z</DateUtc></StartTime><FrequencyChanges><FrequencyChange><Frequency dt:dt=""r8"">2793040000</Frequency><Timestamp dt:dt=""r8"">1.03873834774072E+15</Timestamp><Current dt:dt=""r8"">0</Current><DateUtc dt:dt=""string"">2014-06-07T20:52:08Z</DateUtc></FrequencyChange></FrequencyChanges></Clock>\n",60.03,1,1065478072,0,,-999999,6,55755,t,31895,87650,6/7/2014,13:52:08,8:52:08 PM,1,Session1,SessionsList,,,,,,,,,,1,1,1,3,,,,,3,1,3,,,,NonCued2,MiniBlocks1,,398333,,,3,1,r,-999999,12,442661,r,554,443215,Red,Incongruent,r,White,0,,0,15,438663,,0,0,,,,,,,,,,,,,Pictures\white.bmp,3000,2000,Pictures\black.bmp,,,,3,1,3,,,,,,,StimulusPr,Pictures\RedRight.bmp,NonCuedStim2,Right
POP_2,27036,1,"<?xml version=""1.0""?>\n<Clock xmlns:dt=""urn:schemas-microsoft-com:datatypes""><Description dt:dt=""string"">E-Prime Primary Realtime Clock</Description><StartTime><Timestamp dt:dt=""int"">0</Timestamp><DateUtc dt:dt=""string"">2014-06-07T20:52:08Z</DateUtc></StartTime><FrequencyChanges><FrequencyChange><Frequency dt:dt=""r8"">2793040000</Frequency><Timestamp dt:dt=""r8"">1.03873834774072E+15</Timestamp><Current dt:dt=""r8"">0</Current><DateUtc dt:dt=""string"">2014-06-07T20:52:08Z</DateUtc></FrequencyChange></FrequencyChanges></Clock>\n",60.03,1,1065478072,0,,-999999,6,55755,t,31895,87650,6/7/2014,13:52:08,8:52:08 PM,1,Session1,SessionsList,,,,,,,,,,1,1,1,3,,,,,3,1,3,,,,NonCued2,MiniBlocks1,,398333,,,4,0,r,-999999,6,451656,b,373,452029,Green,Congruent,r,White,0,,0,10,446659,,0,0,,,,,,,,,,,,,Pictures\white.bmp,4000,16000,Pictures\GreenLeft.bmp,,,,4,1,4,,,,,,,StimulusPr,Pictures\black.bmp,NonCuedStim2,Left
POP_2,27036,1,"<?xml version=""1.0""?>\n<Clock xmlns:dt=""urn:schemas-microsoft-com:datatypes""><Description dt:dt=""string"">E-Prime Primary Realtime Clock</Description><StartTime><Timestamp dt:dt=""int"">0</Timestamp><DateUtc dt:dt=""string"">2014-06-07T20:52:08Z</DateUtc></StartTime><FrequencyChanges><FrequencyChange><Frequency dt:dt=""r8"">2793040000</Frequency><Timestamp dt:dt=""r8"">1.03873834774072E+15</Timestamp><Current dt:dt=""r8"">0</Current><DateUtc dt:dt=""string"">2014-06-07T20:52:08Z</DateUtc></FrequencyChange></FrequencyChanges></Clock>\n",60.03,1,1065478072,0,,-999999,6,55755,t,31895,87650,6/7/2014,13:52:08,8:52:08 PM,1,Session1,SessionsList,,,,,,,,,,1,1,1,3,,,,,3,1,3,,,,NonCued2,MiniBlocks1,,398333,,,5,1,r,-999999,11,476660,r,376,477036,Green,Congruent,r,White,0,,0,15,469664,,0,0,,,,,,,,,,,,,Pictures\white.bmp,6000,4000,Pictures\GreenLeft.bmp,,,,5,1,5,,,,,,,StimulusPr,Pictures\black.bmp,NonCuedStim2,Left
POP_2,27036,1,"<?xml version=""1.0""?>\n<Clock xmlns:dt=""urn:schemas-microsoft-com:datatypes""><Description dt:dt=""string"">E-Prime Primary Realtime Clock</Description><StartTime><Timestamp dt:dt=""int"">0</Timestamp><DateUtc dt:dt=""string"">2014-06-07T20:52:08Z</DateUtc></StartTime><FrequencyChanges><FrequencyChange><Frequency dt:dt=""r8"">2793040000</Frequency><Timestamp dt:dt=""r8"">1.03873834774072E+15</Timestamp><Current dt:dt=""r8"">0</Current><DateUtc dt:dt=""string"">2014-06-07T20:52:08Z</DateUtc></FrequencyChange></FrequencyChanges></Clock>\n",60.03,1,1065478072,0,,-999999,6,55755,t,31895,87650,6/7/2014,13:52:08,8:52:08 PM,1,Session1,SessionsList,,,,,,,,,,1,1,1,3,,,,,3,1,3,,,,NonCued2,MiniBlocks1,,398333,,,6,1,b,-999999,6,486655,b,697,487352,Red,Incongruent,b,White,0,,0,8,482657,,0,0,,,,,,,,,,,,,Pictures\white.bmp,3000,4000,Pictures\RedLeft.bmp,,,,6,1,6,,,,,,,StimulusPr,Pictures\black.bmp,NonCuedStim2,Left
POP_2,27036,1,"<?xml version=""1.0""?>\n<Clock xmlns:dt=""urn:schemas-microsoft-com:datatypes""><Description dt:dt=""string"">E-Prime Primary Realtime Clock</Description><StartTime><Timestamp dt:dt=""int"">0</Timestamp><DateUtc dt:dt=""string"">2014-06-07T20:52:08Z</DateUtc></StartTime><FrequencyChanges><FrequencyChange><Frequency dt:dt=""r8"">2793040000</Frequency><Timestamp dt:dt=""r8"">1.03873834774072E+15</Timestamp><Current dt:dt=""r8"">0</Current><DateUtc dt:dt=""string"">2014-06-07T20:52:08Z</DateUtc></FrequencyChange></FrequencyChanges></Clock>\n",60.03,1,1065478072,0,,-999999,6,55755,t,31895,87650,6/7/2014,13:52:08,8:52:08 PM,1,Session1,SessionsList,,,,,,,,,,1,1,1,3,,,,,3,1,3,,,,NonCued2,MiniBlocks1,,398333,,,7,1,b,-999999,17,497666,b,572,498238,Green,Congruent,b,White,0,,0,3,492652,,0,0,,,,,,,,,,,,,Pictures\white.bmp,4000,16000,Pictures\black.bmp,,,,7,1,7,,,,,,,StimulusPr,Pictures\GreenRight.bmp,NonCuedStim2,Right
POP_2,27036,1,"<?xml version=""1.0""?>\n<Clock xmlns:dt=""urn:schemas-microsoft-com:datatypes""><Description dt:dt=""string"">E-Prime Primary Realtime Clock</Description><StartTime><Timestamp dt:dt=""int"">0</Timestamp><DateUtc dt:dt=""string"">2014-06-07T20:52:08Z</DateUtc></StartTime><FrequencyChanges><FrequencyChange><Frequency dt:dt=""r8"">2793040000</Frequency><Timestamp dt:dt=""r8"">1.03873834774072E+15</Timestamp><Current dt:dt=""r8"">0</Current><DateUtc dt:dt=""string"">2014-06-07T20:52:08Z</DateUtc></FrequencyChange></FrequencyChanges></Clock>\n",60.03,1,1065478072,0,,-999999,6,55755,t,31895,87650,6/7/2014,13:52:08,8:52:08 PM,1,Session1,SessionsList,,,,,,,,,,1,1,1,3,,,,,3,1,3,,,,NonCued2,MiniBlocks1,,398333,,,8,1,r,-999999,4,525652,r,619,526271,Green,Congruent,r,White,0,,0,9,515657,,0,0,,,,,,,,,,,,,Pictures\white.bmp,9000,2000,Pictures\GreenLeft.bmp,,,,8,1,8,,,,,,,StimulusPr,Pictures\black.bmp,NonCuedStim2,Left
POP_2,27036,1,"<?xml version=""1.0""?>\n<Clock xmlns:dt=""urn:schemas-microsoft-com:datatypes""><Description dt:dt=""string"">E-Prime Primary Realtime Clock</Description><StartTime><Timestamp dt:dt=""int"">0</Timestamp><DateUtc dt:dt=""string"">2014-06-07T20:52:08Z</DateUtc></StartTime><FrequencyChanges><FrequencyChange><Frequency dt:dt=""r8"">2793040000</Frequency><Timestamp dt:dt=""r8"">1.03873834774072E+15</Timestamp><Current dt:dt=""r8"">0</Current><DateUtc dt:dt=""string"">2014-06-07T20:52:08Z</DateUtc></FrequencyChange></FrequencyChanges></Clock>\n",60.03,1,1065478072,0,,-999999,6,55755,t,31895,87650,6/7/2014,13:52:08,8:52:08 PM,1,Session1,SessionsList,,,,,,,,,,1,1,1,3,,,,,3,1,3,,,,NonCued2,MiniBlocks1,,398333,,,9,1,b,-999999,16,533665,b,639,534304,Green,Congruent,b,White,0,,0,18,529667,,0,0,,,,,,,,,,,,,Pictures\white.bmp,3000,10000,Pictures\black.bmp,,,,9,1,9,,,,,,,StimulusPr,Pictures\GreenRight.bmp,NonCuedStim2,Right
POP_2,27036,1,"<?xml version=""1.0""?>\n<Clock xmlns:dt=""urn:schemas-microsoft-com:datatypes""><Description dt:dt=""string"">E-Prime Primary Realtime Clock</Description><StartTime><Timestamp dt:dt=""int"">0</Timestamp><DateUtc dt:dt=""string"">2014-06-07T20:52:08Z</DateUtc></StartTime><FrequencyChanges><FrequencyChange><Frequency dt:dt=""r8"">2793040000</Frequency><Timestamp dt:dt=""r8"">1.03873834774072E+15</Timestamp><Current dt:dt=""r8"">0</Current><DateUtc dt:dt=""string"">2014-06-07T20:52:08Z</DateUtc></FrequencyChange></FrequencyChanges></Clock>\n",60.03,1,1065478072,0,,-999999,6,55755,t,31895,87650,6/7/2014,13:52:08,8:52:08 PM,1,Session1,SessionsList,,,,,,,,,,1,1,1,3,,,,,3,1,3,,,,NonCued2,MiniBlocks1,,398333,,,10,1,b,-999999,8,549657,b,393,550050,Green,Congruent,b,White,0,,0,10,545659,,0,0,,,,,,,,,,,,,Pictures\white.bmp,3000,2000,Pictures\black.bmp,,,,10,1,10,,,,,,,StimulusPr,Pictures\GreenRight.bmp,NonCuedStim2,Right
POP_2,27036,1,"<?xml version=""1.0""?>\n<Clock xmlns:dt=""urn:schemas-microsoft-com:datatypes""><Description dt:dt=""string"">E-Prime Primary Realtime Clock</Description><StartTime><Timestamp dt:dt=""int"">0</Timestamp><DateUtc dt:dt=""string"">2014-06-07T20:52:08Z</DateUtc></StartTime><FrequencyChanges><FrequencyChange><Frequency dt:dt=""r8"">2793040000</Frequency><Timestamp dt:dt=""r8"">1.03873834774072E+15</Timestamp><Current dt:dt=""r8"">0</Current><DateUtc dt:dt=""string"">2014-06-07T20:52:08Z</DateUtc></FrequencyChange></FrequencyChanges></Clock>\n",60.03,1,1065478072,0,,-999999,6,55755,t,31895,87650,6/7/2014,13:52:08,8:52:08 PM,1,Session1,SessionsList,,,,,,,,,,1,1,1,4,,552072,,,4,1,4,,,,Cued2,MiniBlocks1,,,,,1,1,b,-999999,15,568664,b,406,569070,White,Congruent,b,Green,0,,0,2,561651,,0,0,,,,1,1,1,,,,,,,Pictures\green.bmp,6000,4000,Pictures\black.bmp,,,,,,,,,,,,,StimulusPr,Pictures\right.bmp,CuedStim2,Right
POP_2,27036,1,"<?xml version=""1.0""?>\n<Clock xmlns:dt=""urn:schemas-microsoft-com:datatypes""><Description dt:dt=""string"">E-Prime Primary Realtime Clock</Description><StartTime><Timestamp dt:dt=""int"">0</Timestamp><DateUtc dt:dt=""string"">2014-06-07T20:52:08Z</DateUtc></StartTime><FrequencyChanges><FrequencyChange><Frequency dt:dt=""r8"">2793040000</Frequency><Timestamp dt:dt=""r8"">1.03873834774072E+15</Timestamp><Current dt:dt=""r8"">0</Current><DateUtc dt:dt=""string"">2014-06-07T20:52:08Z</DateUtc></FrequencyChange></FrequencyChanges></Clock>\n",60.03,1,1065478072,0,,-999999,6,55755,t,31895,87650,6/7/2014,13:52:08,8:52:08 PM,1,Session1,SessionsList,,,,,,,,,,1,1,1,4,,552072,,,4,1,4,,,,Cued2,MiniBlocks1,,,,,2,1,b,-999999,8,584656,b,530,585186,White,Congruent,b,Green,0,,0,13,574661,,0,0,,,,2,1,2,,,,,,,Pictures\green.bmp,9000,10000,Pictures\black.bmp,,,,,,,,,,,,,StimulusPr,Pictures\right.bmp,CuedStim2,Right
POP_2,27036,1,"<?xml version=""1.0""?>\n<Clock xmlns:dt=""urn:schemas-microsoft-com:datatypes""><Description dt:dt=""string"">E-Prime Primary Realtime Clock</Description><StartTime><Timestamp dt:dt=""int"">0</Timestamp><DateUtc dt:dt=""string"">2014-06-07T20:52:08Z</DateUtc></StartTime><FrequencyChanges><FrequencyChange><Frequency dt:dt=""r8"">2793040000</Frequency><Timestamp dt:dt=""r8"">1.03873834774072E+15</Timestamp><Current dt:dt=""r8"">0</Current><DateUtc dt:dt=""string"">2014-06-07T20:52:08Z</DateUtc></FrequencyChange></FrequencyChanges></Clock>\n",60.03,1,1065478072,0,,-999999,6,55755,t,31895,87650,6/7/2014,13:52:08,8:52:08 PM,1,Session1,SessionsList,,,,,,,,,,1,1,1,4,,552072,,,4,1,4,,,,Cued2,MiniBlocks1,,,,,3,1,r,-999999,16,600664,r,524,601188,White,Incongruent,r,Red,0,,0,2,596650,,0,0,,,,3,1,3,,,,,,,Pictures\red.bmp,3000,2000,Pictures\black.bmp,,,,,,,,,,,,,StimulusPr,Pictures\right.bmp,CuedStim2,Right
POP_2,27036,1,"<?xml version=""1.0""?>\n<Clock xmlns:dt=""urn:schemas-microsoft-com:datatypes""><Description dt:dt=""string"">E-Prime Primary Realtime Clock</Description><StartTime><Timestamp dt:dt=""int"">0</Timestamp><DateUtc dt:dt=""string"">2014-06-07T20:52:08Z</DateUtc></StartTime><FrequencyChanges><FrequencyChange><Frequency dt:dt=""r8"">2793040000</Frequency><Timestamp dt:dt=""r8"">1.03873834774072E+15</Timestamp><Current dt:dt=""r8"">0</Current><DateUtc dt:dt=""string"">2014-06-07T20:52:08Z</DateUtc></FrequencyChange></FrequencyChanges></Clock>\n",60.03,1,1065478072,0,,-999999,6,55755,t,31895,87650,6/7/2014,13:52:08,8:52:08 PM,1,Session1,SessionsList,,,,,,,,,,1,1,1,4,,552072,,,4,1,4,,,,Cued2,MiniBlocks1,,,,,4,1,r,-999999,11,611659,r,602,612261,White,Congruent,r,Green,0,,0,14,604662,,0,0,,,,4,1,4,,,,,,,Pictures\green.bmp,6000,16000,Pictures\left.bmp,,,,,,,,,,,,,StimulusPr,Pictures\black.bmp,CuedStim2,Left
POP_2,27036,1,"<?xml version=""1.0""?>\n<Clock xmlns:dt=""urn:schemas-microsoft-com:datatypes""><Description dt:dt=""string"">E-Prime Primary Realtime Clock</Description><StartTime><Timestamp dt:dt=""int"">0</Timestamp><DateUtc dt:dt=""string"">2014-06-07T20:52:08Z</DateUtc></StartTime><FrequencyChanges><FrequencyChange><Frequency dt:dt=""r8"">2793040000</Frequency><Timestamp dt:dt=""r8"">1.03873834774072E+15</Timestamp><Current dt:dt=""r8"">0</Current><DateUtc dt:dt=""string"">2014-06-07T20:52:08Z</DateUtc></FrequencyChange></FrequencyChanges></Clock>\n",60.03,1,1065478072,0,,-999999,6,55755,t,31895,87650,6/7/2014,13:52:08,8:52:08 PM,1,Session1,SessionsList,,,,,,,,,,1,1,1,4,,552072,,,4,1,4,,,,Cued2,MiniBlocks1,,,,,5,1,b,-999999,16,633665,b,392,634057,White,Congruent,b,Green,0,,0,2,629651,,0,0,,,,5,1,5,,,,,,,Pictures\green.bmp,3000,2000,Pictures\black.bmp,,,,,,,,,,,,,StimulusPr,Pictures\right.bmp,CuedStim2,Right
POP_2,27036,1,"<?xml version=""1.0""?>\n<Clock xmlns:dt=""urn:schemas-microsoft-com:datatypes""><Description dt:dt=""string"">E-Prime Primary Realtime Clock</Description><StartTime><Timestamp dt:dt=""int"">0</Timestamp><DateUtc dt:dt=""string"">2014-06-07T20:52:08Z</DateUtc></StartTime><FrequencyChanges><FrequencyChange><Frequency dt:dt=""r8"">2793040000</Frequency><Timestamp dt:dt=""r8"">1.03873834774072E+15</Timestamp><Current dt:dt=""r8"">0</Current><DateUtc dt:dt=""string"">2014-06-07T20:52:08Z</DateUtc></FrequencyChange></FrequencyChanges></Clock>\n",60.03,1,1065478072,0,,-999999,6,55755,t,31895,87650,6/7/2014,13:52:08,8:52:08 PM,1,Session1,SessionsList,,,,,,,,,,1,1,1,4,,552072,,,4,1,4,,,,Cued2,MiniBlocks1,,,,,6,1,r,-999999,13,641661,r,390,642051,White,Congruent,r,Green,0,,0,14,637663,,0,0,,,,6,1,6,,,,,,,Pictures\green.bmp,3000,2000,Pictures\left.bmp,,,,,,,,,,,,,StimulusPr,Pictures\black.bmp,CuedStim2,Left
POP_2,27036,1,"<?xml version=""1.0""?>\n<Clock xmlns:dt=""urn:schemas-microsoft-com:datatypes""><Description dt:dt=""string"">E-Prime Primary Realtime Clock</Description><StartTime><Timestamp dt:dt=""int"">0</Timestamp><DateUtc dt:dt=""string"">2014-06-07T20:52:08Z</DateUtc></StartTime><FrequencyChanges><FrequencyChange><Frequency dt:dt=""r8"">2793040000</Frequency><Timestamp dt:dt=""r8"">1.03873834774072E+15</Timestamp><Current dt:dt=""r8"">0</Current><DateUtc dt:dt=""string"">2014-06-07T20:52:08Z</DateUtc></FrequencyChange></FrequencyChanges></Clock>\n",60.03,1,1065478072,0,,-999999,6,55755,t,31895,87650,6/7/2014,13:52:08,8:52:08 PM,1,Session1,SessionsList,,,,,,,,,,1,1,1,4,,552072,,,4,1,4,,,,Cued2,MiniBlocks1,,,,,7,1,b,-999999,7,652655,b,459,653114,White,Incongruent,b,Red,0,,0,10,645659,,0,0,,,,7,1,7,,,,,,,Pictures\red.bmp,6000,4000,Pictures\left.bmp,,,,,,,,,,,,,StimulusPr,Pictures\black.bmp,CuedStim2,Left
POP_2,27036,1,"<?xml version=""1.0""?>\n<Clock xmlns:dt=""urn:schemas-microsoft-com:datatypes""><Description dt:dt=""string"">E-Prime Primary Realtime Clock</Description><StartTime><Timestamp dt:dt=""int"">0</Timestamp><DateUtc dt:dt=""string"">2014-06-07T20:52:08Z</DateUtc></StartTime><FrequencyChanges><FrequencyChange><Frequency dt:dt=""r8"">2793040000</Frequency><Timestamp dt:dt=""r8"">1.03873834774072E+15</Timestamp><Current dt:dt=""r8"">0</Current><DateUtc dt:dt=""string"">2014-06-07T20:52:08Z</DateUtc></FrequencyChange></FrequencyChanges></Clock>\n",60.03,1,1065478072,0,,-999999,6,55755,t,31895,87650,6/7/2014,13:52:08,8:52:08 PM,1,Session1,SessionsList,,,,,,,,,,1,1,1,4,,552072,,,4,1,4,,,,Cued2,MiniBlocks1,,,,,8,1,b,-999999,17,663666,b,546,664212,White,Congruent,b,Green,0,,0,3,658652,,0,0,,,,8,1,8,,,,,,,Pictures\green.bmp,4000,4000,Pictures\black.bmp,,,,,,,,,,,,,StimulusPr,Pictures\right.bmp,CuedStim2,Right
POP_2,27036,1,"<?xml version=""1.0""?>\n<Clock xmlns:dt=""urn:schemas-microsoft-com:datatypes""><Description dt:dt=""string"">E-Prime Primary Realtime Clock</Description><StartTime><Timestamp dt:dt=""int"">0</Timestamp><DateUtc dt:dt=""string"">2014-06-07T20:52:08Z</DateUtc></StartTime><FrequencyChanges><FrequencyChange><Frequency dt:dt=""r8"">2793040000</Frequency><Timestamp dt:dt=""r8"">1.03873834774072E+15</Timestamp><Current dt:dt=""r8"">0</Current><DateUtc dt:dt=""string"">2014-06-07T20:52:08Z</DateUtc></FrequencyChange></FrequencyChanges></Clock>\n",60.03,1,1065478072,0,,-999999,6,55755,t,31895,87650,6/7/2014,13:52:08,8:52:08 PM,1,Session1,SessionsList,,,,,,,,,,1,1,1,4,,552072,,,4,1,4,,,,Cued2,MiniBlocks1,,,,,9,1,b,-999999,10,679658,b,761,680419,White,Incongruent,b,Red,0,,0,15,669663,,0,0,,,,9,1,9,,,,,,,Pictures\red.bmp,9000,10000,Pictures\left.bmp,,,,,,,,,,,,,StimulusPr,Pictures\black.bmp,CuedStim2,Left
POP_2,27036,1,"<?xml version=""1.0""?>\n<Clock xmlns:dt=""urn:schemas-microsoft-com:datatypes""><Description dt:dt=""string"">E-Prime Primary Realtime Clock</Description><StartTime><Timestamp dt:dt=""int"">0</Timestamp><DateUtc dt:dt=""string"">2014-06-07T20:52:08Z</DateUtc></StartTime><FrequencyChanges><FrequencyChange><Frequency dt:dt=""r8"">2793040000</Frequency><Timestamp dt:dt=""r8"">1.03873834774072E+15</Timestamp><Current dt:dt=""r8"">0</Current><DateUtc dt:dt=""string"">2014-06-07T20:52:08Z</DateUtc></FrequencyChange></FrequencyChanges></Clock>\n",60.03,1,1065478072,0,,-999999,6,55755,t,31895,87650,6/7/2014,13:52:08,8:52:08 PM,1,Session1,SessionsList,,,,,,,,,,1,1,1,4,,552072,,,4,1,4,,,,Cued2,MiniBlocks1,,,,,10,1,r,-999999,16,701664,r,396,702060,White,Congruent,r,Green,0,,0,4,691652,,0,0,,,,10,1,10,,,,,,,Pictures\green.bmp,9000,10000,Pictures\left.bmp,,,,,,,,,,,,,StimulusPr,Pictures\black.bmp,CuedStim2,Left
POP_2,27036,1,"<?xml version=""1.0""?>\n<Clock xmlns:dt=""urn:schemas-microsoft-com:datatypes""><Description dt:dt=""string"">E-Prime Primary Realtime Clock</Description><StartTime><Timestamp dt:dt=""int"">0</Timestamp><DateUtc dt:dt=""string"">2014-06-07T20:52:08Z</DateUtc></StartTime><FrequencyChanges><FrequencyChange><Frequency dt:dt=""r8"">2793040000</Frequency><Timestamp dt:dt=""r8"">1.03873834774072E+15</Timestamp><Current dt:dt=""r8"">0</Current><DateUtc dt:dt=""string"">2014-06-07T20:52:08Z</DateUtc></FrequencyChange></FrequencyChanges></Clock>\n",60.03,1,1065478072,0,,-999999,6,55755,t,31895,87650,6/7/2014,13:52:08,8:52:08 PM,2,Session2,SessionsList,0,,-999999,6,736046,t,33335,769381,712075,2,1,2,1,,,,,,,,1,1,1,NonCued3,MiniBlocks2,,,769396,,1,1,b,-999999,5,789386,b,393,789779,Green,Congruent,b,White,0,,0,13,779391,,0,0,,,,,,,,,,,,,Pictures\white.bmp,9000,10000,Pictures\black.bmp,,,,,,,1,1,1,,,,StimulusPr,Pictures\GreenRight.bmp,NonCuedStim3,Right
POP_2,27036,1,"<?xml version=""1.0""?>\n<Clock xmlns:dt=""urn:schemas-microsoft-com:datatypes""><Description dt:dt=""string"">E-Prime Primary Realtime Clock</Description><StartTime><Timestamp dt:dt=""int"">0</Timestamp><DateUtc dt:dt=""string"">2014-06-07T20:52:08Z</DateUtc></StartTime><FrequencyChanges><FrequencyChange><Frequency dt:dt=""r8"">2793040000</Frequency><Timestamp dt:dt=""r8"">1.03873834774072E+15</Timestamp><Current dt:dt=""r8"">0</Current><DateUtc dt:dt=""string"">2014-06-07T20:52:08Z</DateUtc></FrequencyChange></FrequencyChanges></Clock>\n",60.03,1,1065478072,0,,-999999,6,55755,t,31895,87650,6/7/2014,13:52:08,8:52:08 PM,2,Session2,SessionsList,0,,-999999,6,736046,t,33335,769381,712075,2,1,2,1,,,,,,,,1,1,1,NonCued3,MiniBlocks2,,,769396,,2,1,r,-999999,11,811392,r,624,812016,Red,Incongruent,r,White,0,,0,17,801397,,0,0,,,,,,,,,,,,,Pictures\white.bmp,9000,10000,Pictures\black.bmp,,,,,,,2,1,2,,,,StimulusPr,Pictures\RedRight.bmp,NonCuedStim3,Right
POP_2,27036,1,"<?xml version=""1.0""?>\n<Clock xmlns:dt=""urn:schemas-microsoft-com:datatypes""><Description dt:dt=""string"">E-Prime Primary Realtime Clock</Description><StartTime><Timestamp dt:dt=""int"">0</Timestamp><DateUtc dt:dt=""string"">2014-06-07T20:52:08Z</DateUtc></StartTime><FrequencyChanges><FrequencyChange><Frequency dt:dt=""r8"">2793040000</Frequency><Timestamp dt:dt=""r8"">1.03873834774072E+15</Timestamp><Current dt:dt=""r8"">0</Current><DateUtc dt:dt=""string"">2014-06-07T20:52:08Z</DateUtc></FrequencyChange></FrequencyChanges></Clock>\n",60.03,1,1065478072,0,,-999999,6,55755,t,31895,87650,6/7/2014,13:52:08,8:52:08 PM,2,Session2,SessionsList,0,,-999999,6,736046,t,33335,769381,712075,2,1,2,1,,,,,,,,1,1,1,NonCued3,MiniBlocks2,,,769396,,3,0,r,-999999,3,828383,b,552,828935,Green,Congruent,r,White,0,,0,6,823386,,0,0,,,,,,,,,,,,,Pictures\white.bmp,4000,4000,Pictures\GreenLeft.bmp,,,,,,,3,1,3,,,,StimulusPr,Pictures\black.bmp,NonCuedStim3,Left
POP_2,27036,1,"<?xml version=""1.0""?>\n<Clock xmlns:dt=""urn:schemas-microsoft-com:datatypes""><Description dt:dt=""string"">E-Prime Primary Realtime Clock</Description><StartTime><Timestamp dt:dt=""int"">0</Timestamp><DateUtc dt:dt=""string"">2014-06-07T20:52:08Z</DateUtc></StartTime><FrequencyChanges><FrequencyChange><Frequency dt:dt=""r8"">2793040000</Frequency><Timestamp dt:dt=""r8"">1.03873834774072E+15</Timestamp><Current dt:dt=""r8"">0</Current><DateUtc dt:dt=""string"">2014-06-07T20:52:08Z</DateUtc></FrequencyChange></FrequencyChanges></Clock>\n",60.03,1,1065478072,0,,-999999,6,55755,t,31895,87650,6/7/2014,13:52:08,8:52:08 PM,2,Session2,SessionsList,0,,-999999,6,736046,t,33335,769381,712075,2,1,2,1,,,,,,,,1,1,1,NonCued3,MiniBlocks2,,,769396,,4,1,b,-999999,13,841393,b,469,841862,Red,Incongruent,b,White,0,,0,17,834397,,0,0,,,,,,,,,,,,,Pictures\white.bmp,6000,4000,Pictures\RedLeft.bmp,,,,,,,4,1,4,,,,StimulusPr,Pictures\black.bmp,NonCuedStim3,Left
POP_2,27036,1,"<?xml version=""1.0""?>\n<Clock xmlns:dt=""urn:schemas-microsoft-com:datatypes""><Description dt:dt=""string"">E-Prime Primary Realtime Clock</Description><StartTime><Timestamp dt:dt=""int"">0</Timestamp><DateUtc dt:dt=""string"">2014-06-07T20:52:08Z</DateUtc></StartTime><FrequencyChanges><FrequencyChange><Frequency dt:dt=""r8"">2793040000</Frequency><Timestamp dt:dt=""r8"">1.03873834774072E+15</Timestamp><Current dt:dt=""r8"">0</Current><DateUtc dt:dt=""string"">2014-06-07T20:52:08Z</DateUtc></FrequencyChange></FrequencyChanges></Clock>\n",60.03,1,1065478072,0,,-999999,6,55755,t,31895,87650,6/7/2014,13:52:08,8:52:08 PM,2,Session2,SessionsList,0,,-999999,6,736046,t,33335,769381,712075,2,1,2,1,,,,,,,,1,1,1,NonCued3,MiniBlocks2,,,769396,,5,1,b,-999999,7,851388,b,570,851958,Green,Congruent,b,White,0,,0,10,847390,,0,0,,,,,,,,,,,,,Pictures\white.bmp,3000,2000,Pictures\black.bmp,,,,,,,5,1,5,,,,StimulusPr,Pictures\GreenRight.bmp,NonCuedStim3,Right
POP_2,27036,1,"<?xml version=""1.0""?>\n<Clock xmlns:dt=""urn:schemas-microsoft-com:datatypes""><Description dt:dt=""string"">E-Prime Primary Realtime Clock</Description><StartTime><Timestamp dt:dt=""int"">0</Timestamp><DateUtc dt:dt=""string"">2014-06-07T20:52:08Z</DateUtc></StartTime><FrequencyChanges><FrequencyChange><Frequency dt:dt=""r8"">2793040000</Frequency><Timestamp dt:dt=""r8"">1.03873834774072E+15</Timestamp><Current dt:dt=""r8"">0</Current><DateUtc dt:dt=""string"">2014-06-07T20:52:08Z</DateUtc></FrequencyChange></FrequencyChanges></Clock>\n",60.03,1,1065478072,0,,-999999,6,55755,t,31895,87650,6/7/2014,13:52:08,8:52:08 PM,2,Session2,SessionsList,0,,-999999,6,736046,t,33335,769381,712075,2,1,2,1,,,,,,,,1,1,1,NonCued3,MiniBlocks2,,,769396,,6,1,r,-999999,4,859384,r,607,859991,Green,Congruent,r,White,0,,0,5,855386,,0,0,,,,,,,,,,,,,Pictures\white.bmp,3000,2000,Pictures\GreenLeft.bmp,,,,,,,6,1,6,,,,StimulusPr,Pictures\black.bmp,NonCuedStim3,Left
POP_2,27036,1,"<?xml version=""1.0""?>\n<Clock xmlns:dt=""urn:schemas-microsoft-com:datatypes""><Description dt:dt=""string"">E-Prime Primary Realtime Clock</Description><StartTime><Timestamp dt:dt=""int"">0</Timestamp><DateUtc dt:dt=""string"">2014-06-07T20:52:08Z</DateUtc></StartTime><FrequencyChanges><FrequencyChange><Frequency dt:dt=""r8"">2793040000</Frequency><Timestamp dt:dt=""r8"">1.03873834774072E+15</Timestamp><Current dt:dt=""r8"">0</Current><DateUtc dt:dt=""string"">2014-06-07T20:52:08Z</DateUtc></FrequencyChange></FrequencyChanges></Clock>\n",60.03,1,1065478072,0,,-999999,6,55755,t,31895,87650,6/7/2014,13:52:08,8:52:08 PM,2,Session2,SessionsList,0,,-999999,6,736046,t,33335,769381,712075,2,1,2,1,,,,,,,,1,1,1,NonCued3,MiniBlocks2,,,769396,,7,1,b,-999999,16,870396,b,633,871029,Green,Congruent,b,White,0,,0,2,863383,,0,0,,,,,,,,,,,,,Pictures\white.bmp,6000,16000,Pictures\black.bmp,,,,,,,7,1,7,,,,StimulusPr,Pictures\GreenRight.bmp,NonCuedStim3,Right
POP_2,27036,1,"<?xml version=""1.0""?>\n<Clock xmlns:dt=""urn:schemas-microsoft-com:datatypes""><Description dt:dt=""string"">E-Prime Primary Realtime Clock</Description><StartTime><Timestamp dt:dt=""int"">0</Timestamp><DateUtc dt:dt=""string"">2014-06-07T20:52:08Z</DateUtc></StartTime><FrequencyChanges><FrequencyChange><Frequency dt:dt=""r8"">2793040000</Frequency><Timestamp dt:dt=""r8"">1.03873834774072E+15</Timestamp><Current dt:dt=""r8"">0</Current><DateUtc dt:dt=""string"">2014-06-07T20:52:08Z</DateUtc></FrequencyChange></FrequencyChanges></Clock>\n",60.03,1,1065478072,0,,-999999,6,55755,t,31895,87650,6/7/2014,13:52:08,8:52:08 PM,2,Session2,SessionsList,0,,-999999,6,736046,t,33335,769381,712075,2,1,2,1,,,,,,,,1,1,1,NonCued3,MiniBlocks2,,,769396,,8,1,r,-999999,4,892384,r,621,893005,Red,Incongruent,r,White,0,,0,7,888387,,0,0,,,,,,,,,,,,,Pictures\white.bmp,3000,2000,Pictures\black.bmp,,,,,,,8,1,8,,,,StimulusPr,Pictures\RedRight.bmp,NonCuedStim3,Right
POP_2,27036,1,"<?xml version=""1.0""?>\n<Clock xmlns:dt=""urn:schemas-microsoft-com:datatypes""><Description dt:dt=""string"">E-Prime Primary Realtime Clock</Description><StartTime><Timestamp dt:dt=""int"">0</Timestamp><DateUtc dt:dt=""string"">2014-06-07T20:52:08Z</DateUtc></StartTime><FrequencyChanges><FrequencyChange><Frequency dt:dt=""r8"">2793040000</Frequency><Timestamp dt:dt=""r8"">1.03873834774072E+15</Timestamp><Current dt:dt=""r8"">0</Current><DateUtc dt:dt=""string"">2014-06-07T20:52:08Z</DateUtc></FrequencyChange></FrequencyChanges></Clock>\n",60.03,1,1065478072,0,,-999999,6,55755,t,31895,87650,6/7/2014,13:52:08,8:52:08 PM,2,Session2,SessionsList,0,,-999999,6,736046,t,33335,769381,712075,2,1,2,1,,,,,,,,1,1,1,NonCued3,MiniBlocks2,,,769396,,9,1,r,-999999,14,906394,r,406,906800,Green,Congruent,r,White,0,,0,3,896383,,0,0,,,,,,,,,,,,,Pictures\white.bmp,9000,10000,Pictures\GreenLeft.bmp,,,,,,,9,1,9,,,,StimulusPr,Pictures\black.bmp,NonCuedStim3,Left
POP_2,27036,1,"<?xml version=""1.0""?>\n<Clock xmlns:dt=""urn:schemas-microsoft-com:datatypes""><Description dt:dt=""string"">E-Prime Primary Realtime Clock</Description><StartTime><Timestamp dt:dt=""int"">0</Timestamp><DateUtc dt:dt=""string"">2014-06-07T20:52:08Z</DateUtc></StartTime><FrequencyChanges><FrequencyChange><Frequency dt:dt=""r8"">2793040000</Frequency><Timestamp dt:dt=""r8"">1.03873834774072E+15</Timestamp><Current dt:dt=""r8"">0</Current><DateUtc dt:dt=""string"">2014-06-07T20:52:08Z</DateUtc></FrequencyChange></FrequencyChanges></Clock>\n",60.03,1,1065478072,0,,-999999,6,55755,t,31895,87650,6/7/2014,13:52:08,8:52:08 PM,2,Session2,SessionsList,0,,-999999,6,736046,t,33335,769381,712075,2,1,2,1,,,,,,,,1,1,1,NonCued3,MiniBlocks2,,,769396,,10,1,r,-999999,6,925385,r,452,925837,Green,Congruent,r,White,0,,0,8,918388,,0,0,,,,,,,,,,,,,Pictures\white.bmp,6000,4000,Pictures\GreenLeft.bmp,,,,,,,10,1,10,,,,StimulusPr,Pictures\black.bmp,NonCuedStim3,Left
POP_2,27036,1,"<?xml version=""1.0""?>\n<Clock xmlns:dt=""urn:schemas-microsoft-com:datatypes""><Description dt:dt=""string"">E-Prime Primary Realtime Clock</Description><StartTime><Timestamp dt:dt=""int"">0</Timestamp><DateUtc dt:dt=""string"">2014-06-07T20:52:08Z</DateUtc></StartTime><FrequencyChanges><FrequencyChange><Frequency dt:dt=""r8"">2793040000</Frequency><Timestamp dt:dt=""r8"">1.03873834774072E+15</Timestamp><Current dt:dt=""r8"">0</Current><DateUtc dt:dt=""string"">2014-06-07T20:52:08Z</DateUtc></FrequencyChange></FrequencyChanges></Clock>\n",60.03,1,1065478072,0,,-999999,6,55755,t,31895,87650,6/7/2014,13:52:08,8:52:08 PM,2,Session2,SessionsList,0,,-999999,6,736046,t,33335,769381,712075,2,1,2,2,,,929866,,,,,2,1,2,Cued3,MiniBlocks2,,,,,1,1,b,-999999,12,944392,b,412,944804,White,Congruent,b,Green,0,,0,14,940394,,0,0,,,,,,,1,1,1,,,,Pictures\green.bmp,3000,2000,Pictures\black.bmp,,,,,,,,,,,,,StimulusPr,Pictures\right.bmp,CuedStim3,Right
POP_2,27036,1,"<?xml version=""1.0""?>\n<Clock xmlns:dt=""urn:schemas-microsoft-com:datatypes""><Description dt:dt=""string"">E-Prime Primary Realtime Clock</Description><StartTime><Timestamp dt:dt=""int"">0</Timestamp><DateUtc dt:dt=""string"">2014-06-07T20:52:08Z</DateUtc></StartTime><FrequencyChanges><FrequencyChange><Frequency dt:dt=""r8"">2793040000</Frequency><Timestamp dt:dt=""r8"">1.03873834774072E+15</Timestamp><Current dt:dt=""r8"">0</Current><DateUtc dt:dt=""string"">2014-06-07T20:52:08Z</DateUtc></FrequencyChange></FrequencyChanges></Clock>\n",60.03,1,1065478072,0,,-999999,6,55755,t,31895,87650,6/7/2014,13:52:08,8:52:08 PM,2,Session2,SessionsList,0,,-999999,6,736046,t,33335,769381,712075,2,1,2,2,,,929866,,,,,2,1,2,Cued3,MiniBlocks2,,,,,2,1,b,-999999,8,952388,b,422,952810,White,Congruent,b,Green,0,,0,10,948390,,0,0,,,,,,,2,1,2,,,,Pictures\green.bmp,3000,10000,Pictures\black.bmp,,,,,,,,,,,,,StimulusPr,Pictures\right.bmp,CuedStim3,Right
POP_2,27036,1,"<?xml version=""1.0""?>\n<Clock xmlns:dt=""urn:schemas-microsoft-com:datatypes""><Description dt:dt=""string"">E-Prime Primary Realtime Clock</Description><StartTime><Timestamp dt:dt=""int"">0</Timestamp><DateUtc dt:dt=""string"">2014-06-07T20:52:08Z</DateUtc></StartTime><FrequencyChanges><FrequencyChange><Frequency dt:dt=""r8"">2793040000</Frequency><Timestamp dt:dt=""r8"">1.03873834774072E+15</Timestamp><Current dt:dt=""r8"">0</Current><DateUtc dt:dt=""string"">2014-06-07T20:52:08Z</DateUtc></FrequencyChange></FrequencyChanges></Clock>\n",60.03,1,1065478072,0,,-999999,6,55755,t,31895,87650,6/7/2014,13:52:08,8:52:08 PM,2,Session2,SessionsList,0,,-999999,6,736046,t,33335,769381,712075,2,1,2,2,,,929866,,,,,2,1,2,Cued3,MiniBlocks2,,,,,3,1,r,-999999,13,974393,r,548,974941,White,Congruent,r,Green,0,,0,2,964382,,0,0,,,,,,,3,1,3,,,,Pictures\green.bmp,9000,2000,Pictures\left.bmp,,,,,,,,,,,,,StimulusPr,Pictures\black.bmp,CuedStim3,Left
POP_2,27036,1,"<?xml version=""1.0""?>\n<Clock xmlns:dt=""urn:schemas-microsoft-com:datatypes""><Description dt:dt=""string"">E-Prime Primary Realtime Clock</Description><StartTime><Timestamp dt:dt=""int"">0</Timestamp><DateUtc dt:dt=""string"">2014-06-07T20:52:08Z</DateUtc></StartTime><FrequencyChanges><FrequencyChange><Frequency dt:dt=""r8"">2793040000</Frequency><Timestamp dt:dt=""r8"">1.03873834774072E+15</Timestamp><Current dt:dt=""r8"">0</Current><DateUtc dt:dt=""string"">2014-06-07T20:52:08Z</DateUtc></FrequencyChange></FrequencyChanges></Clock>\n",60.03,1,1065478072,0,,-999999,6,55755,t,31895,87650,6/7/2014,13:52:08,8:52:08 PM,2,Session2,SessionsList,0,,-999999,6,736046,t,33335,769381,712075,2,1,2,2,,,929866,,,,,2,1,2,Cued3,MiniBlocks2,,,,,4,1,r,-999999,9,983389,r,395,983784,White,Congruent,r,Green,0,,0,11,978391,,0,0,,,,,,,4,1,4,,,,Pictures\green.bmp,4000,16000,Pictures\left.bmp,,,,,,,,,,,,,StimulusPr,Pictures\black.bmp,CuedStim3,Left
POP_2,27036,1,"<?xml version=""1.0""?>\n<Clock xmlns:dt=""urn:schemas-microsoft-com:datatypes""><Description dt:dt=""string"">E-Prime Primary Realtime Clock</Description><StartTime><Timestamp dt:dt=""int"">0</Timestamp><DateUtc dt:dt=""string"">2014-06-07T20:52:08Z</DateUtc></StartTime><FrequencyChanges><FrequencyChange><Frequency dt:dt=""r8"">2793040000</Frequency><Timestamp dt:dt=""r8"">1.03873834774072E+15</Timestamp><Current dt:dt=""r8"">0</Current><DateUtc dt:dt=""string"">2014-06-07T20:52:08Z</DateUtc></FrequencyChange></FrequencyChanges></Clock>\n",60.03,1,1065478072,0,,-999999,6,55755,t,31895,87650,6/7/2014,13:52:08,8:52:08 PM,2,Session2,SessionsList,0,,-999999,6,736046,t,33335,769381,712075,2,1,2,2,,,929866,,,,,2,1,2,Cued3,MiniBlocks2,,,,,5,1,r,-999999,15,1005394,r,508,1005902,White,Incongruent,r,Red,0,,0,16,1001396,,0,0,,,,,,,5,1,5,,,,Pictures\red.bmp,3000,4000,Pictures\black.bmp,,,,,,,,,,,,,StimulusPr,Pictures\right.bmp,CuedStim3,Right
POP_2,27036,1,"<?xml version=""1.0""?>\n<Clock xmlns:dt=""urn:schemas-microsoft-com:datatypes""><Description dt:dt=""string"">E-Prime Primary Realtime Clock</Description><StartTime><Timestamp dt:dt=""int"">0</Timestamp><DateUtc dt:dt=""string"">2014-06-07T20:52:08Z</DateUtc></StartTime><FrequencyChanges><FrequencyChange><Frequency dt:dt=""r8"">2793040000</Frequency><Timestamp dt:dt=""r8"">1.03873834774072E+15</Timestamp><Current dt:dt=""r8"">0</Current><DateUtc dt:dt=""string"">2014-06-07T20:52:08Z</DateUtc></FrequencyChange></FrequencyChanges></Clock>\n",60.03,1,1065478072,0,,-999999,6,55755,t,31895,87650,6/7/2014,13:52:08,8:52:08 PM,2,Session2,SessionsList,0,,-999999,6,736046,t,33335,769381,712075,2,1,2,2,,,929866,,,,,2,1,2,Cued3,MiniBlocks2,,,,,6,1,b,-999999,9,1018388,b,397,1018785,White,Congruent,b,Green,0,,0,12,1011391,,0,0,,,,,,,6,1,6,,,,Pictures\green.bmp,6000,4000,Pictures\black.bmp,,,,,,,,,,,,,StimulusPr,Pictures\right.bmp,CuedStim3,Right
POP_2,27036,1,"<?xml version=""1.0""?>\n<Clock xmlns:dt=""urn:schemas-microsoft-com:datatypes""><Description dt:dt=""string"">E-Prime Primary Realtime Clock</Description><StartTime><Timestamp dt:dt=""int"">0</Timestamp><DateUtc dt:dt=""string"">2014-06-07T20:52:08Z</DateUtc></StartTime><FrequencyChanges><FrequencyChange><Frequency dt:dt=""r8"">2793040000</Frequency><Timestamp dt:dt=""r8"">1.03873834774072E+15</Timestamp><Current dt:dt=""r8"">0</Current><DateUtc dt:dt=""string"">2014-06-07T20:52:08Z</DateUtc></FrequencyChange></FrequencyChanges></Clock>\n",60.03,1,1065478072,0,,-999999,6,55755,t,31895,87650,6/7/2014,13:52:08,8:52:08 PM,2,Session2,SessionsList,0,,-999999,6,736046,t,33335,769381,712075,2,1,2,2,,,929866,,,,,2,1,2,Cued3,MiniBlocks2,,,,,7,1,r,-999999,3,1029383,r,390,1029773,White,Congruent,r,Green,0,,0,5,1024385,,0,0,,,,,,,7,1,7,,,,Pictures\green.bmp,4000,16000,Pictures\left.bmp,,,,,,,,,,,,,StimulusPr,Pictures\black.bmp,CuedStim3,Left
POP_2,27036,1,"<?xml version=""1.0""?>\n<Clock xmlns:dt=""urn:schemas-microsoft-com:datatypes""><Description dt:dt=""string"">E-Prime Primary Realtime Clock</Description><StartTime><Timestamp dt:dt=""int"">0</Timestamp><DateUtc dt:dt=""string"">2014-06-07T20:52:08Z</DateUtc></StartTime><FrequencyChanges><FrequencyChange><Frequency dt:dt=""r8"">2793040000</Frequency><Timestamp dt:dt=""r8"">1.03873834774072E+15</Timestamp><Current dt:dt=""r8"">0</Current><DateUtc dt:dt=""string"">2014-06-07T20:52:08Z</DateUtc></FrequencyChange></FrequencyChanges></Clock>\n",60.03,1,1065478072,0,,-999999,6,55755,t,31895,87650,6/7/2014,13:52:08,8:52:08 PM,2,Session2,SessionsList,0,,-999999,6,736046,t,33335,769381,712075,2,1,2,2,,,929866,,,,,2,1,2,Cued3,MiniBlocks2,,,,,8,1,b,-999999,8,1051388,b,510,1051898,White,Incongruent,b,Red,0,,0,10,1047390,,0,0,,,,,,,8,1,8,,,,Pictures\red.bmp,3000,2000,Pictures\left.bmp,,,,,,,,,,,,,StimulusPr,Pictures\black.bmp,CuedStim3,Left
POP_2,27036,1,"<?xml version=""1.0""?>\n<Clock xmlns:dt=""urn:schemas-microsoft-com:datatypes""><Description dt:dt=""string"">E-Prime Primary Realtime Clock</Description><StartTime><Timestamp dt:dt=""int"">0</Timestamp><DateUtc dt:dt=""string"">2014-06-07T20:52:08Z</DateUtc></StartTime><FrequencyChanges><FrequencyChange><Frequency dt:dt=""r8"">2793040000</Frequency><Timestamp dt:dt=""r8"">1.03873834774072E+15</Timestamp><Current dt:dt=""r8"">0</Current><DateUtc dt:dt=""string"">2014-06-07T20:52:08Z</DateUtc></FrequencyChange></FrequencyChanges></Clock>\n",60.03,1,1065478072,0,,-999999,6,55755,t,31895,87650,6/7/2014,13:52:08,8:52:08 PM,2,Session2,SessionsList,0,,-999999,6,736046,t,33335,769381,712075,2,1,2,2,,,929866,,,,,2,1,2,Cued3,MiniBlocks2,,,,,9,1,r,-999999,4,1059384,r,334,1059718,White,Congruent,r,Green,0,,0,6,1055386,,0,0,,,,,,,9,1,9,,,,Pictures\green.bmp,3000,2000,Pictures\left.bmp,,,,,,,,,,,,,StimulusPr,Pictures\black.bmp,CuedStim3,Left
POP_2,27036,1,"<?xml version=""1.0""?>\n<Clock xmlns:dt=""urn:schemas-microsoft-com:datatypes""><Description dt:dt=""string"">E-Prime Primary Realtime Clock</Description><StartTime><Timestamp dt:dt=""int"">0</Timestamp><DateUtc dt:dt=""string"">2014-06-07T20:52:08Z</DateUtc></StartTime><FrequencyChanges><FrequencyChange><Frequency dt:dt=""r8"">2793040000</Frequency><Timestamp dt:dt=""r8"">1.03873834774072E+15</Timestamp><Current dt:dt=""r8"">0</Current><DateUtc dt:dt=""string"">2014-06-07T20:52:08Z</DateUtc></FrequencyChange></FrequencyChanges></Clock>\n",60.03,1,1065478072,0,,-999999,6,55755,t,31895,87650,6/7/2014,13:52:08,8:52:08 PM,2,Session2,SessionsList,0,,-999999,6,736046,t,33335,769381,712075,2,1,2,2,,,929866,,,,,2,1,2,Cued3,MiniBlocks2,,,,,10,1,b,-999999,15,1073394,b,527,1073921,White,Congruent,b,Green,0,,0,2,1063382,,0,0,,,,,,,10,1,10,,,,Pictures\green.bmp,9000,10000,Pictures\black.bmp,,,,,,,,,,,,,StimulusPr,Pictures\right.bmp,CuedStim3,Right
POP_2,27036,1,"<?xml version=""1.0""?>\n<Clock xmlns:dt=""urn:schemas-microsoft-com:datatypes""><Description dt:dt=""string"">E-Prime Primary Realtime Clock</Description><StartTime><Timestamp dt:dt=""int"">0</Timestamp><DateUtc dt:dt=""string"">2014-06-07T20:52:08Z</DateUtc></StartTime><FrequencyChanges><FrequencyChange><Frequency dt:dt=""r8"">2793040000</Frequency><Timestamp dt:dt=""r8"">1.03873834774072E+15</Timestamp><Current dt:dt=""r8"">0</Current><DateUtc dt:dt=""string"">2014-06-07T20:52:08Z</DateUtc></FrequencyChange></FrequencyChanges></Clock>\n",60.03,1,1065478072,0,,-999999,6,55755,t,31895,87650,6/7/2014,13:52:08,8:52:08 PM,2,Session2,SessionsList,0,,-999999,6,736046,t,33335,769381,712075,2,1,2,3,,,,1083938,,,,3,1,3,Cued4,MiniBlocks2,,,,,1,1,b,-999999,17,1101396,b,372,1101768,White,Congruent,b,Green,0,,0,4,1094383,,0,0,,,,,,,,,,1,1,1,Pictures\green.bmp,6000,2000,Pictures\black.bmp,,,,,,,,,,,,,StimulusPr,Pictures\right.bmp,CuedStim4,Right
POP_2,27036,1,"<?xml version=""1.0""?>\n<Clock xmlns:dt=""urn:schemas-microsoft-com:datatypes""><Description dt:dt=""string"">E-Prime Primary Realtime Clock</Description><StartTime><Timestamp dt:dt=""int"">0</Timestamp><DateUtc dt:dt=""string"">2014-06-07T20:52:08Z</DateUtc></StartTime><FrequencyChanges><FrequencyChange><Frequency dt:dt=""r8"">2793040000</Frequency><Timestamp dt:dt=""r8"">1.03873834774072E+15</Timestamp><Current dt:dt=""r8"">0</Current><DateUtc dt:dt=""string"">2014-06-07T20:52:08Z</DateUtc></FrequencyChange></FrequencyChanges></Clock>\n",60.03,1,1065478072,0,,-999999,6,55755,t,31895,87650,6/7/2014,13:52:08,8:52:08 PM,2,Session2,SessionsList,0,,-999999,6,736046,t,33335,769381,712075,2,1,2,3,,,,1083938,,,,3,1,3,Cued4,MiniBlocks2,,,,,2,1,r,-999999,9,1115389,r,519,1115908,White,Incongruent,r,Red,0,,0,15,1105394,,0,0,,,,,,,,,,2,1,2,Pictures\red.bmp,9000,2000,Pictures\black.bmp,,,,,,,,,,,,,StimulusPr,Pictures\right.bmp,CuedStim4,Right
POP_2,27036,1,"<?xml version=""1.0""?>\n<Clock xmlns:dt=""urn:schemas-microsoft-com:datatypes""><Description dt:dt=""string"">E-Prime Primary Realtime Clock</Description><StartTime><Timestamp dt:dt=""int"">0</Timestamp><DateUtc dt:dt=""string"">2014-06-07T20:52:08Z</DateUtc></StartTime><FrequencyChanges><FrequencyChange><Frequency dt:dt=""r8"">2793040000</Frequency><Timestamp dt:dt=""r8"">1.03873834774072E+15</Timestamp><Current dt:dt=""r8"">0</Current><DateUtc dt:dt=""string"">2014-06-07T20:52:08Z</DateUtc></FrequencyChange></FrequencyChanges></Clock>\n",60.03,1,1065478072,0,,-999999,6,55755,t,31895,87650,6/7/2014,13:52:08,8:52:08 PM,2,Session2,SessionsList,0,,-999999,6,736046,t,33335,769381,712075,2,1,2,3,,,,1083938,,,,3,1,3,Cued4,MiniBlocks2,,,,,3,1,b,-999999,5,1123385,b,601,1123986,White,Congruent,b,Green,0,,0,7,1119387,,0,0,,,,,,,,,,3,1,3,Pictures\green.bmp,3000,4000,Pictures\black.bmp,,,,,,,,,,,,,StimulusPr,Pictures\right.bmp,CuedStim4,Right
POP_2,27036,1,"<?xml version=""1.0""?>\n<Clock xmlns:dt=""urn:schemas-microsoft-com:datatypes""><Description dt:dt=""string"">E-Prime Primary Realtime Clock</Description><StartTime><Timestamp dt:dt=""int"">0</Timestamp><DateUtc dt:dt=""string"">2014-06-07T20:52:08Z</DateUtc></StartTime><FrequencyChanges><FrequencyChange><Frequency dt:dt=""r8"">2793040000</Frequency><Timestamp dt:dt=""r8"">1.03873834774072E+15</Timestamp><Current dt:dt=""r8"">0</Current><DateUtc dt:dt=""string"">2014-06-07T20:52:08Z</DateUtc></FrequencyChange></FrequencyChanges></Clock>\n",60.03,1,1065478072,0,,-999999,6,55755,t,31895,87650,6/7/2014,13:52:08,8:52:08 PM,2,Session2,SessionsList,0,,-999999,6,736046,t,33335,769381,712075,2,1,2,3,,,,1083938,,,,3,1,3,Cued4,MiniBlocks2,,,,,4,1,r,-999999,17,1133397,r,275,1133672,White,Congruent,r,Green,0,,0,2,1129382,,0,0,,,,,,,,,,4,1,4,Pictures\green.bmp,3000,4000,Pictures\left.bmp,,,,,,,,,,,,,StimulusPr,Pictures\black.bmp,CuedStim4,Left
POP_2,27036,1,"<?xml version=""1.0""?>\n<Clock xmlns:dt=""urn:schemas-microsoft-com:datatypes""><Description dt:dt=""string"">E-Prime Primary Realtime Clock</Description><StartTime><Timestamp dt:dt=""int"">0</Timestamp><DateUtc dt:dt=""string"">2014-06-07T20:52:08Z</DateUtc></StartTime><FrequencyChanges><FrequencyChange><Frequency dt:dt=""r8"">2793040000</Frequency><Timestamp dt:dt=""r8"">1.03873834774072E+15</Timestamp><Current dt:dt=""r8"">0</Current><DateUtc dt:dt=""string"">2014-06-07T20:52:08Z</DateUtc></FrequencyChange></FrequencyChanges></Clock>\n",60.03,1,1065478072,0,,-999999,6,55755,t,31895,87650,6/7/2014,13:52:08,8:52:08 PM,2,Session2,SessionsList,0,,-999999,6,736046,t,33335,769381,712075,2,1,2,3,,,,1083938,,,,3,1,3,Cued4,MiniBlocks2,,,,,5,1,b,-999999,11,1144391,b,491,1144882,White,Incongruent,b,Red,0,,0,14,1139394,,0,0,,,,,,,,,,5,1,5,Pictures\red.bmp,4000,16000,Pictures\left.bmp,,,,,,,,,,,,,StimulusPr,Pictures\black.bmp,CuedStim4,Left
POP_2,27036,1,"<?xml version=""1.0""?>\n<Clock xmlns:dt=""urn:schemas-microsoft-com:datatypes""><Description dt:dt=""string"">E-Prime Primary Realtime Clock</Description><StartTime><Timestamp dt:dt=""int"">0</Timestamp><DateUtc dt:dt=""string"">2014-06-07T20:52:08Z</DateUtc></StartTime><FrequencyChanges><FrequencyChange><Frequency dt:dt=""r8"">2793040000</Frequency><Timestamp dt:dt=""r8"">1.03873834774072E+15</Timestamp><Current dt:dt=""r8"">0</Current><DateUtc dt:dt=""string"">2014-06-07T20:52:08Z</DateUtc></FrequencyChange></FrequencyChanges></Clock>\n",60.03,1,1065478072,0,,-999999,6,55755,t,31895,87650,6/7/2014,13:52:08,8:52:08 PM,2,Session2,SessionsList,0,,-999999,6,736046,t,33335,769381,712075,2,1,2,3,,,,1083938,,,,3,1,3,Cued4,MiniBlocks2,,,,,6,1,b,-999999,18,1166397,b,417,1166814,White,Congruent,b,Green,0,,0,3,1162382,,0,0,,,,,,,,,,6,1,6,Pictures\green.bmp,3000,2000,Pictures\black.bmp,,,,,,,,,,,,,StimulusPr,Pictures\right.bmp,CuedStim4,Right
POP_2,27036,1,"<?xml version=""1.0""?>\n<Clock xmlns:dt=""urn:schemas-microsoft-com:datatypes""><Description dt:dt=""string"">E-Prime Primary Realtime Clock</Description><StartTime><Timestamp dt:dt=""int"">0</Timestamp><DateUtc dt:dt=""string"">2014-06-07T20:52:08Z</DateUtc></StartTime><FrequencyChanges><FrequencyChange><Frequency dt:dt=""r8"">2793040000</Frequency><Timestamp dt:dt=""r8"">1.03873834774072E+15</Timestamp><Current dt:dt=""r8"">0</Current><DateUtc dt:dt=""string"">2014-06-07T20:52:08Z</DateUtc></FrequencyChange></FrequencyChanges></Clock>\n",60.03,1,1065478072,0,,-999999,6,55755,t,31895,87650,6/7/2014,13:52:08,8:52:08 PM,2,Session2,SessionsList,0,,-999999,6,736046,t,33335,769381,712075,2,1,2,3,,,,1083938,,,,3,1,3,Cued4,MiniBlocks2,,,,,7,1,b,-999999,11,1180390,b,349,1180739,White,Congruent,b,Green,0,,0,16,1170395,,0,0,,,,,,,,,,7,1,7,Pictures\green.bmp,9000,10000,Pictures\black.bmp,,,,,,,,,,,,,StimulusPr,Pictures\right.bmp,CuedStim4,Right
POP_2,27036,1,"<?xml version=""1.0""?>\n<Clock xmlns:dt=""urn:schemas-microsoft-com:datatypes""><Description dt:dt=""string"">E-Prime Primary Realtime Clock</Description><StartTime><Timestamp dt:dt=""int"">0</Timestamp><DateUtc dt:dt=""string"">2014-06-07T20:52:08Z</DateUtc></StartTime><FrequencyChanges><FrequencyChange><Frequency dt:dt=""r8"">2793040000</Frequency><Timestamp dt:dt=""r8"">1.03873834774072E+15</Timestamp><Current dt:dt=""r8"">0</Current><DateUtc dt:dt=""string"">2014-06-07T20:52:08Z</DateUtc></FrequencyChange></FrequencyChanges></Clock>\n",60.03,1,1065478072,0,,-999999,6,55755,t,31895,87650,6/7/2014,13:52:08,8:52:08 PM,2,Session2,SessionsList,0,,-999999,6,736046,t,33335,769381,712075,2,1,2,3,,,,1083938,,,,3,1,3,Cued4,MiniBlocks2,,,,,8,1,b,-999999,18,1199397,b,492,1199889,White,Incongruent,b,Red,0,,0,5,1192384,,0,0,,,,,,,,,,8,1,8,Pictures\red.bmp,6000,10000,Pictures\left.bmp,,,,,,,,,,,,,StimulusPr,Pictures\black.bmp,CuedStim4,Left
POP_2,27036,1,"<?xml version=""1.0""?>\n<Clock xmlns:dt=""urn:schemas-microsoft-com:datatypes""><Description dt:dt=""string"">E-Prime Primary Realtime Clock</Description><StartTime><Timestamp dt:dt=""int"">0</Timestamp><DateUtc dt:dt=""string"">2014-06-07T20:52:08Z</DateUtc></StartTime><FrequencyChanges><FrequencyChange><Frequency dt:dt=""r8"">2793040000</Frequency><Timestamp dt:dt=""r8"">1.03873834774072E+15</Timestamp><Current dt:dt=""r8"">0</Current><DateUtc dt:dt=""string"">2014-06-07T20:52:08Z</DateUtc></FrequencyChange></FrequencyChanges></Clock>\n",60.03,1,1065478072,0,,-999999,6,55755,t,31895,87650,6/7/2014,13:52:08,8:52:08 PM,2,Session2,SessionsList,0,,-999999,6,736046,t,33335,769381,712075,2,1,2,3,,,,1083938,,,,3,1,3,Cued4,MiniBlocks2,,,,,9,1,r,-999999,8,1218387,r,387,1218774,White,Congruent,r,Green,0,,0,12,1211391,,0,0,,,,,,,,,,9,1,9,Pictures\green.bmp,6000,16000,Pictures\left.bmp,,,,,,,,,,,,,StimulusPr,Pictures\black.bmp,CuedStim4,Left
POP_2,27036,1,"<?xml version=""1.0""?>\n<Clock xmlns:dt=""urn:schemas-microsoft-com:datatypes""><Description dt:dt=""string"">E-Prime Primary Realtime Clock</Description><StartTime><Timestamp dt:dt=""int"">0</Timestamp><DateUtc dt:dt=""string"">2014-06-07T20:52:08Z</DateUtc></StartTime><FrequencyChanges><FrequencyChange><Frequency dt:dt=""r8"">2793040000</Frequency><Timestamp dt:dt=""r8"">1.03873834774072E+15</Timestamp><Current dt:dt=""r8"">0</Current><DateUtc dt:dt=""string"">2014-06-07T20:52:08Z</DateUtc></FrequencyChange></FrequencyChanges></Clock>\n",60.03,1,1065478072,0,,-999999,6,55755,t,31895,87650,6/7/2014,13:52:08,8:52:08 PM,2,Session2,SessionsList,0,,-999999,6,736046,t,33335,769381,712075,2,1,2,3,,,,1083938,,,,3,1,3,Cued4,MiniBlocks2,,,,,10,1,r,-999999,13,1241392,r,506,1241898,White,Congruent,r,Green,0,,0,15,1236395,,0,0,,,,,,,,,,10,1,10,Pictures\green.bmp,4000,2000,Pictures\left.bmp,,,,,,,,,,,,,StimulusPr,Pictures\black.bmp,CuedStim4,Left
POP_2,27036,1,"<?xml version=""1.0""?>\n<Clock xmlns:dt=""urn:schemas-microsoft-com:datatypes""><Description dt:dt=""string"">E-Prime Primary Realtime Clock</Description><StartTime><Timestamp dt:dt=""int"">0</Timestamp><DateUtc dt:dt=""string"">2014-06-07T20:52:08Z</DateUtc></StartTime><FrequencyChanges><FrequencyChange><Frequency dt:dt=""r8"">2793040000</Frequency><Timestamp dt:dt=""r8"">1.03873834774072E+15</Timestamp><Current dt:dt=""r8"">0</Current><DateUtc dt:dt=""string"">2014-06-07T20:52:08Z</DateUtc></FrequencyChange></FrequencyChanges></Clock>\n",60.03,1,1065478072,0,,-999999,6,55755,t,31895,87650,6/7/2014,13:52:08,8:52:08 PM,2,Session2,SessionsList,0,,-999999,6,736046,t,33335,769381,712075,2,1,2,4,,,,,,,,4,1,4,NonCued4,MiniBlocks2,,,,1243924,1,1,r,-999999,5,1258384,r,378,1258762,Green,Congruent,r,White,0,,0,6,1254386,,0,0,,,,,,,,,,,,,Pictures\white.bmp,3000,2000,Pictures\GreenLeft.bmp,,,,,,,,,,1,1,1,StimulusPr,Pictures\black.bmp,NonCuedStim4,Left
POP_2,27036,1,"<?xml version=""1.0""?>\n<Clock xmlns:dt=""urn:schemas-microsoft-com:datatypes""><Description dt:dt=""string"">E-Prime Primary Realtime Clock</Description><StartTime><Timestamp dt:dt=""int"">0</Timestamp><DateUtc dt:dt=""string"">2014-06-07T20:52:08Z</DateUtc></StartTime><FrequencyChanges><FrequencyChange><Frequency dt:dt=""r8"">2793040000</Frequency><Timestamp dt:dt=""r8"">1.03873834774072E+15</Timestamp><Current dt:dt=""r8"">0</Current><DateUtc dt:dt=""string"">2014-06-07T20:52:08Z</DateUtc></FrequencyChange></FrequencyChanges></Clock>\n",60.03,1,1065478072,0,,-999999,6,55755,t,31895,87650,6/7/2014,13:52:08,8:52:08 PM,2,Session2,SessionsList,0,,-999999,6,736046,t,33335,769381,712075,2,1,2,4,,,,,,,,4,1,4,NonCued4,MiniBlocks2,,,,1243924,2,1,r,-999999,17,1267396,r,404,1267800,Green,Congruent,r,White,0,,0,3,1262382,,0,0,,,,,,,,,,,,,Pictures\white.bmp,4000,2000,Pictures\GreenLeft.bmp,,,,,,,,,,2,1,2,StimulusPr,Pictures\black.bmp,NonCuedStim4,Left
POP_2,27036,1,"<?xml version=""1.0""?>\n<Clock xmlns:dt=""urn:schemas-microsoft-com:datatypes""><Description dt:dt=""string"">E-Prime Primary Realtime Clock</Description><StartTime><Timestamp dt:dt=""int"">0</Timestamp><DateUtc dt:dt=""string"">2014-06-07T20:52:08Z</DateUtc></StartTime><FrequencyChanges><FrequencyChange><Frequency dt:dt=""r8"">2793040000</Frequency><Timestamp dt:dt=""r8"">1.03873834774072E+15</Timestamp><Current dt:dt=""r8"">0</Current><DateUtc dt:dt=""string"">2014-06-07T20:52:08Z</DateUtc></FrequencyChange></FrequencyChanges></Clock>\n",60.03,1,1065478072,0,,-999999,6,55755,t,31895,87650,6/7/2014,13:52:08,8:52:08 PM,2,Session2,SessionsList,0,,-999999,6,736046,t,33335,769381,712075,2,1,2,4,,,,,,,,4,1,4,NonCued4,MiniBlocks2,,,,1243924,3,1,r,-999999,13,1276392,r,602,1276994,Red,Incongruent,r,White,0,,0,15,1271394,,0,0,,,,,,,,,,,,,Pictures\white.bmp,4000,2000,Pictures\black.bmp,,,,,,,,,,3,1,3,StimulusPr,Pictures\RedRight.bmp,NonCuedStim4,Right
POP_2,27036,1,"<?xml version=""1.0""?>\n<Clock xmlns:dt=""urn:schemas-microsoft-com:datatypes""><Description dt:dt=""string"">E-Prime Primary Realtime Clock</Description><StartTime><Timestamp dt:dt=""int"">0</Timestamp><DateUtc dt:dt=""string"">2014-06-07T20:52:08Z</DateUtc></StartTime><FrequencyChanges><FrequencyChange><Frequency dt:dt=""r8"">2793040000</Frequency><Timestamp dt:dt=""r8"">1.03873834774072E+15</Timestamp><Current dt:dt=""r8"">0</Current><DateUtc dt:dt=""string"">2014-06-07T20:52:08Z</DateUtc></FrequencyChange></FrequencyChanges></Clock>\n",60.03,1,1065478072,0,,-999999,6,55755,t,31895,87650,6/7/2014,13:52:08,8:52:08 PM,2,Session2,SessionsList,0,,-999999,6,736046,t,33335,769381,712075,2,1,2,4,,,,,,,,4,1,4,NonCued4,MiniBlocks2,,,,1243924,4,1,b,-999999,9,1284387,b,589,1284976,Green,Congruent,b,White,0,,0,11,1280389,,0,0,,,,,,,,,,,,,Pictures\white.bmp,3000,16000,Pictures\black.bmp,,,,,,,,,,4,1,4,StimulusPr,Pictures\GreenRight.bmp,NonCuedStim4,Right
POP_2,27036,1,"<?xml version=""1.0""?>\n<Clock xmlns:dt=""urn:schemas-microsoft-com:datatypes""><Description dt:dt=""string"">E-Prime Primary Realtime Clock</Description><StartTime><Timestamp dt:dt=""int"">0</Timestamp><DateUtc dt:dt=""string"">2014-06-07T20:52:08Z</DateUtc></StartTime><FrequencyChanges><FrequencyChange><Frequency dt:dt=""r8"">2793040000</Frequency><Timestamp dt:dt=""r8"">1.03873834774072E+15</Timestamp><Current dt:dt=""r8"">0</Current><DateUtc dt:dt=""string"">2014-06-07T20:52:08Z</DateUtc></FrequencyChange></FrequencyChanges></Clock>\n",60.03,1,1065478072,0,,-999999,6,55755,t,31895,87650,6/7/2014,13:52:08,8:52:08 PM,2,Session2,SessionsList,0,,-999999,6,736046,t,33335,769381,712075,2,1,2,4,,,,,,,,4,1,4,NonCued4,MiniBlocks2,,,,1243924,5,1,r,-999999,11,1312390,r,474,1312864,Green,Congruent,r,White,0,,0,15,1302395,,0,0,,,,,,,,,,,,,Pictures\white.bmp,9000,10000,Pictures\GreenLeft.bmp,,,,,,,,,,5,1,5,StimulusPr,Pictures\black.bmp,NonCuedStim4,Left
POP_2,27036,1,"<?xml version=""1.0""?>\n<Clock xmlns:dt=""urn:schemas-microsoft-com:datatypes""><Description dt:dt=""string"">E-Prime Primary Realtime Clock</Description><StartTime><Timestamp dt:dt=""int"">0</Timestamp><DateUtc dt:dt=""string"">2014-06-07T20:52:08Z</DateUtc></StartTime><FrequencyChanges><FrequencyChange><Frequency dt:dt=""r8"">2793040000</Frequency><Timestamp dt:dt=""r8"">1.03873834774072E+15</Timestamp><Current dt:dt=""r8"">0</Current><DateUtc dt:dt=""string"">2014-06-07T20:52:08Z</DateUtc></FrequencyChange></FrequencyChanges></Clock>\n",60.03,1,1065478072,0,,-999999,6,55755,t,31895,87650,6/7/2014,13:52:08,8:52:08 PM,2,Session2,SessionsList,0,,-999999,6,736046,t,33335,769381,712075,2,1,2,4,,,,,,,,4,1,4,NonCued4,MiniBlocks2,,,,1243924,6,1,b,-999999,3,1328382,b,427,1328809,Green,Congruent,b,White,0,,0,5,1324384,,0,0,,,,,,,,,,,,,Pictures\white.bmp,3000,16000,Pictures\black.bmp,,,,,,,,,,6,1,6,StimulusPr,Pictures\GreenRight.bmp,NonCuedStim4,Right
POP_2,27036,1,"<?xml version=""1.0""?>\n<Clock xmlns:dt=""urn:schemas-microsoft-com:datatypes""><Description dt:dt=""string"">E-Prime Primary Realtime Clock</Description><StartTime><Timestamp dt:dt=""int"">0</Timestamp><DateUtc dt:dt=""string"">2014-06-07T20:52:08Z</DateUtc></StartTime><FrequencyChanges><FrequencyChange><Frequency dt:dt=""r8"">2793040000</Frequency><Timestamp dt:dt=""r8"">1.03873834774072E+15</Timestamp><Current dt:dt=""r8"">0</Current><DateUtc dt:dt=""string"">2014-06-07T20:52:08Z</DateUtc></FrequencyChange></FrequencyChanges></Clock>\n",60.03,1,1065478072,0,,-999999,6,55755,t,31895,87650,6/7/2014,13:52:08,8:52:08 PM,2,Session2,SessionsList,0,,-999999,6,736046,t,33335,769381,712075,2,1,2,4,,,,,,,,4,1,4,NonCued4,MiniBlocks2,,,,1243924,7,1,b,-999999,10,1350388,b,492,1350880,Red,Incongruent,b,White,0,,0,11,1346390,,0,0,,,,,,,,,,,,,Pictures\white.bmp,3000,16000,Pictures\RedLeft.bmp,,,,,,,,,,7,1,7,StimulusPr,Pictures\black.bmp,NonCuedStim4,Left
POP_2,27036,1,"<?xml version=""1.0""?>\n<Clock xmlns:dt=""urn:schemas-microsoft-com:datatypes""><Description dt:dt=""string"">E-Prime Primary Realtime Clock</Description><StartTime><Timestamp dt:dt=""int"">0</Timestamp><DateUtc dt:dt=""string"">2014-06-07T20:52:08Z</DateUtc></StartTime><FrequencyChanges><FrequencyChange><Frequency dt:dt=""r8"">2793040000</Frequency><Timestamp dt:dt=""r8"">1.03873834774072E+15</Timestamp><Current dt:dt=""r8"">0</Current><DateUtc dt:dt=""string"">2014-06-07T20:52:08Z</DateUtc></FrequencyChange></FrequencyChanges></Clock>\n",60.03,1,1065478072,0,,-999999,6,55755,t,31895,87650,6/7/2014,13:52:08,8:52:08 PM,2,Session2,SessionsList,0,,-999999,6,736046,t,33335,769381,712075,2,1,2,4,,,,,,,,4,1,4,NonCued4,MiniBlocks2,,,,1243924,8,1,r,-999999,15,1372393,r,506,1372899,Green,Congruent,r,White,0,,0,17,1368395,,0,0,,,,,,,,,,,,,Pictures\white.bmp,3000,2000,Pictures\GreenLeft.bmp,,,,,,,,,,8,1,8,StimulusPr,Pictures\black.bmp,NonCuedStim4,Left
POP_2,27036,1,"<?xml version=""1.0""?>\n<Clock xmlns:dt=""urn:schemas-microsoft-com:datatypes""><Description dt:dt=""string"">E-Prime Primary Realtime Clock</Description><StartTime><Timestamp dt:dt=""int"">0</Timestamp><DateUtc dt:dt=""string"">2014-06-07T20:52:08Z</DateUtc></StartTime><FrequencyChanges><FrequencyChange><Frequency dt:dt=""r8"">2793040000</Frequency><Timestamp dt:dt=""r8"">1.03873834774072E+15</Timestamp><Current dt:dt=""r8"">0</Current><DateUtc dt:dt=""string"">2014-06-07T20:52:08Z</DateUtc></FrequencyChange></FrequencyChanges></Clock>\n",60.03,1,1065478072,0,,-999999,6,55755,t,31895,87650,6/7/2014,13:52:08,8:52:08 PM,2,Session2,SessionsList,0,,-999999,6,736046,t,33335,769381,712075,2,1,2,4,,,,,,,,4,1,4,NonCued4,MiniBlocks2,,,,1243924,9,1,b,-999999,9,1383388,b,657,1384045,Green,Congruent,b,White,0,,0,14,1376375,,0,0,,,,,,,,,,,,,Pictures\white.bmp,6000,2000,Pictures\black.bmp,,,,,,,,,,9,1,9,StimulusPr,Pictures\GreenRight.bmp,NonCuedStim4,Right
POP_2,27036,1,"<?xml version=""1.0""?>\n<Clock xmlns:dt=""urn:schemas-microsoft-com:datatypes""><Description dt:dt=""string"">E-Prime Primary Realtime Clock</Description><StartTime><Timestamp dt:dt=""int"">0</Timestamp><DateUtc dt:dt=""string"">2014-06-07T20:52:08Z</DateUtc></StartTime><FrequencyChanges><FrequencyChange><Frequency dt:dt=""r8"">2793040000</Frequency><Timestamp dt:dt=""r8"">1.03873834774072E+15</Timestamp><Current dt:dt=""r8"">0</Current><DateUtc dt:dt=""string"">2014-06-07T20:52:08Z</DateUtc></FrequencyChange></FrequencyChanges></Clock>\n",60.03,1,1065478072,0,,-999999,6,55755,t,31895,87650,6/7/2014,13:52:08,8:52:08 PM,2,Session2,SessionsList,0,,-999999,6,736046,t,33335,769381,712075,2,1,2,4,,,,,,,,4,1,4,NonCued4,MiniBlocks2,,,,1243924,10,1,b,-999999,4,1392383,b,566,1392949,Green,Congruent,b,White,0,,0,7,1387386,,0,0,,,,,,,,,,,,,Pictures\white.bmp,4000,4000,Pictures\black.bmp,,,,,,,,,,10,1,10,StimulusPr,Pictures\GreenRight.bmp,NonCuedStim4,Right
