ExperimentName,Subject,Session,Clock.Information,Display.RefreshRate,Group,RandomSeed,Session1Onset.ACC,Session1Onset.CRESP,Session1Onset.DurationError,Session1Onset.OnsetDelay,Session1Onset.OnsetTime,Session1Onset.RESP,Session1Onset.RT,Session1Onset.RTTime,SessionDate,SessionTime,SessionTimeUtc,Block,Procedure[Block],Running[Block],Session2Onset.ACC,Session2Onset.CRESP,Session2Onset.DurationError,Session2Onset.OnsetDelay,Session2Onset.OnsetTime,Session2Onset.RESP,Session2Onset.RT,Session2Onset.RTTime,SessionBreak.OnsetTime,SessionsList,SessionsList.Cycle,SessionsList.Sample,Trial,CuedPrompt1.OnsetTime,CuedPrompt2.OnsetTime,CuedPrompt3.OnsetTime,CuedPrompt4.OnsetTime,MiniBlocks1,MiniBlocks1.Cycle,MiniBlocks1.Sample,MiniBlocks2,MiniBlocks2.Cycle,MiniBlocks2.Sample,Procedure[Trial],Running[Trial],UncuedPrompt1.OnsetTime,UncuedPrompt2.OnsetTime,UncuedPrompt3.OnsetTime,UncuedPrompt4.OnsetTime,SubTrial,Arrow1.ACC,Arrow1.CRESP,Arrow1.DurationError,Arrow1.OnsetDelay,Arrow1.OnsetTime,Arrow1.RESP,Arrow1.RT,Arrow1.RTTime,ArrowColor,Congruence,CorrectResp,Cue,Cue.ACC,Cue.CRESP,Cue.DurationError,Cue.OnsetDelay,Cue.OnsetTime,Cue.RESP,Cue.RT,Cue.RTTime,CuedStim1,CuedStim1.Cycle,CuedStim1.Sample,CuedStim2,CuedStim2.Cycle,CuedStim2.Sample,CuedStim3,CuedStim3.Cycle,CuedStim3.Sample,CuedStim4,CuedStim4.Cycle,CuedStim4.Sample,CueImage,JitterCue,JitterTrial,LeftImage,NonCuedStim1,NonCuedStim1.Cycle,NonCuedStim1.Sample,NonCuedStim2,NonCuedStim2.Cycle,NonCuedStim2.Sample,NonCuedStim3,NonCuedStim3.Cycle,NonCuedStim3.Sample,NonCuedStim4,NonCuedStim4.Cycle,NonCuedStim4.Sample,Procedure[SubTrial],RightImage,Running[SubTrial],Stimulus
POP_2,27030,1,"<?xml version=""1.0""?>\n<Clock xmlns:dt=""urn:schemas-microsoft-com:datatypes""><Description dt:dt=""string"">E-Prime Primary Realtime Clock</Description><StartTime><Timestamp dt:dt=""int"">0</Timestamp><DateUtc dt:dt=""string"">2014-05-29T22:39:45Z</DateUtc></StartTime><FrequencyChanges><FrequencyChange><Frequency dt:dt=""r8"">2793040000</Frequency><Timestamp dt:dt=""r8"">284124311866906</Timestamp><Current dt:dt=""r8"">0</Current><DateUtc dt:dt=""string"">2014-05-29T22:39:45Z</DateUtc></FrequencyChange></FrequencyChanges></Clock>\n",60.03,1,-116966627,0,,-999999,9,12736,t,44333,57069,5/29/2014,15:39:45,,1,Session1,SessionsList,,,,,,,,,,1,1,1,1,,,,,,,,1,1,1,NonCued3,MiniBlocks2,,,57081,,1,1,b,-999999,3,77071,b,858,77929,Green,Congruent,b,White,0,,0,7,67076,,0,0,,,,,,,,,,,,,Pictures\white.bmp,9000,10000,Pictures\black.bmp,,,,,,,1,1,1,,,,StimulusPr,Pictures\GreenRight.bmp,NonCuedStim3,Right
POP_2,27030,1,"<?xml version=""1.0""?>\n<Clock xmlns:dt=""urn:schemas-microsoft-com:datatypes""><Description dt:dt=""string"">E-Prime Primary Realtime Clock</Description><StartTime><Timestamp dt:dt=""int"">0</Timestamp><DateUtc dt:dt=""string"">2014-05-29T22:39:45Z</DateUtc></StartTime><FrequencyChanges><FrequencyChange><Frequency dt:dt=""r8"">2793040000</Frequency><Timestamp dt:dt=""r8"">284124311866906</Timestamp><Current dt:dt=""r8"">0</Current><DateUtc dt:dt=""string"">2014-05-29T22:39:45Z</DateUtc></FrequencyChange></FrequencyChanges></Clock>\n",60.03,1,-116966627,0,,-999999,9,12736,t,44333,57069,5/29/2014,15:39:45,,1,Session1,SessionsList,,,,,,,,,,1,1,1,1,,,,,,,,1,1,1,NonCued3,MiniBlocks2,,,57081,,2,1,r,-999999,7,99076,r,782,99858,Red,Incongruent,r,White,0,,0,12,89081,,0,0,,,,,,,,,,,,,Pictures\white.bmp,9000,10000,Pictures\black.bmp,,,,,,,2,1,2,,,,StimulusPr,Pictures\RedRight.bmp,NonCuedStim3,Right
POP_2,27030,1,"<?xml version=""1.0""?>\n<Clock xmlns:dt=""urn:schemas-microsoft-com:datatypes""><Description dt:dt=""string"">E-Prime Primary Realtime Clock</Description><StartTime><Timestamp dt:dt=""int"">0</Timestamp><DateUtc dt:dt=""string"">2014-05-29T22:39:45Z</DateUtc></StartTime><FrequencyChanges><FrequencyChange><Frequency dt:dt=""r8"">2793040000</Frequency><Timestamp dt:dt=""r8"">284124311866906</Timestamp><Current dt:dt=""r8"">0</Current><DateUtc dt:dt=""string"">2014-05-29T22:39:45Z</DateUtc></FrequencyChange></FrequencyChanges></Clock>\n",60.03,1,-116966627,0,,-999999,9,12736,t,44333,57069,5/29/2014,15:39:45,,1,Session1,SessionsList,,,,,,,,,,1,1,1,1,,,,,,,,1,1,1,NonCued3,MiniBlocks2,,,57081,,3,1,r,-999999,15,116084,r,867,116951,Green,Congruent,r,White,0,,0,2,111071,,0,0,,,,,,,,,,,,,Pictures\white.bmp,4000,4000,Pictures\GreenLeft.bmp,,,,,,,3,1,3,,,,StimulusPr,Pictures\black.bmp,NonCuedStim3,Left
POP_2,27030,1,"<?xml version=""1.0""?>\n<Clock xmlns:dt=""urn:schemas-microsoft-com:datatypes""><Description dt:dt=""string"">E-Prime Primary Realtime Clock</Description><StartTime><Timestamp dt:dt=""int"">0</Timestamp><DateUtc dt:dt=""string"">2014-05-29T22:39:45Z</DateUtc></StartTime><FrequencyChanges><FrequencyChange><Frequency dt:dt=""r8"">2793040000</Frequency><Timestamp dt:dt=""r8"">284124311866906</Timestamp><Current dt:dt=""r8"">0</Current><DateUtc dt:dt=""string"">2014-05-29T22:39:45Z</DateUtc></FrequencyChange></FrequencyChanges></Clock>\n",60.03,1,-116966627,0,,-999999,9,12736,t,44333,57069,5/29/2014,15:39:45,,1,Session1,SessionsList,,,,,,,,,,1,1,1,1,,,,,,,,1,1,1,NonCued3,MiniBlocks2,,,57081,,4,1,b,-999999,10,129078,b,905,129983,Red,Incongruent,b,White,0,,0,13,122081,,0,0,,,,,,,,,,,,,Pictures\white.bmp,6000,4000,Pictures\RedLeft.bmp,,,,,,,4,1,4,,,,StimulusPr,Pictures\black.bmp,NonCuedStim3,Left
POP_2,27030,1,"<?xml version=""1.0""?>\n<Clock xmlns:dt=""urn:schemas-microsoft-com:datatypes""><Description dt:dt=""string"">E-Prime Primary Realtime Clock</Description><StartTime><Timestamp dt:dt=""int"">0</Timestamp><DateUtc dt:dt=""string"">2014-05-29T22:39:45Z</DateUtc></StartTime><FrequencyChanges><FrequencyChange><Frequency dt:dt=""r8"">2793040000</Frequency><Timestamp dt:dt=""r8"">284124311866906</Timestamp><Current dt:dt=""r8"">0</Current><DateUtc dt:dt=""string"">2014-05-29T22:39:45Z</DateUtc></FrequencyChange></FrequencyChanges></Clock>\n",60.03,1,-116966627,0,,-999999,9,12736,t,44333,57069,5/29/2014,15:39:45,,1,Session1,SessionsList,,,,,,,,,,1,1,1,1,,,,,,,,1,1,1,NonCued3,MiniBlocks2,,,57081,,5,1,b,-999999,5,139073,b,793,139866,Green,Congruent,b,White,0,,0,7,135075,,0,0,,,,,,,,,,,,,Pictures\white.bmp,3000,2000,Pictures\black.bmp,,,,,,,5,1,5,,,,StimulusPr,Pictures\GreenRight.bmp,NonCuedStim3,Right
POP_2,27030,1,"<?xml version=""1.0""?>\n<Clock xmlns:dt=""urn:schemas-microsoft-com:datatypes""><Description dt:dt=""string"">E-Prime Primary Realtime Clock</Description><StartTime><Timestamp dt:dt=""int"">0</Timestamp><DateUtc dt:dt=""string"">2014-05-29T22:39:45Z</DateUtc></StartTime><FrequencyChanges><FrequencyChange><Frequency dt:dt=""r8"">2793040000</Frequency><Timestamp dt:dt=""r8"">284124311866906</Timestamp><Current dt:dt=""r8"">0</Current><DateUtc dt:dt=""string"">2014-05-29T22:39:45Z</DateUtc></FrequencyChange></FrequencyChanges></Clock>\n",60.03,1,-116966627,0,,-999999,9,12736,t,44333,57069,5/29/2014,15:39:45,,1,Session1,SessionsList,,,,,,,,,,1,1,1,1,,,,,,,,1,1,1,NonCued3,MiniBlocks2,,,57081,,6,1,r,-999999,17,147085,r,656,147741,Green,Congruent,r,White,0,,0,3,143071,,0,0,,,,,,,,,,,,,Pictures\white.bmp,3000,2000,Pictures\GreenLeft.bmp,,,,,,,6,1,6,,,,StimulusPr,Pictures\black.bmp,NonCuedStim3,Left
POP_2,27030,1,"<?xml version=""1.0""?>\n<Clock xmlns:dt=""urn:schemas-microsoft-com:datatypes""><Description dt:dt=""string"">E-Prime Primary Realtime Clock</Description><StartTime><Timestamp dt:dt=""int"">0</Timestamp><DateUtc dt:dt=""string"">2014-05-29T22:39:45Z</DateUtc></StartTime><FrequencyChanges><FrequencyChange><Frequency dt:dt=""r8"">2793040000</Frequency><Timestamp dt:dt=""r8"">284124311866906</Timestamp><Current dt:dt=""r8"">0</Current><DateUtc dt:dt=""string"">2014-05-29T22:39:45Z</DateUtc></FrequencyChange></FrequencyChanges></Clock>\n",60.03,1,-116966627,0,,-999999,9,12736,t,44333,57069,5/29/2014,15:39:45,,1,Session1,SessionsList,,,,,,,,,,1,1,1,1,,,,,,,,1,1,1,NonCued3,MiniBlocks2,,,57081,,7,1,b,-999999,12,158080,b,751,158831,Green,Congruent,b,White,0,,0,7,151067,,0,0,,,,,,,,,,,,,Pictures\white.bmp,6000,16000,Pictures\black.bmp,,,,,,,7,1,7,,,,StimulusPr,Pictures\GreenRight.bmp,NonCuedStim3,Right
POP_2,27030,1,"<?xml version=""1.0""?>\n<Clock xmlns:dt=""urn:schemas-microsoft-com:datatypes""><Description dt:dt=""string"">E-Prime Primary Realtime Clock</Description><StartTime><Timestamp dt:dt=""int"">0</Timestamp><DateUtc dt:dt=""string"">2014-05-29T22:39:45Z</DateUtc></StartTime><FrequencyChanges><FrequencyChange><Frequency dt:dt=""r8"">2793040000</Frequency><Timestamp dt:dt=""r8"">284124311866906</Timestamp><Current dt:dt=""r8"">0</Current><DateUtc dt:dt=""string"">2014-05-29T22:39:45Z</DateUtc></FrequencyChange></FrequencyChanges></Clock>\n",60.03,1,-116966627,0,,-999999,9,12736,t,44333,57069,5/29/2014,15:39:45,,1,Session1,SessionsList,,,,,,,,,,1,1,1,1,,,,,,,,1,1,1,NonCued3,MiniBlocks2,,,57081,,8,1,r,-999999,13,180069,r,702,180771,Red,Incongruent,r,White,0,,0,3,176071,,0,0,,,,,,,,,,,,,Pictures\white.bmp,3000,2000,Pictures\black.bmp,,,,,,,8,1,8,,,,StimulusPr,Pictures\RedRight.bmp,NonCuedStim3,Right
POP_2,27030,1,"<?xml version=""1.0""?>\n<Clock xmlns:dt=""urn:schemas-microsoft-com:datatypes""><Description dt:dt=""string"">E-Prime Primary Realtime Clock</Description><StartTime><Timestamp dt:dt=""int"">0</Timestamp><DateUtc dt:dt=""string"">2014-05-29T22:39:45Z</DateUtc></StartTime><FrequencyChanges><FrequencyChange><Frequency dt:dt=""r8"">2793040000</Frequency><Timestamp dt:dt=""r8"">284124311866906</Timestamp><Current dt:dt=""r8"">0</Current><DateUtc dt:dt=""string"">2014-05-29T22:39:45Z</DateUtc></FrequencyChange></FrequencyChanges></Clock>\n",60.03,1,-116966627,0,,-999999,9,12736,t,44333,57069,5/29/2014,15:39:45,,1,Session1,SessionsList,,,,,,,,,,1,1,1,1,,,,,,,,1,1,1,NonCued3,MiniBlocks2,,,57081,,9,1,r,-999999,11,194079,r,751,194830,Green,Congruent,r,White,0,,0,10,184084,,0,0,,,,,,,,,,,,,Pictures\white.bmp,9000,10000,Pictures\GreenLeft.bmp,,,,,,,9,1,9,,,,StimulusPr,Pictures\black.bmp,NonCuedStim3,Left
POP_2,27030,1,"<?xml version=""1.0""?>\n<Clock xmlns:dt=""urn:schemas-microsoft-com:datatypes""><Description dt:dt=""string"">E-Prime Primary Realtime Clock</Description><StartTime><Timestamp dt:dt=""int"">0</Timestamp><DateUtc dt:dt=""string"">2014-05-29T22:39:45Z</DateUtc></StartTime><FrequencyChanges><FrequencyChange><Frequency dt:dt=""r8"">2793040000</Frequency><Timestamp dt:dt=""r8"">284124311866906</Timestamp><Current dt:dt=""r8"">0</Current><DateUtc dt:dt=""string"">2014-05-29T22:39:45Z</DateUtc></FrequencyChange></FrequencyChanges></Clock>\n",60.03,1,-116966627,0,,-999999,9,12736,t,44333,57069,5/29/2014,15:39:45,,1,Session1,SessionsList,,,,,,,,,,1,1,1,1,,,,,,,,1,1,1,NonCued3,MiniBlocks2,,,57081,,10,1,r,-999999,11,213069,r,634,213703,Green,Congruent,r,White,0,,0,14,206089,,0,0,,,,,,,,,,,,,Pictures\white.bmp,6000,4000,Pictures\GreenLeft.bmp,,,,,,,10,1,10,,,,StimulusPr,Pictures\black.bmp,NonCuedStim3,Left
POP_2,27030,1,"<?xml version=""1.0""?>\n<Clock xmlns:dt=""urn:schemas-microsoft-com:datatypes""><Description dt:dt=""string"">E-Prime Primary Realtime Clock</Description><StartTime><Timestamp dt:dt=""int"">0</Timestamp><DateUtc dt:dt=""string"">2014-05-29T22:39:45Z</DateUtc></StartTime><FrequencyChanges><FrequencyChange><Frequency dt:dt=""r8"">2793040000</Frequency><Timestamp dt:dt=""r8"">284124311866906</Timestamp><Current dt:dt=""r8"">0</Current><DateUtc dt:dt=""string"">2014-05-29T22:39:45Z</DateUtc></FrequencyChange></FrequencyChanges></Clock>\n",60.03,1,-116966627,0,,-999999,9,12736,t,44333,57069,5/29/2014,15:39:45,,1,Session1,SessionsList,,,,,,,,,,1,1,1,2,,,217733,,,,,2,1,2,Cued3,MiniBlocks2,,,,,1,1,b,-999999,8,232076,b,753,232829,White,Congruent,b,Green,0,,0,10,228078,,0,0,,,,,,,1,1,1,,,,Pictures\green.bmp,3000,2000,Pictures\black.bmp,,,,,,,,,,,,,StimulusPr,Pictures\right.bmp,CuedStim3,Right
POP_2,27030,1,"<?xml version=""1.0""?>\n<Clock xmlns:dt=""urn:schemas-microsoft-com:datatypes""><Description dt:dt=""string"">E-Prime Primary Realtime Clock</Description><StartTime><Timestamp dt:dt=""int"">0</Timestamp><DateUtc dt:dt=""string"">2014-05-29T22:39:45Z</DateUtc></StartTime><FrequencyChanges><FrequencyChange><Frequency dt:dt=""r8"">2793040000</Frequency><Timestamp dt:dt=""r8"">284124311866906</Timestamp><Current dt:dt=""r8"">0</Current><DateUtc dt:dt=""string"">2014-05-29T22:39:45Z</DateUtc></FrequencyChange></FrequencyChanges></Clock>\n",60.03,1,-116966627,0,,-999999,9,12736,t,44333,57069,5/29/2014,15:39:45,,1,Session1,SessionsList,,,,,,,,,,1,1,1,2,,,217733,,,,,2,1,2,Cued3,MiniBlocks2,,,,,2,1,b,-999999,4,240072,b,665,240737,White,Congruent,b,Green,0,,0,12,236074,,0,0,,,,,,,2,1,2,,,,Pictures\green.bmp,3000,10000,Pictures\black.bmp,,,,,,,,,,,,,StimulusPr,Pictures\right.bmp,CuedStim3,Right
POP_2,27030,1,"<?xml version=""1.0""?>\n<Clock xmlns:dt=""urn:schemas-microsoft-com:datatypes""><Description dt:dt=""string"">E-Prime Primary Realtime Clock</Description><StartTime><Timestamp dt:dt=""int"">0</Timestamp><DateUtc dt:dt=""string"">2014-05-29T22:39:45Z</DateUtc></StartTime><FrequencyChanges><FrequencyChange><Frequency dt:dt=""r8"">2793040000</Frequency><Timestamp dt:dt=""r8"">284124311866906</Timestamp><Current dt:dt=""r8"">0</Current><DateUtc dt:dt=""string"">2014-05-29T22:39:45Z</DateUtc></FrequencyChange></FrequencyChanges></Clock>\n",60.03,1,-116966627,0,,-999999,9,12736,t,44333,57069,5/29/2014,15:39:45,,1,Session1,SessionsList,,,,,,,,,,1,1,1,2,,,217733,,,,,2,1,2,Cued3,MiniBlocks2,,,,,3,1,r,-999999,10,262078,r,710,262788,White,Congruent,r,Green,0,,0,15,252083,,0,0,,,,,,,3,1,3,,,,Pictures\green.bmp,9000,2000,Pictures\left.bmp,,,,,,,,,,,,,StimulusPr,Pictures\black.bmp,CuedStim3,Left
POP_2,27030,1,"<?xml version=""1.0""?>\n<Clock xmlns:dt=""urn:schemas-microsoft-com:datatypes""><Description dt:dt=""string"">E-Prime Primary Realtime Clock</Description><StartTime><Timestamp dt:dt=""int"">0</Timestamp><DateUtc dt:dt=""string"">2014-05-29T22:39:45Z</DateUtc></StartTime><FrequencyChanges><FrequencyChange><Frequency dt:dt=""r8"">2793040000</Frequency><Timestamp dt:dt=""r8"">284124311866906</Timestamp><Current dt:dt=""r8"">0</Current><DateUtc dt:dt=""string"">2014-05-29T22:39:45Z</DateUtc></FrequencyChange></FrequencyChanges></Clock>\n",60.03,1,-116966627,0,,-999999,9,12736,t,44333,57069,5/29/2014,15:39:45,,1,Session1,SessionsList,,,,,,,,,,1,1,1,2,,,217733,,,,,2,1,2,Cued3,MiniBlocks2,,,,,4,1,r,-999999,5,271073,r,668,271741,White,Congruent,r,Green,0,,0,8,266076,,0,0,,,,,,,4,1,4,,,,Pictures\green.bmp,4000,16000,Pictures\left.bmp,,,,,,,,,,,,,StimulusPr,Pictures\black.bmp,CuedStim3,Left
POP_2,27030,1,"<?xml version=""1.0""?>\n<Clock xmlns:dt=""urn:schemas-microsoft-com:datatypes""><Description dt:dt=""string"">E-Prime Primary Realtime Clock</Description><StartTime><Timestamp dt:dt=""int"">0</Timestamp><DateUtc dt:dt=""string"">2014-05-29T22:39:45Z</DateUtc></StartTime><FrequencyChanges><FrequencyChange><Frequency dt:dt=""r8"">2793040000</Frequency><Timestamp dt:dt=""r8"">284124311866906</Timestamp><Current dt:dt=""r8"">0</Current><DateUtc dt:dt=""string"">2014-05-29T22:39:45Z</DateUtc></FrequencyChange></FrequencyChanges></Clock>\n",60.03,1,-116966627,0,,-999999,9,12736,t,44333,57069,5/29/2014,15:39:45,,1,Session1,SessionsList,,,,,,,,,,1,1,1,2,,,217733,,,,,2,1,2,Cued3,MiniBlocks2,,,,,5,1,r,-999999,11,293079,r,765,293844,White,Incongruent,r,Red,0,,0,18,289081,,0,0,,,,,,,5,1,5,,,,Pictures\red.bmp,3000,4000,Pictures\black.bmp,,,,,,,,,,,,,StimulusPr,Pictures\right.bmp,CuedStim3,Right
POP_2,27030,1,"<?xml version=""1.0""?>\n<Clock xmlns:dt=""urn:schemas-microsoft-com:datatypes""><Description dt:dt=""string"">E-Prime Primary Realtime Clock</Description><StartTime><Timestamp dt:dt=""int"">0</Timestamp><DateUtc dt:dt=""string"">2014-05-29T22:39:45Z</DateUtc></StartTime><FrequencyChanges><FrequencyChange><Frequency dt:dt=""r8"">2793040000</Frequency><Timestamp dt:dt=""r8"">284124311866906</Timestamp><Current dt:dt=""r8"">0</Current><DateUtc dt:dt=""string"">2014-05-29T22:39:45Z</DateUtc></FrequencyChange></FrequencyChanges></Clock>\n",60.03,1,-116966627,0,,-999999,9,12736,t,44333,57069,5/29/2014,15:39:45,,1,Session1,SessionsList,,,,,,,,,,1,1,1,2,,,217733,,,,,2,1,2,Cued3,MiniBlocks2,,,,,6,1,b,-999999,4,306072,b,767,306839,White,Congruent,b,Green,0,,0,8,299076,,0,0,,,,,,,6,1,6,,,,Pictures\green.bmp,6000,4000,Pictures\black.bmp,,,,,,,,,,,,,StimulusPr,Pictures\right.bmp,CuedStim3,Right
POP_2,27030,1,"<?xml version=""1.0""?>\n<Clock xmlns:dt=""urn:schemas-microsoft-com:datatypes""><Description dt:dt=""string"">E-Prime Primary Realtime Clock</Description><StartTime><Timestamp dt:dt=""int"">0</Timestamp><DateUtc dt:dt=""string"">2014-05-29T22:39:45Z</DateUtc></StartTime><FrequencyChanges><FrequencyChange><Frequency dt:dt=""r8"">2793040000</Frequency><Timestamp dt:dt=""r8"">284124311866906</Timestamp><Current dt:dt=""r8"">0</Current><DateUtc dt:dt=""string"">2014-05-29T22:39:45Z</DateUtc></FrequencyChange></FrequencyChanges></Clock>\n",60.03,1,-116966627,0,,-999999,9,12736,t,44333,57069,5/29/2014,15:39:45,,1,Session1,SessionsList,,,,,,,,,,1,1,1,2,,,217733,,,,,2,1,2,Cued3,MiniBlocks2,,,,,7,1,r,-999999,15,317083,r,599,317682,White,Congruent,r,Green,0,,0,2,312070,,0,0,,,,,,,7,1,7,,,,Pictures\green.bmp,4000,16000,Pictures\left.bmp,,,,,,,,,,,,,StimulusPr,Pictures\black.bmp,CuedStim3,Left
POP_2,27030,1,"<?xml version=""1.0""?>\n<Clock xmlns:dt=""urn:schemas-microsoft-com:datatypes""><Description dt:dt=""string"">E-Prime Primary Realtime Clock</Description><StartTime><Timestamp dt:dt=""int"">0</Timestamp><DateUtc dt:dt=""string"">2014-05-29T22:39:45Z</DateUtc></StartTime><FrequencyChanges><FrequencyChange><Frequency dt:dt=""r8"">2793040000</Frequency><Timestamp dt:dt=""r8"">284124311866906</Timestamp><Current dt:dt=""r8"">0</Current><DateUtc dt:dt=""string"">2014-05-29T22:39:45Z</DateUtc></FrequencyChange></FrequencyChanges></Clock>\n",60.03,1,-116966627,0,,-999999,9,12736,t,44333,57069,5/29/2014,15:39:45,,1,Session1,SessionsList,,,,,,,,,,1,1,1,2,,,217733,,,,,2,1,2,Cued3,MiniBlocks2,,,,,8,1,b,-999999,5,339072,b,716,339788,White,Incongruent,b,Red,0,,0,6,335074,,0,0,,,,,,,8,1,8,,,,Pictures\red.bmp,3000,2000,Pictures\left.bmp,,,,,,,,,,,,,StimulusPr,Pictures\black.bmp,CuedStim3,Left
POP_2,27030,1,"<?xml version=""1.0""?>\n<Clock xmlns:dt=""urn:schemas-microsoft-com:datatypes""><Description dt:dt=""string"">E-Prime Primary Realtime Clock</Description><StartTime><Timestamp dt:dt=""int"">0</Timestamp><DateUtc dt:dt=""string"">2014-05-29T22:39:45Z</DateUtc></StartTime><FrequencyChanges><FrequencyChange><Frequency dt:dt=""r8"">2793040000</Frequency><Timestamp dt:dt=""r8"">284124311866906</Timestamp><Current dt:dt=""r8"">0</Current><DateUtc dt:dt=""string"">2014-05-29T22:39:45Z</DateUtc></FrequencyChange></FrequencyChanges></Clock>\n",60.03,1,-116966627,0,,-999999,9,12736,t,44333,57069,5/29/2014,15:39:45,,1,Session1,SessionsList,,,,,,,,,,1,1,1,2,,,217733,,,,,2,1,2,Cued3,MiniBlocks2,,,,,9,1,r,-999999,18,347085,r,1003,348088,White,Congruent,r,Green,0,,0,3,343070,,0,0,,,,,,,9,1,9,,,,Pictures\green.bmp,3000,2000,Pictures\left.bmp,,,,,,,,,,,,,StimulusPr,Pictures\black.bmp,CuedStim3,Left
POP_2,27030,1,"<?xml version=""1.0""?>\n<Clock xmlns:dt=""urn:schemas-microsoft-com:datatypes""><Description dt:dt=""string"">E-Prime Primary Realtime Clock</Description><StartTime><Timestamp dt:dt=""int"">0</Timestamp><DateUtc dt:dt=""string"">2014-05-29T22:39:45Z</DateUtc></StartTime><FrequencyChanges><FrequencyChange><Frequency dt:dt=""r8"">2793040000</Frequency><Timestamp dt:dt=""r8"">284124311866906</Timestamp><Current dt:dt=""r8"">0</Current><DateUtc dt:dt=""string"">2014-05-29T22:39:45Z</DateUtc></FrequencyChange></FrequencyChanges></Clock>\n",60.03,1,-116966627,0,,-999999,9,12736,t,44333,57069,5/29/2014,15:39:45,,1,Session1,SessionsList,,,,,,,,,,1,1,1,2,,,217733,,,,,2,1,2,Cued3,MiniBlocks2,,,,,10,1,b,-999999,10,362077,b,709,362786,White,Congruent,b,Green,0,,0,15,352082,,0,0,,,,,,,10,1,10,,,,Pictures\green.bmp,9000,10000,Pictures\black.bmp,,,,,,,,,,,,,StimulusPr,Pictures\right.bmp,CuedStim3,Right
POP_2,27030,1,"<?xml version=""1.0""?>\n<Clock xmlns:dt=""urn:schemas-microsoft-com:datatypes""><Description dt:dt=""string"">E-Prime Primary Realtime Clock</Description><StartTime><Timestamp dt:dt=""int"">0</Timestamp><DateUtc dt:dt=""string"">2014-05-29T22:39:45Z</DateUtc></StartTime><FrequencyChanges><FrequencyChange><Frequency dt:dt=""r8"">2793040000</Frequency><Timestamp dt:dt=""r8"">284124311866906</Timestamp><Current dt:dt=""r8"">0</Current><DateUtc dt:dt=""string"">2014-05-29T22:39:45Z</DateUtc></FrequencyChange></FrequencyChanges></Clock>\n",60.03,1,-116966627,0,,-999999,9,12736,t,44333,57069,5/29/2014,15:39:45,,1,Session1,SessionsList,,,,,,,,,,1,1,1,3,,,,372805,,,,3,1,3,Cued4,MiniBlocks2,,,,,1,1,b,-999999,13,390080,b,650,390730,White,Congruent,b,Green,0,,0,16,383083,,0,0,,,,,,,,,,1,1,1,Pictures\green.bmp,6000,2000,Pictures\black.bmp,,,,,,,,,,,,,StimulusPr,Pictures\right.bmp,CuedStim4,Right
POP_2,27030,1,"<?xml version=""1.0""?>\n<Clock xmlns:dt=""urn:schemas-microsoft-com:datatypes""><Description dt:dt=""string"">E-Prime Primary Realtime Clock</Description><StartTime><Timestamp dt:dt=""int"">0</Timestamp><DateUtc dt:dt=""string"">2014-05-29T22:39:45Z</DateUtc></StartTime><FrequencyChanges><FrequencyChange><Frequency dt:dt=""r8"">2793040000</Frequency><Timestamp dt:dt=""r8"">284124311866906</Timestamp><Current dt:dt=""r8"">0</Current><DateUtc dt:dt=""string"">2014-05-29T22:39:45Z</DateUtc></FrequencyChange></FrequencyChanges></Clock>\n",60.03,1,-116966627,0,,-999999,9,12736,t,44333,57069,5/29/2014,15:39:45,,1,Session1,SessionsList,,,,,,,,,,1,1,1,3,,,,372805,,,,3,1,3,Cued4,MiniBlocks2,,,,,2,1,r,-999999,6,404073,r,868,404941,White,Incongruent,r,Red,0,,0,11,394078,,0,0,,,,,,,,,,2,1,2,Pictures\red.bmp,9000,2000,Pictures\black.bmp,,,,,,,,,,,,,StimulusPr,Pictures\right.bmp,CuedStim4,Right
POP_2,27030,1,"<?xml version=""1.0""?>\n<Clock xmlns:dt=""urn:schemas-microsoft-com:datatypes""><Description dt:dt=""string"">E-Prime Primary Realtime Clock</Description><StartTime><Timestamp dt:dt=""int"">0</Timestamp><DateUtc dt:dt=""string"">2014-05-29T22:39:45Z</DateUtc></StartTime><FrequencyChanges><FrequencyChange><Frequency dt:dt=""r8"">2793040000</Frequency><Timestamp dt:dt=""r8"">284124311866906</Timestamp><Current dt:dt=""r8"">0</Current><DateUtc dt:dt=""string"">2014-05-29T22:39:45Z</DateUtc></FrequencyChange></FrequencyChanges></Clock>\n",60.03,1,-116966627,0,,-999999,9,12736,t,44333,57069,5/29/2014,15:39:45,,1,Session1,SessionsList,,,,,,,,,,1,1,1,3,,,,372805,,,,3,1,3,Cued4,MiniBlocks2,,,,,3,1,b,-999999,19,412086,b,758,412844,White,Congruent,b,Green,0,,0,4,408071,,0,0,,,,,,,,,,3,1,3,Pictures\green.bmp,3000,4000,Pictures\black.bmp,,,,,,,,,,,,,StimulusPr,Pictures\right.bmp,CuedStim4,Right
POP_2,27030,1,"<?xml version=""1.0""?>\n<Clock xmlns:dt=""urn:schemas-microsoft-com:datatypes""><Description dt:dt=""string"">E-Prime Primary Realtime Clock</Description><StartTime><Timestamp dt:dt=""int"">0</Timestamp><DateUtc dt:dt=""string"">2014-05-29T22:39:45Z</DateUtc></StartTime><FrequencyChanges><FrequencyChange><Frequency dt:dt=""r8"">2793040000</Frequency><Timestamp dt:dt=""r8"">284124311866906</Timestamp><Current dt:dt=""r8"">0</Current><DateUtc dt:dt=""string"">2014-05-29T22:39:45Z</DateUtc></FrequencyChange></FrequencyChanges></Clock>\n",60.03,1,-116966627,0,,-999999,9,12736,t,44333,57069,5/29/2014,15:39:45,,1,Session1,SessionsList,,,,,,,,,,1,1,1,3,,,,372805,,,,3,1,3,Cued4,MiniBlocks2,,,,,4,1,r,-999999,14,422081,r,755,422836,White,Congruent,r,Green,0,,0,16,418083,,0,0,,,,,,,,,,4,1,4,Pictures\green.bmp,3000,4000,Pictures\left.bmp,,,,,,,,,,,,,StimulusPr,Pictures\black.bmp,CuedStim4,Left
POP_2,27030,1,"<?xml version=""1.0""?>\n<Clock xmlns:dt=""urn:schemas-microsoft-com:datatypes""><Description dt:dt=""string"">E-Prime Primary Realtime Clock</Description><StartTime><Timestamp dt:dt=""int"">0</Timestamp><DateUtc dt:dt=""string"">2014-05-29T22:39:45Z</DateUtc></StartTime><FrequencyChanges><FrequencyChange><Frequency dt:dt=""r8"">2793040000</Frequency><Timestamp dt:dt=""r8"">284124311866906</Timestamp><Current dt:dt=""r8"">0</Current><DateUtc dt:dt=""string"">2014-05-29T22:39:45Z</DateUtc></FrequencyChange></FrequencyChanges></Clock>\n",60.03,1,-116966627,0,,-999999,9,12736,t,44333,57069,5/29/2014,15:39:45,,1,Session1,SessionsList,,,,,,,,,,1,1,1,3,,,,372805,,,,3,1,3,Cued4,MiniBlocks2,,,,,5,1,b,-999999,8,433075,b,831,433906,White,Incongruent,b,Red,0,,0,11,428078,,0,0,,,,,,,,,,5,1,5,Pictures\red.bmp,4000,16000,Pictures\left.bmp,,,,,,,,,,,,,StimulusPr,Pictures\black.bmp,CuedStim4,Left
POP_2,27030,1,"<?xml version=""1.0""?>\n<Clock xmlns:dt=""urn:schemas-microsoft-com:datatypes""><Description dt:dt=""string"">E-Prime Primary Realtime Clock</Description><StartTime><Timestamp dt:dt=""int"">0</Timestamp><DateUtc dt:dt=""string"">2014-05-29T22:39:45Z</DateUtc></StartTime><FrequencyChanges><FrequencyChange><Frequency dt:dt=""r8"">2793040000</Frequency><Timestamp dt:dt=""r8"">284124311866906</Timestamp><Current dt:dt=""r8"">0</Current><DateUtc dt:dt=""string"">2014-05-29T22:39:45Z</DateUtc></FrequencyChange></FrequencyChanges></Clock>\n",60.03,1,-116966627,0,,-999999,9,12736,t,44333,57069,5/29/2014,15:39:45,,1,Session1,SessionsList,,,,,,,,,,1,1,1,3,,,,372805,,,,3,1,3,Cued4,MiniBlocks2,,,,,6,1,b,-999999,14,455081,b,768,455849,White,Congruent,b,Green,0,,0,16,451083,,0,0,,,,,,,,,,6,1,6,Pictures\green.bmp,3000,2000,Pictures\black.bmp,,,,,,,,,,,,,StimulusPr,Pictures\right.bmp,CuedStim4,Right
POP_2,27030,1,"<?xml version=""1.0""?>\n<Clock xmlns:dt=""urn:schemas-microsoft-com:datatypes""><Description dt:dt=""string"">E-Prime Primary Realtime Clock</Description><StartTime><Timestamp dt:dt=""int"">0</Timestamp><DateUtc dt:dt=""string"">2014-05-29T22:39:45Z</DateUtc></StartTime><FrequencyChanges><FrequencyChange><Frequency dt:dt=""r8"">2793040000</Frequency><Timestamp dt:dt=""r8"">284124311866906</Timestamp><Current dt:dt=""r8"">0</Current><DateUtc dt:dt=""string"">2014-05-29T22:39:45Z</DateUtc></FrequencyChange></FrequencyChanges></Clock>\n",60.03,1,-116966627,0,,-999999,9,12736,t,44333,57069,5/29/2014,15:39:45,,1,Session1,SessionsList,,,,,,,,,,1,1,1,3,,,,372805,,,,3,1,3,Cued4,MiniBlocks2,,,,,7,1,b,-999999,7,469074,b,678,469752,White,Congruent,b,Green,0,,0,12,459079,,0,0,,,,,,,,,,7,1,7,Pictures\green.bmp,9000,10000,Pictures\black.bmp,,,,,,,,,,,,,StimulusPr,Pictures\right.bmp,CuedStim4,Right
POP_2,27030,1,"<?xml version=""1.0""?>\n<Clock xmlns:dt=""urn:schemas-microsoft-com:datatypes""><Description dt:dt=""string"">E-Prime Primary Realtime Clock</Description><StartTime><Timestamp dt:dt=""int"">0</Timestamp><DateUtc dt:dt=""string"">2014-05-29T22:39:45Z</DateUtc></StartTime><FrequencyChanges><FrequencyChange><Frequency dt:dt=""r8"">2793040000</Frequency><Timestamp dt:dt=""r8"">284124311866906</Timestamp><Current dt:dt=""r8"">0</Current><DateUtc dt:dt=""string"">2014-05-29T22:39:45Z</DateUtc></FrequencyChange></FrequencyChanges></Clock>\n",60.03,1,-116966627,0,,-999999,9,12736,t,44333,57069,5/29/2014,15:39:45,,1,Session1,SessionsList,,,,,,,,,,1,1,1,3,,,,372805,,,,3,1,3,Cued4,MiniBlocks2,,,,,8,1,b,-999999,14,488081,b,1132,489213,White,Incongruent,b,Red,0,,0,17,481084,,0,0,,,,,,,,,,8,1,8,Pictures\red.bmp,6000,10000,Pictures\left.bmp,,,,,,,,,,,,,StimulusPr,Pictures\black.bmp,CuedStim4,Left
POP_2,27030,1,"<?xml version=""1.0""?>\n<Clock xmlns:dt=""urn:schemas-microsoft-com:datatypes""><Description dt:dt=""string"">E-Prime Primary Realtime Clock</Description><StartTime><Timestamp dt:dt=""int"">0</Timestamp><DateUtc dt:dt=""string"">2014-05-29T22:39:45Z</DateUtc></StartTime><FrequencyChanges><FrequencyChange><Frequency dt:dt=""r8"">2793040000</Frequency><Timestamp dt:dt=""r8"">284124311866906</Timestamp><Current dt:dt=""r8"">0</Current><DateUtc dt:dt=""string"">2014-05-29T22:39:45Z</DateUtc></FrequencyChange></FrequencyChanges></Clock>\n",60.03,1,-116966627,0,,-999999,9,12736,t,44333,57069,5/29/2014,15:39:45,,1,Session1,SessionsList,,,,,,,,,,1,1,1,3,,,,372805,,,,3,1,3,Cued4,MiniBlocks2,,,,,9,1,r,-999999,6,508071,r,1379,509450,White,Congruent,r,Green,0,,0,17,501091,,0,0,,,,,,,,,,9,1,9,Pictures\green.bmp,6000,16000,Pictures\left.bmp,,,,,,,,,,,,,StimulusPr,Pictures\black.bmp,CuedStim4,Left
POP_2,27030,1,"<?xml version=""1.0""?>\n<Clock xmlns:dt=""urn:schemas-microsoft-com:datatypes""><Description dt:dt=""string"">E-Prime Primary Realtime Clock</Description><StartTime><Timestamp dt:dt=""int"">0</Timestamp><DateUtc dt:dt=""string"">2014-05-29T22:39:45Z</DateUtc></StartTime><FrequencyChanges><FrequencyChange><Frequency dt:dt=""r8"">2793040000</Frequency><Timestamp dt:dt=""r8"">284124311866906</Timestamp><Current dt:dt=""r8"">0</Current><DateUtc dt:dt=""string"">2014-05-29T22:39:45Z</DateUtc></FrequencyChange></FrequencyChanges></Clock>\n",60.03,1,-116966627,0,,-999999,9,12736,t,44333,57069,5/29/2014,15:39:45,,1,Session1,SessionsList,,,,,,,,,,1,1,1,3,,,,372805,,,,3,1,3,Cued4,MiniBlocks2,,,,,10,1,r,-999999,13,532075,r,1199,533274,White,Congruent,r,Green,0,,0,17,527078,,0,0,,,,,,,,,,10,1,10,Pictures\green.bmp,4000,2000,Pictures\left.bmp,,,,,,,,,,,,,StimulusPr,Pictures\black.bmp,CuedStim4,Left
POP_2,27030,1,"<?xml version=""1.0""?>\n<Clock xmlns:dt=""urn:schemas-microsoft-com:datatypes""><Description dt:dt=""string"">E-Prime Primary Realtime Clock</Description><StartTime><Timestamp dt:dt=""int"">0</Timestamp><DateUtc dt:dt=""string"">2014-05-29T22:39:45Z</DateUtc></StartTime><FrequencyChanges><FrequencyChange><Frequency dt:dt=""r8"">2793040000</Frequency><Timestamp dt:dt=""r8"">284124311866906</Timestamp><Current dt:dt=""r8"">0</Current><DateUtc dt:dt=""string"">2014-05-29T22:39:45Z</DateUtc></FrequencyChange></FrequencyChanges></Clock>\n",60.03,1,-116966627,0,,-999999,9,12736,t,44333,57069,5/29/2014,15:39:45,,1,Session1,SessionsList,,,,,,,,,,1,1,1,4,,,,,,,,4,1,4,NonCued4,MiniBlocks2,,,,535307,1,1,r,-999999,16,549083,r,723,549806,Green,Congruent,r,White,0,,0,3,545069,,0,0,,,,,,,,,,,,,Pictures\white.bmp,3000,2000,Pictures\GreenLeft.bmp,,,,,,,,,,1,1,1,StimulusPr,Pictures\black.bmp,NonCuedStim4,Left
POP_2,27030,1,"<?xml version=""1.0""?>\n<Clock xmlns:dt=""urn:schemas-microsoft-com:datatypes""><Description dt:dt=""string"">E-Prime Primary Realtime Clock</Description><StartTime><Timestamp dt:dt=""int"">0</Timestamp><DateUtc dt:dt=""string"">2014-05-29T22:39:45Z</DateUtc></StartTime><FrequencyChanges><FrequencyChange><Frequency dt:dt=""r8"">2793040000</Frequency><Timestamp dt:dt=""r8"">284124311866906</Timestamp><Current dt:dt=""r8"">0</Current><DateUtc dt:dt=""string"">2014-05-29T22:39:45Z</DateUtc></FrequencyChange></FrequencyChanges></Clock>\n",60.03,1,-116966627,0,,-999999,9,12736,t,44333,57069,5/29/2014,15:39:45,,1,Session1,SessionsList,,,,,,,,,,1,1,1,4,,,,,,,,4,1,4,NonCued4,MiniBlocks2,,,,535307,2,1,r,-999999,18,558079,r,838,558917,Green,Congruent,r,White,0,,0,2,553065,,0,0,,,,,,,,,,,,,Pictures\white.bmp,4000,2000,Pictures\GreenLeft.bmp,,,,,,,,,,2,1,2,StimulusPr,Pictures\black.bmp,NonCuedStim4,Left
POP_2,27030,1,"<?xml version=""1.0""?>\n<Clock xmlns:dt=""urn:schemas-microsoft-com:datatypes""><Description dt:dt=""string"">E-Prime Primary Realtime Clock</Description><StartTime><Timestamp dt:dt=""int"">0</Timestamp><DateUtc dt:dt=""string"">2014-05-29T22:39:45Z</DateUtc></StartTime><FrequencyChanges><FrequencyChange><Frequency dt:dt=""r8"">2793040000</Frequency><Timestamp dt:dt=""r8"">284124311866906</Timestamp><Current dt:dt=""r8"">0</Current><DateUtc dt:dt=""string"">2014-05-29T22:39:45Z</DateUtc></FrequencyChange></FrequencyChanges></Clock>\n",60.03,1,-116966627,0,,-999999,9,12736,t,44333,57069,5/29/2014,15:39:45,,1,Session1,SessionsList,,,,,,,,,,1,1,1,4,,,,,,,,4,1,4,NonCued4,MiniBlocks2,,,,535307,3,1,r,-999999,8,567074,r,807,567881,Red,Incongruent,r,White,0,,0,10,562077,,0,0,,,,,,,,,,,,,Pictures\white.bmp,4000,2000,Pictures\black.bmp,,,,,,,,,,3,1,3,StimulusPr,Pictures\RedRight.bmp,NonCuedStim4,Right
POP_2,27030,1,"<?xml version=""1.0""?>\n<Clock xmlns:dt=""urn:schemas-microsoft-com:datatypes""><Description dt:dt=""string"">E-Prime Primary Realtime Clock</Description><StartTime><Timestamp dt:dt=""int"">0</Timestamp><DateUtc dt:dt=""string"">2014-05-29T22:39:45Z</DateUtc></StartTime><FrequencyChanges><FrequencyChange><Frequency dt:dt=""r8"">2793040000</Frequency><Timestamp dt:dt=""r8"">284124311866906</Timestamp><Current dt:dt=""r8"">0</Current><DateUtc dt:dt=""string"">2014-05-29T22:39:45Z</DateUtc></FrequencyChange></FrequencyChanges></Clock>\n",60.03,1,-116966627,0,,-999999,9,12736,t,44333,57069,5/29/2014,15:39:45,,1,Session1,SessionsList,,,,,,,,,,1,1,1,4,,,,,,,,4,1,4,NonCued4,MiniBlocks2,,,,535307,4,1,b,-999999,3,575070,b,1705,576775,Green,Congruent,b,White,0,,0,15,571072,,0,0,,,,,,,,,,,,,Pictures\white.bmp,3000,16000,Pictures\black.bmp,,,,,,,,,,4,1,4,StimulusPr,Pictures\GreenRight.bmp,NonCuedStim4,Right
POP_2,27030,1,"<?xml version=""1.0""?>\n<Clock xmlns:dt=""urn:schemas-microsoft-com:datatypes""><Description dt:dt=""string"">E-Prime Primary Realtime Clock</Description><StartTime><Timestamp dt:dt=""int"">0</Timestamp><DateUtc dt:dt=""string"">2014-05-29T22:39:45Z</DateUtc></StartTime><FrequencyChanges><FrequencyChange><Frequency dt:dt=""r8"">2793040000</Frequency><Timestamp dt:dt=""r8"">284124311866906</Timestamp><Current dt:dt=""r8"">0</Current><DateUtc dt:dt=""string"">2014-05-29T22:39:45Z</DateUtc></FrequencyChange></FrequencyChanges></Clock>\n",60.03,1,-116966627,0,,-999999,9,12736,t,44333,57069,5/29/2014,15:39:45,,1,Session1,SessionsList,,,,,,,,,,1,1,1,4,,,,,,,,4,1,4,NonCued4,MiniBlocks2,,,,535307,5,1,r,-999999,7,604072,r,1645,605717,Green,Congruent,r,White,0,,0,10,594077,,0,0,,,,,,,,,,,,,Pictures\white.bmp,9000,10000,Pictures\GreenLeft.bmp,,,,,,,,,,5,1,5,StimulusPr,Pictures\black.bmp,NonCuedStim4,Left
POP_2,27030,1,"<?xml version=""1.0""?>\n<Clock xmlns:dt=""urn:schemas-microsoft-com:datatypes""><Description dt:dt=""string"">E-Prime Primary Realtime Clock</Description><StartTime><Timestamp dt:dt=""int"">0</Timestamp><DateUtc dt:dt=""string"">2014-05-29T22:39:45Z</DateUtc></StartTime><FrequencyChanges><FrequencyChange><Frequency dt:dt=""r8"">2793040000</Frequency><Timestamp dt:dt=""r8"">284124311866906</Timestamp><Current dt:dt=""r8"">0</Current><DateUtc dt:dt=""string"">2014-05-29T22:39:45Z</DateUtc></FrequencyChange></FrequencyChanges></Clock>\n",60.03,1,-116966627,0,,-999999,9,12736,t,44333,57069,5/29/2014,15:39:45,,1,Session1,SessionsList,,,,,,,,,,1,1,1,4,,,,,,,,4,1,4,NonCued4,MiniBlocks2,,,,535307,6,1,b,-999999,14,621080,b,598,621678,Green,Congruent,b,White,0,,0,9,617082,,0,0,,,,,,,,,,,,,Pictures\white.bmp,3000,16000,Pictures\black.bmp,,,,,,,,,,6,1,6,StimulusPr,Pictures\GreenRight.bmp,NonCuedStim4,Right
POP_2,27030,1,"<?xml version=""1.0""?>\n<Clock xmlns:dt=""urn:schemas-microsoft-com:datatypes""><Description dt:dt=""string"">E-Prime Primary Realtime Clock</Description><StartTime><Timestamp dt:dt=""int"">0</Timestamp><DateUtc dt:dt=""string"">2014-05-29T22:39:45Z</DateUtc></StartTime><FrequencyChanges><FrequencyChange><Frequency dt:dt=""r8"">2793040000</Frequency><Timestamp dt:dt=""r8"">284124311866906</Timestamp><Current dt:dt=""r8"">0</Current><DateUtc dt:dt=""string"">2014-05-29T22:39:45Z</DateUtc></FrequencyChange></FrequencyChanges></Clock>\n",60.03,1,-116966627,0,,-999999,9,12736,t,44333,57069,5/29/2014,15:39:45,,1,Session1,SessionsList,,,,,,,,,,1,1,1,4,,,,,,,,4,1,4,NonCued4,MiniBlocks2,,,,535307,7,1,b,-999999,12,643086,b,800,643886,Red,Incongruent,b,White,0,,0,5,639071,,0,0,,,,,,,,,,,,,Pictures\white.bmp,3000,16000,Pictures\RedLeft.bmp,,,,,,,,,,7,1,7,StimulusPr,Pictures\black.bmp,NonCuedStim4,Left
POP_2,27030,1,"<?xml version=""1.0""?>\n<Clock xmlns:dt=""urn:schemas-microsoft-com:datatypes""><Description dt:dt=""string"">E-Prime Primary Realtime Clock</Description><StartTime><Timestamp dt:dt=""int"">0</Timestamp><DateUtc dt:dt=""string"">2014-05-29T22:39:45Z</DateUtc></StartTime><FrequencyChanges><FrequencyChange><Frequency dt:dt=""r8"">2793040000</Frequency><Timestamp dt:dt=""r8"">284124311866906</Timestamp><Current dt:dt=""r8"">0</Current><DateUtc dt:dt=""string"">2014-05-29T22:39:45Z</DateUtc></FrequencyChange></FrequencyChanges></Clock>\n",60.03,1,-116966627,0,,-999999,9,12736,t,44333,57069,5/29/2014,15:39:45,,1,Session1,SessionsList,,,,,,,,,,1,1,1,4,,,,,,,,4,1,4,NonCued4,MiniBlocks2,,,,535307,8,1,r,-999999,9,665075,r,647,665722,Green,Congruent,r,White,0,,0,12,661077,,0,0,,,,,,,,,,,,,Pictures\white.bmp,3000,2000,Pictures\GreenLeft.bmp,,,,,,,,,,8,1,8,StimulusPr,Pictures\black.bmp,NonCuedStim4,Left
POP_2,27030,1,"<?xml version=""1.0""?>\n<Clock xmlns:dt=""urn:schemas-microsoft-com:datatypes""><Description dt:dt=""string"">E-Prime Primary Realtime Clock</Description><StartTime><Timestamp dt:dt=""int"">0</Timestamp><DateUtc dt:dt=""string"">2014-05-29T22:39:45Z</DateUtc></StartTime><FrequencyChanges><FrequencyChange><Frequency dt:dt=""r8"">2793040000</Frequency><Timestamp dt:dt=""r8"">284124311866906</Timestamp><Current dt:dt=""r8"">0</Current><DateUtc dt:dt=""string"">2014-05-29T22:39:45Z</DateUtc></FrequencyChange></FrequencyChanges></Clock>\n",60.03,1,-116966627,0,,-999999,9,12736,t,44333,57069,5/29/2014,15:39:45,,1,Session1,SessionsList,,,,,,,,,,1,1,1,4,,,,,,,,4,1,4,NonCued4,MiniBlocks2,,,,535307,9,1,b,-999999,3,676069,b,999,677068,Green,Congruent,b,White,0,,0,7,669073,,0,0,,,,,,,,,,,,,Pictures\white.bmp,6000,2000,Pictures\black.bmp,,,,,,,,,,9,1,9,StimulusPr,Pictures\GreenRight.bmp,NonCuedStim4,Right
POP_2,27030,1,"<?xml version=""1.0""?>\n<Clock xmlns:dt=""urn:schemas-microsoft-com:datatypes""><Description dt:dt=""string"">E-Prime Primary Realtime Clock</Description><StartTime><Timestamp dt:dt=""int"">0</Timestamp><DateUtc dt:dt=""string"">2014-05-29T22:39:45Z</DateUtc></StartTime><FrequencyChanges><FrequencyChange><Frequency dt:dt=""r8"">2793040000</Frequency><Timestamp dt:dt=""r8"">284124311866906</Timestamp><Current dt:dt=""r8"">0</Current><DateUtc dt:dt=""string"">2014-05-29T22:39:45Z</DateUtc></FrequencyChange></FrequencyChanges></Clock>\n",60.03,1,-116966627,0,,-999999,9,12736,t,44333,57069,5/29/2014,15:39:45,,1,Session1,SessionsList,,,,,,,,,,1,1,1,4,,,,,,,,4,1,4,NonCued4,MiniBlocks2,,,,535307,10,1,b,-999999,15,686081,b,611,686692,Green,Congruent,b,White,0,,0,2,681068,,0,0,,,,,,,,,,,,,Pictures\white.bmp,4000,4000,Pictures\black.bmp,,,,,,,,,,10,1,10,StimulusPr,Pictures\GreenRight.bmp,NonCuedStim4,Right
POP_2,27030,1,"<?xml version=""1.0""?>\n<Clock xmlns:dt=""urn:schemas-microsoft-com:datatypes""><Description dt:dt=""string"">E-Prime Primary Realtime Clock</Description><StartTime><Timestamp dt:dt=""int"">0</Timestamp><DateUtc dt:dt=""string"">2014-05-29T22:39:45Z</DateUtc></StartTime><FrequencyChanges><FrequencyChange><Frequency dt:dt=""r8"">2793040000</Frequency><Timestamp dt:dt=""r8"">284124311866906</Timestamp><Current dt:dt=""r8"">0</Current><DateUtc dt:dt=""string"">2014-05-29T22:39:45Z</DateUtc></FrequencyChange></FrequencyChanges></Clock>\n",60.03,1,-116966627,0,,-999999,9,12736,t,44333,57069,5/29/2014,15:39:45,,2,Session2,SessionsList,0,,-999999,2,717615,t,34201,751816,690712,2,1,2,1,751831,,,,1,1,1,,,,Cued1,MiniBlocks1,,,,,1,1,r,-999999,9,765824,r,859,766683,White,Congruent,r,Green,0,,0,11,760827,,0,0,1,1,1,,,,,,,,,,Pictures\green.bmp,4000,4000,Pictures\left.bmp,,,,,,,,,,,,,StimulusPr,Pictures\black.bmp,CuedStim1,Left
POP_2,27030,1,"<?xml version=""1.0""?>\n<Clock xmlns:dt=""urn:schemas-microsoft-com:datatypes""><Description dt:dt=""string"">E-Prime Primary Realtime Clock</Description><StartTime><Timestamp dt:dt=""int"">0</Timestamp><DateUtc dt:dt=""string"">2014-05-29T22:39:45Z</DateUtc></StartTime><FrequencyChanges><FrequencyChange><Frequency dt:dt=""r8"">2793040000</Frequency><Timestamp dt:dt=""r8"">284124311866906</Timestamp><Current dt:dt=""r8"">0</Current><DateUtc dt:dt=""string"">2014-05-29T22:39:45Z</DateUtc></FrequencyChange></FrequencyChanges></Clock>\n",60.03,1,-116966627,0,,-999999,9,12736,t,44333,57069,5/29/2014,15:39:45,,2,Session2,SessionsList,0,,-999999,2,717615,t,34201,751816,690712,2,1,2,1,751831,,,,1,1,1,,,,Cued1,MiniBlocks1,,,,,2,1,b,-999999,3,778818,b,802,779620,White,Congruent,b,Green,0,,0,5,771821,,0,0,2,1,2,,,,,,,,,,Pictures\green.bmp,6000,2000,Pictures\black.bmp,,,,,,,,,,,,,StimulusPr,Pictures\right.bmp,CuedStim1,Right
POP_2,27030,1,"<?xml version=""1.0""?>\n<Clock xmlns:dt=""urn:schemas-microsoft-com:datatypes""><Description dt:dt=""string"">E-Prime Primary Realtime Clock</Description><StartTime><Timestamp dt:dt=""int"">0</Timestamp><DateUtc dt:dt=""string"">2014-05-29T22:39:45Z</DateUtc></StartTime><FrequencyChanges><FrequencyChange><Frequency dt:dt=""r8"">2793040000</Frequency><Timestamp dt:dt=""r8"">284124311866906</Timestamp><Current dt:dt=""r8"">0</Current><DateUtc dt:dt=""string"">2014-05-29T22:39:45Z</DateUtc></FrequencyChange></FrequencyChanges></Clock>\n",60.03,1,-116966627,0,,-999999,9,12736,t,44333,57069,5/29/2014,15:39:45,,2,Session2,SessionsList,0,,-999999,2,717615,t,34201,751816,690712,2,1,2,1,751831,,,,1,1,1,,,,Cued1,MiniBlocks1,,,,,3,1,b,-999999,15,786830,b,708,787538,White,Congruent,b,Green,0,,0,17,782832,,0,0,3,1,3,,,,,,,,,,Pictures\green.bmp,3000,2000,Pictures\black.bmp,,,,,,,,,,,,,StimulusPr,Pictures\right.bmp,CuedStim1,Right
POP_2,27030,1,"<?xml version=""1.0""?>\n<Clock xmlns:dt=""urn:schemas-microsoft-com:datatypes""><Description dt:dt=""string"">E-Prime Primary Realtime Clock</Description><StartTime><Timestamp dt:dt=""int"">0</Timestamp><DateUtc dt:dt=""string"">2014-05-29T22:39:45Z</DateUtc></StartTime><FrequencyChanges><FrequencyChange><Frequency dt:dt=""r8"">2793040000</Frequency><Timestamp dt:dt=""r8"">284124311866906</Timestamp><Current dt:dt=""r8"">0</Current><DateUtc dt:dt=""string"">2014-05-29T22:39:45Z</DateUtc></FrequencyChange></FrequencyChanges></Clock>\n",60.03,1,-116966627,0,,-999999,9,12736,t,44333,57069,5/29/2014,15:39:45,,2,Session2,SessionsList,0,,-999999,2,717615,t,34201,751816,690712,2,1,2,1,751831,,,,1,1,1,,,,Cued1,MiniBlocks1,,,,,4,1,b,-999999,11,794826,b,696,795522,White,Incongruent,b,Red,0,,0,13,790828,,0,0,4,1,4,,,,,,,,,,Pictures\red.bmp,3000,16000,Pictures\left.bmp,,,,,,,,,,,,,StimulusPr,Pictures\black.bmp,CuedStim1,Left
POP_2,27030,1,"<?xml version=""1.0""?>\n<Clock xmlns:dt=""urn:schemas-microsoft-com:datatypes""><Description dt:dt=""string"">E-Prime Primary Realtime Clock</Description><StartTime><Timestamp dt:dt=""int"">0</Timestamp><DateUtc dt:dt=""string"">2014-05-29T22:39:45Z</DateUtc></StartTime><FrequencyChanges><FrequencyChange><Frequency dt:dt=""r8"">2793040000</Frequency><Timestamp dt:dt=""r8"">284124311866906</Timestamp><Current dt:dt=""r8"">0</Current><DateUtc dt:dt=""string"">2014-05-29T22:39:45Z</DateUtc></FrequencyChange></FrequencyChanges></Clock>\n",60.03,1,-116966627,0,,-999999,9,12736,t,44333,57069,5/29/2014,15:39:45,,2,Session2,SessionsList,0,,-999999,2,717615,t,34201,751816,690712,2,1,2,1,751831,,,,1,1,1,,,,Cued1,MiniBlocks1,,,,,5,1,r,-999999,17,816832,r,622,817454,White,Congruent,r,Green,0,,0,3,812834,,0,0,5,1,5,,,,,,,,,,Pictures\green.bmp,3000,16000,Pictures\left.bmp,,,,,,,,,,,,,StimulusPr,Pictures\black.bmp,CuedStim1,Left
POP_2,27030,1,"<?xml version=""1.0""?>\n<Clock xmlns:dt=""urn:schemas-microsoft-com:datatypes""><Description dt:dt=""string"">E-Prime Primary Realtime Clock</Description><StartTime><Timestamp dt:dt=""int"">0</Timestamp><DateUtc dt:dt=""string"">2014-05-29T22:39:45Z</DateUtc></StartTime><FrequencyChanges><FrequencyChange><Frequency dt:dt=""r8"">2793040000</Frequency><Timestamp dt:dt=""r8"">284124311866906</Timestamp><Current dt:dt=""r8"">0</Current><DateUtc dt:dt=""string"">2014-05-29T22:39:45Z</DateUtc></FrequencyChange></FrequencyChanges></Clock>\n",60.03,1,-116966627,0,,-999999,9,12736,t,44333,57069,5/29/2014,15:39:45,,2,Session2,SessionsList,0,,-999999,2,717615,t,34201,751816,690712,2,1,2,1,751831,,,,1,1,1,,,,Cued1,MiniBlocks1,,,,,6,1,r,-999999,5,844818,r,747,845565,White,Congruent,r,Green,0,,0,9,834840,,0,0,6,1,6,,,,,,,,,,Pictures\green.bmp,9000,10000,Pictures\left.bmp,,,,,,,,,,,,,StimulusPr,Pictures\black.bmp,CuedStim1,Left
POP_2,27030,1,"<?xml version=""1.0""?>\n<Clock xmlns:dt=""urn:schemas-microsoft-com:datatypes""><Description dt:dt=""string"">E-Prime Primary Realtime Clock</Description><StartTime><Timestamp dt:dt=""int"">0</Timestamp><DateUtc dt:dt=""string"">2014-05-29T22:39:45Z</DateUtc></StartTime><FrequencyChanges><FrequencyChange><Frequency dt:dt=""r8"">2793040000</Frequency><Timestamp dt:dt=""r8"">284124311866906</Timestamp><Current dt:dt=""r8"">0</Current><DateUtc dt:dt=""string"">2014-05-29T22:39:45Z</DateUtc></FrequencyChange></FrequencyChanges></Clock>\n",60.03,1,-116966627,0,,-999999,9,12736,t,44333,57069,5/29/2014,15:39:45,,2,Session2,SessionsList,0,,-999999,2,717615,t,34201,751816,690712,2,1,2,1,751831,,,,1,1,1,,,,Cued1,MiniBlocks1,,,,,7,1,b,-999999,12,860827,b,609,861436,White,Congruent,b,Green,0,,0,14,856829,,0,0,7,1,7,,,,,,,,,,Pictures\green.bmp,3000,16000,Pictures\black.bmp,,,,,,,,,,,,,StimulusPr,Pictures\right.bmp,CuedStim1,Right
POP_2,27030,1,"<?xml version=""1.0""?>\n<Clock xmlns:dt=""urn:schemas-microsoft-com:datatypes""><Description dt:dt=""string"">E-Prime Primary Realtime Clock</Description><StartTime><Timestamp dt:dt=""int"">0</Timestamp><DateUtc dt:dt=""string"">2014-05-29T22:39:45Z</DateUtc></StartTime><FrequencyChanges><FrequencyChange><Frequency dt:dt=""r8"">2793040000</Frequency><Timestamp dt:dt=""r8"">284124311866906</Timestamp><Current dt:dt=""r8"">0</Current><DateUtc dt:dt=""string"">2014-05-29T22:39:45Z</DateUtc></FrequencyChange></FrequencyChanges></Clock>\n",60.03,1,-116966627,0,,-999999,9,12736,t,44333,57069,5/29/2014,15:39:45,,2,Session2,SessionsList,0,,-999999,2,717615,t,34201,751816,690712,2,1,2,1,751831,,,,1,1,1,,,,Cued1,MiniBlocks1,,,,,8,1,r,-999999,17,883832,r,888,884720,White,Incongruent,r,Red,0,,0,3,878818,,0,0,8,1,8,,,,,,,,,,Pictures\red.bmp,4000,2000,Pictures\black.bmp,,,,,,,,,,,,,StimulusPr,Pictures\right.bmp,CuedStim1,Right
POP_2,27030,1,"<?xml version=""1.0""?>\n<Clock xmlns:dt=""urn:schemas-microsoft-com:datatypes""><Description dt:dt=""string"">E-Prime Primary Realtime Clock</Description><StartTime><Timestamp dt:dt=""int"">0</Timestamp><DateUtc dt:dt=""string"">2014-05-29T22:39:45Z</DateUtc></StartTime><FrequencyChanges><FrequencyChange><Frequency dt:dt=""r8"">2793040000</Frequency><Timestamp dt:dt=""r8"">284124311866906</Timestamp><Current dt:dt=""r8"">0</Current><DateUtc dt:dt=""string"">2014-05-29T22:39:45Z</DateUtc></FrequencyChange></FrequencyChanges></Clock>\n",60.03,1,-116966627,0,,-999999,9,12736,t,44333,57069,5/29/2014,15:39:45,,2,Session2,SessionsList,0,,-999999,2,717615,t,34201,751816,690712,2,1,2,1,751831,,,,1,1,1,,,,Cued1,MiniBlocks1,,,,,9,1,b,-999999,12,892827,b,681,893508,White,Congruent,b,Green,0,,0,15,887830,,0,0,9,1,9,,,,,,,,,,Pictures\green.bmp,4000,2000,Pictures\black.bmp,,,,,,,,,,,,,StimulusPr,Pictures\right.bmp,CuedStim1,Right
POP_2,27030,1,"<?xml version=""1.0""?>\n<Clock xmlns:dt=""urn:schemas-microsoft-com:datatypes""><Description dt:dt=""string"">E-Prime Primary Realtime Clock</Description><StartTime><Timestamp dt:dt=""int"">0</Timestamp><DateUtc dt:dt=""string"">2014-05-29T22:39:45Z</DateUtc></StartTime><FrequencyChanges><FrequencyChange><Frequency dt:dt=""r8"">2793040000</Frequency><Timestamp dt:dt=""r8"">284124311866906</Timestamp><Current dt:dt=""r8"">0</Current><DateUtc dt:dt=""string"">2014-05-29T22:39:45Z</DateUtc></FrequencyChange></FrequencyChanges></Clock>\n",60.03,1,-116966627,0,,-999999,9,12736,t,44333,57069,5/29/2014,15:39:45,,2,Session2,SessionsList,0,,-999999,2,717615,t,34201,751816,690712,2,1,2,1,751831,,,,1,1,1,,,,Cued1,MiniBlocks1,,,,,10,1,r,-999999,8,900823,r,710,901533,White,Congruent,r,Green,0,,0,12,896842,,0,0,10,1,10,,,,,,,,,,Pictures\green.bmp,3000,2000,Pictures\left.bmp,,,,,,,,,,,,,StimulusPr,Pictures\black.bmp,CuedStim1,Left
POP_2,27030,1,"<?xml version=""1.0""?>\n<Clock xmlns:dt=""urn:schemas-microsoft-com:datatypes""><Description dt:dt=""string"">E-Prime Primary Realtime Clock</Description><StartTime><Timestamp dt:dt=""int"">0</Timestamp><DateUtc dt:dt=""string"">2014-05-29T22:39:45Z</DateUtc></StartTime><FrequencyChanges><FrequencyChange><Frequency dt:dt=""r8"">2793040000</Frequency><Timestamp dt:dt=""r8"">284124311866906</Timestamp><Current dt:dt=""r8"">0</Current><DateUtc dt:dt=""string"">2014-05-29T22:39:45Z</DateUtc></FrequencyChange></FrequencyChanges></Clock>\n",60.03,1,-116966627,0,,-999999,9,12736,t,44333,57069,5/29/2014,15:39:45,,2,Session2,SessionsList,0,,-999999,2,717615,t,34201,751816,690712,2,1,2,2,,,,,2,1,2,,,,NonCued1,MiniBlocks1,903555,,,,1,1,r,-999999,16,918831,r,841,919672,Green,Congruent,r,White,0,,0,2,913817,,0,0,,,,,,,,,,,,,Pictures\white.bmp,4000,2000,Pictures\GreenLeft.bmp,1,1,1,,,,,,,,,,StimulusPr,Pictures\black.bmp,NonCuedStim1,Left
POP_2,27030,1,"<?xml version=""1.0""?>\n<Clock xmlns:dt=""urn:schemas-microsoft-com:datatypes""><Description dt:dt=""string"">E-Prime Primary Realtime Clock</Description><StartTime><Timestamp dt:dt=""int"">0</Timestamp><DateUtc dt:dt=""string"">2014-05-29T22:39:45Z</DateUtc></StartTime><FrequencyChanges><FrequencyChange><Frequency dt:dt=""r8"">2793040000</Frequency><Timestamp dt:dt=""r8"">284124311866906</Timestamp><Current dt:dt=""r8"">0</Current><DateUtc dt:dt=""string"">2014-05-29T22:39:45Z</DateUtc></FrequencyChange></FrequencyChanges></Clock>\n",60.03,1,-116966627,0,,-999999,9,12736,t,44333,57069,5/29/2014,15:39:45,,2,Session2,SessionsList,0,,-999999,2,717615,t,34201,751816,690712,2,1,2,2,,,,,2,1,2,,,,NonCued1,MiniBlocks1,903555,,,,2,1,b,-999999,10,929825,b,736,930561,Green,Congruent,b,White,0,,0,14,922829,,0,0,,,,,,,,,,,,,Pictures\white.bmp,6000,16000,Pictures\black.bmp,2,1,2,,,,,,,,,,StimulusPr,Pictures\GreenRight.bmp,NonCuedStim1,Right
POP_2,27030,1,"<?xml version=""1.0""?>\n<Clock xmlns:dt=""urn:schemas-microsoft-com:datatypes""><Description dt:dt=""string"">E-Prime Primary Realtime Clock</Description><StartTime><Timestamp dt:dt=""int"">0</Timestamp><DateUtc dt:dt=""string"">2014-05-29T22:39:45Z</DateUtc></StartTime><FrequencyChanges><FrequencyChange><Frequency dt:dt=""r8"">2793040000</Frequency><Timestamp dt:dt=""r8"">284124311866906</Timestamp><Current dt:dt=""r8"">0</Current><DateUtc dt:dt=""string"">2014-05-29T22:39:45Z</DateUtc></FrequencyChange></FrequencyChanges></Clock>\n",60.03,1,-116966627,0,,-999999,9,12736,t,44333,57069,5/29/2014,15:39:45,,2,Session2,SessionsList,0,,-999999,2,717615,t,34201,751816,690712,2,1,2,2,,,,,2,1,2,,,,NonCued1,MiniBlocks1,903555,,,,3,1,r,-999999,5,954829,r,611,955440,Red,Incongruent,r,White,0,,0,2,947817,,0,0,,,,,,,,,,,,,Pictures\white.bmp,6000,10000,Pictures\black.bmp,3,1,3,,,,,,,,,,StimulusPr,Pictures\RedRight.bmp,NonCuedStim1,Right
POP_2,27030,1,"<?xml version=""1.0""?>\n<Clock xmlns:dt=""urn:schemas-microsoft-com:datatypes""><Description dt:dt=""string"">E-Prime Primary Realtime Clock</Description><StartTime><Timestamp dt:dt=""int"">0</Timestamp><DateUtc dt:dt=""string"">2014-05-29T22:39:45Z</DateUtc></StartTime><FrequencyChanges><FrequencyChange><Frequency dt:dt=""r8"">2793040000</Frequency><Timestamp dt:dt=""r8"">284124311866906</Timestamp><Current dt:dt=""r8"">0</Current><DateUtc dt:dt=""string"">2014-05-29T22:39:45Z</DateUtc></FrequencyChange></FrequencyChanges></Clock>\n",60.03,1,-116966627,0,,-999999,9,12736,t,44333,57069,5/29/2014,15:39:45,,2,Session2,SessionsList,0,,-999999,2,717615,t,34201,751816,690712,2,1,2,2,,,,,2,1,2,,,,NonCued1,MiniBlocks1,903555,,,,4,1,r,-999999,5,976835,r,2424,979259,Green,Congruent,r,White,0,,0,8,966823,,0,0,,,,,,,,,,,,,Pictures\white.bmp,9000,10000,Pictures\GreenLeft.bmp,4,1,4,,,,,,,,,,StimulusPr,Pictures\black.bmp,NonCuedStim1,Left
POP_2,27030,1,"<?xml version=""1.0""?>\n<Clock xmlns:dt=""urn:schemas-microsoft-com:datatypes""><Description dt:dt=""string"">E-Prime Primary Realtime Clock</Description><StartTime><Timestamp dt:dt=""int"">0</Timestamp><DateUtc dt:dt=""string"">2014-05-29T22:39:45Z</DateUtc></StartTime><FrequencyChanges><FrequencyChange><Frequency dt:dt=""r8"">2793040000</Frequency><Timestamp dt:dt=""r8"">284124311866906</Timestamp><Current dt:dt=""r8"">0</Current><DateUtc dt:dt=""string"">2014-05-29T22:39:45Z</DateUtc></FrequencyChange></FrequencyChanges></Clock>\n",60.03,1,-116966627,0,,-999999,9,12736,t,44333,57069,5/29/2014,15:39:45,,2,Session2,SessionsList,0,,-999999,2,717615,t,34201,751816,690712,2,1,2,2,,,,,2,1,2,,,,NonCued1,MiniBlocks1,903555,,,,5,1,b,-999999,12,994826,b,634,995460,Green,Congruent,b,White,0,,0,14,990828,,0,0,,,,,,,,,,,,,Pictures\white.bmp,3000,2000,Pictures\black.bmp,5,1,5,,,,,,,,,,StimulusPr,Pictures\GreenRight.bmp,NonCuedStim1,Right
POP_2,27030,1,"<?xml version=""1.0""?>\n<Clock xmlns:dt=""urn:schemas-microsoft-com:datatypes""><Description dt:dt=""string"">E-Prime Primary Realtime Clock</Description><StartTime><Timestamp dt:dt=""int"">0</Timestamp><DateUtc dt:dt=""string"">2014-05-29T22:39:45Z</DateUtc></StartTime><FrequencyChanges><FrequencyChange><Frequency dt:dt=""r8"">2793040000</Frequency><Timestamp dt:dt=""r8"">284124311866906</Timestamp><Current dt:dt=""r8"">0</Current><DateUtc dt:dt=""string"">2014-05-29T22:39:45Z</DateUtc></FrequencyChange></FrequencyChanges></Clock>\n",60.03,1,-116966627,0,,-999999,9,12736,t,44333,57069,5/29/2014,15:39:45,,2,Session2,SessionsList,0,,-999999,2,717615,t,34201,751816,690712,2,1,2,2,,,,,2,1,2,,,,NonCued1,MiniBlocks1,903555,,,,6,1,b,-999999,7,1003821,b,820,1004641,Red,Incongruent,b,White,0,,0,11,998841,,0,0,,,,,,,,,,,,,Pictures\white.bmp,4000,16000,Pictures\RedLeft.bmp,6,1,6,,,,,,,,,,StimulusPr,Pictures\black.bmp,NonCuedStim1,Left
POP_2,27030,1,"<?xml version=""1.0""?>\n<Clock xmlns:dt=""urn:schemas-microsoft-com:datatypes""><Description dt:dt=""string"">E-Prime Primary Realtime Clock</Description><StartTime><Timestamp dt:dt=""int"">0</Timestamp><DateUtc dt:dt=""string"">2014-05-29T22:39:45Z</DateUtc></StartTime><FrequencyChanges><FrequencyChange><Frequency dt:dt=""r8"">2793040000</Frequency><Timestamp dt:dt=""r8"">284124311866906</Timestamp><Current dt:dt=""r8"">0</Current><DateUtc dt:dt=""string"">2014-05-29T22:39:45Z</DateUtc></FrequencyChange></FrequencyChanges></Clock>\n",60.03,1,-116966627,0,,-999999,9,12736,t,44333,57069,5/29/2014,15:39:45,,2,Session2,SessionsList,0,,-999999,2,717615,t,34201,751816,690712,2,1,2,2,,,,,2,1,2,,,,NonCued1,MiniBlocks1,903555,,,,7,1,b,-999999,14,1025827,b,624,1026451,Green,Congruent,b,White,0,,0,16,1021846,,0,0,,,,,,,,,,,,,Pictures\white.bmp,3000,4000,Pictures\black.bmp,7,1,7,,,,,,,,,,StimulusPr,Pictures\GreenRight.bmp,NonCuedStim1,Right
POP_2,27030,1,"<?xml version=""1.0""?>\n<Clock xmlns:dt=""urn:schemas-microsoft-com:datatypes""><Description dt:dt=""string"">E-Prime Primary Realtime Clock</Description><StartTime><Timestamp dt:dt=""int"">0</Timestamp><DateUtc dt:dt=""string"">2014-05-29T22:39:45Z</DateUtc></StartTime><FrequencyChanges><FrequencyChange><Frequency dt:dt=""r8"">2793040000</Frequency><Timestamp dt:dt=""r8"">284124311866906</Timestamp><Current dt:dt=""r8"">0</Current><DateUtc dt:dt=""string"">2014-05-29T22:39:45Z</DateUtc></FrequencyChange></FrequencyChanges></Clock>\n",60.03,1,-116966627,0,,-999999,9,12736,t,44333,57069,5/29/2014,15:39:45,,2,Session2,SessionsList,0,,-999999,2,717615,t,34201,751816,690712,2,1,2,2,,,,,2,1,2,,,,NonCued1,MiniBlocks1,903555,,,,8,1,b,-999999,8,1035822,b,626,1036448,Green,Congruent,b,White,0,,0,10,1031824,,0,0,,,,,,,,,,,,,Pictures\white.bmp,3000,4000,Pictures\black.bmp,8,1,8,,,,,,,,,,StimulusPr,Pictures\GreenRight.bmp,NonCuedStim1,Right
POP_2,27030,1,"<?xml version=""1.0""?>\n<Clock xmlns:dt=""urn:schemas-microsoft-com:datatypes""><Description dt:dt=""string"">E-Prime Primary Realtime Clock</Description><StartTime><Timestamp dt:dt=""int"">0</Timestamp><DateUtc dt:dt=""string"">2014-05-29T22:39:45Z</DateUtc></StartTime><FrequencyChanges><FrequencyChange><Frequency dt:dt=""r8"">2793040000</Frequency><Timestamp dt:dt=""r8"">284124311866906</Timestamp><Current dt:dt=""r8"">0</Current><DateUtc dt:dt=""string"">2014-05-29T22:39:45Z</DateUtc></FrequencyChange></FrequencyChanges></Clock>\n",60.03,1,-116966627,0,,-999999,9,12736,t,44333,57069,5/29/2014,15:39:45,,2,Session2,SessionsList,0,,-999999,2,717615,t,34201,751816,690712,2,1,2,2,,,,,2,1,2,,,,NonCued1,MiniBlocks1,903555,,,,9,1,b,-999999,17,1051831,b,1117,1052948,Red,Incongruent,b,White,0,,0,6,1041836,,0,0,,,,,,,,,,,,,Pictures\white.bmp,9000,2000,Pictures\RedLeft.bmp,9,1,9,,,,,,,,,,StimulusPr,Pictures\black.bmp,NonCuedStim1,Left
POP_2,27030,1,"<?xml version=""1.0""?>\n<Clock xmlns:dt=""urn:schemas-microsoft-com:datatypes""><Description dt:dt=""string"">E-Prime Primary Realtime Clock</Description><StartTime><Timestamp dt:dt=""int"">0</Timestamp><DateUtc dt:dt=""string"">2014-05-29T22:39:45Z</DateUtc></StartTime><FrequencyChanges><FrequencyChange><Frequency dt:dt=""r8"">2793040000</Frequency><Timestamp dt:dt=""r8"">284124311866906</Timestamp><Current dt:dt=""r8"">0</Current><DateUtc dt:dt=""string"">2014-05-29T22:39:45Z</DateUtc></FrequencyChange></FrequencyChanges></Clock>\n",60.03,1,-116966627,0,,-999999,9,12736,t,44333,57069,5/29/2014,15:39:45,,2,Session2,SessionsList,0,,-999999,2,717615,t,34201,751816,690712,2,1,2,2,,,,,2,1,2,,,,NonCued1,MiniBlocks1,903555,,,,10,1,r,-999999,11,1063825,r,986,1064811,Green,Congruent,r,White,0,,0,14,1056828,,0,0,,,,,,,,,,,,,Pictures\white.bmp,6000,2000,Pictures\GreenLeft.bmp,10,1,10,,,,,,,,,,StimulusPr,Pictures\black.bmp,NonCuedStim1,Left
POP_2,27030,1,"<?xml version=""1.0""?>\n<Clock xmlns:dt=""urn:schemas-microsoft-com:datatypes""><Description dt:dt=""string"">E-Prime Primary Realtime Clock</Description><StartTime><Timestamp dt:dt=""int"">0</Timestamp><DateUtc dt:dt=""string"">2014-05-29T22:39:45Z</DateUtc></StartTime><FrequencyChanges><FrequencyChange><Frequency dt:dt=""r8"">2793040000</Frequency><Timestamp dt:dt=""r8"">284124311866906</Timestamp><Current dt:dt=""r8"">0</Current><DateUtc dt:dt=""string"">2014-05-29T22:39:45Z</DateUtc></FrequencyChange></FrequencyChanges></Clock>\n",60.03,1,-116966627,0,,-999999,9,12736,t,44333,57069,5/29/2014,15:39:45,,2,Session2,SessionsList,0,,-999999,2,717615,t,34201,751816,690712,2,1,2,3,,,,,3,1,3,,,,NonCued2,MiniBlocks1,,1066840,,,1,1,b,-999999,16,1086830,b,904,1087734,Green,Congruent,b,White,0,,0,4,1076818,,0,0,,,,,,,,,,,,,Pictures\white.bmp,9000,10000,Pictures\black.bmp,,,,1,1,1,,,,,,,StimulusPr,Pictures\GreenRight.bmp,NonCuedStim2,Right
POP_2,27030,1,"<?xml version=""1.0""?>\n<Clock xmlns:dt=""urn:schemas-microsoft-com:datatypes""><Description dt:dt=""string"">E-Prime Primary Realtime Clock</Description><StartTime><Timestamp dt:dt=""int"">0</Timestamp><DateUtc dt:dt=""string"">2014-05-29T22:39:45Z</DateUtc></StartTime><FrequencyChanges><FrequencyChange><Frequency dt:dt=""r8"">2793040000</Frequency><Timestamp dt:dt=""r8"">284124311866906</Timestamp><Current dt:dt=""r8"">0</Current><DateUtc dt:dt=""string"">2014-05-29T22:39:45Z</DateUtc></FrequencyChange></FrequencyChanges></Clock>\n",60.03,1,-116966627,0,,-999999,9,12736,t,44333,57069,5/29/2014,15:39:45,,2,Session2,SessionsList,0,,-999999,2,717615,t,34201,751816,690712,2,1,2,3,,,,,3,1,3,,,,NonCued2,MiniBlocks1,,1066840,,,2,1,r,-999999,8,1102822,r,592,1103414,Green,Congruent,r,White,0,,0,10,1098824,,0,0,,,,,,,,,,,,,Pictures\white.bmp,3000,2000,Pictures\GreenLeft.bmp,,,,2,1,2,,,,,,,StimulusPr,Pictures\black.bmp,NonCuedStim2,Left
POP_2,27030,1,"<?xml version=""1.0""?>\n<Clock xmlns:dt=""urn:schemas-microsoft-com:datatypes""><Description dt:dt=""string"">E-Prime Primary Realtime Clock</Description><StartTime><Timestamp dt:dt=""int"">0</Timestamp><DateUtc dt:dt=""string"">2014-05-29T22:39:45Z</DateUtc></StartTime><FrequencyChanges><FrequencyChange><Frequency dt:dt=""r8"">2793040000</Frequency><Timestamp dt:dt=""r8"">284124311866906</Timestamp><Current dt:dt=""r8"">0</Current><DateUtc dt:dt=""string"">2014-05-29T22:39:45Z</DateUtc></FrequencyChange></FrequencyChanges></Clock>\n",60.03,1,-116966627,0,,-999999,9,12736,t,44333,57069,5/29/2014,15:39:45,,2,Session2,SessionsList,0,,-999999,2,717615,t,34201,751816,690712,2,1,2,3,,,,,3,1,3,,,,NonCued2,MiniBlocks1,,1066840,,,3,1,r,-999999,4,1110818,r,1082,1111900,Red,Incongruent,r,White,0,,0,7,1106836,,0,0,,,,,,,,,,,,,Pictures\white.bmp,3000,2000,Pictures\black.bmp,,,,3,1,3,,,,,,,StimulusPr,Pictures\RedRight.bmp,NonCuedStim2,Right
POP_2,27030,1,"<?xml version=""1.0""?>\n<Clock xmlns:dt=""urn:schemas-microsoft-com:datatypes""><Description dt:dt=""string"">E-Prime Primary Realtime Clock</Description><StartTime><Timestamp dt:dt=""int"">0</Timestamp><DateUtc dt:dt=""string"">2014-05-29T22:39:45Z</DateUtc></StartTime><FrequencyChanges><FrequencyChange><Frequency dt:dt=""r8"">2793040000</Frequency><Timestamp dt:dt=""r8"">284124311866906</Timestamp><Current dt:dt=""r8"">0</Current><DateUtc dt:dt=""string"">2014-05-29T22:39:45Z</DateUtc></FrequencyChange></FrequencyChanges></Clock>\n",60.03,1,-116966627,0,,-999999,9,12736,t,44333,57069,5/29/2014,15:39:45,,2,Session2,SessionsList,0,,-999999,2,717615,t,34201,751816,690712,2,1,2,3,,,,,3,1,3,,,,NonCued2,MiniBlocks1,,1066840,,,4,1,r,-999999,15,1120829,r,822,1121651,Green,Congruent,r,White,0,,0,18,1115832,,0,0,,,,,,,,,,,,,Pictures\white.bmp,4000,16000,Pictures\GreenLeft.bmp,,,,4,1,4,,,,,,,StimulusPr,Pictures\black.bmp,NonCuedStim2,Left
POP_2,27030,1,"<?xml version=""1.0""?>\n<Clock xmlns:dt=""urn:schemas-microsoft-com:datatypes""><Description dt:dt=""string"">E-Prime Primary Realtime Clock</Description><StartTime><Timestamp dt:dt=""int"">0</Timestamp><DateUtc dt:dt=""string"">2014-05-29T22:39:45Z</DateUtc></StartTime><FrequencyChanges><FrequencyChange><Frequency dt:dt=""r8"">2793040000</Frequency><Timestamp dt:dt=""r8"">284124311866906</Timestamp><Current dt:dt=""r8"">0</Current><DateUtc dt:dt=""string"">2014-05-29T22:39:45Z</DateUtc></FrequencyChange></FrequencyChanges></Clock>\n",60.03,1,-116966627,0,,-999999,9,12736,t,44333,57069,5/29/2014,15:39:45,,2,Session2,SessionsList,0,,-999999,2,717615,t,34201,751816,690712,2,1,2,3,,,,,3,1,3,,,,NonCued2,MiniBlocks1,,1066840,,,5,1,r,-999999,3,1145817,r,621,1146438,Green,Congruent,r,White,0,,0,6,1138820,,0,0,,,,,,,,,,,,,Pictures\white.bmp,6000,4000,Pictures\GreenLeft.bmp,,,,5,1,5,,,,,,,StimulusPr,Pictures\black.bmp,NonCuedStim2,Left
POP_2,27030,1,"<?xml version=""1.0""?>\n<Clock xmlns:dt=""urn:schemas-microsoft-com:datatypes""><Description dt:dt=""string"">E-Prime Primary Realtime Clock</Description><StartTime><Timestamp dt:dt=""int"">0</Timestamp><DateUtc dt:dt=""string"">2014-05-29T22:39:45Z</DateUtc></StartTime><FrequencyChanges><FrequencyChange><Frequency dt:dt=""r8"">2793040000</Frequency><Timestamp dt:dt=""r8"">284124311866906</Timestamp><Current dt:dt=""r8"">0</Current><DateUtc dt:dt=""string"">2014-05-29T22:39:45Z</DateUtc></FrequencyChange></FrequencyChanges></Clock>\n",60.03,1,-116966627,0,,-999999,9,12736,t,44333,57069,5/29/2014,15:39:45,,2,Session2,SessionsList,0,,-999999,2,717615,t,34201,751816,690712,2,1,2,3,,,,,3,1,3,,,,NonCued2,MiniBlocks1,,1066840,,,6,1,b,-999999,14,1155828,b,1556,1157384,Red,Incongruent,b,White,0,,0,16,1151830,,0,0,,,,,,,,,,,,,Pictures\white.bmp,3000,4000,Pictures\RedLeft.bmp,,,,6,1,6,,,,,,,StimulusPr,Pictures\black.bmp,NonCuedStim2,Left
POP_2,27030,1,"<?xml version=""1.0""?>\n<Clock xmlns:dt=""urn:schemas-microsoft-com:datatypes""><Description dt:dt=""string"">E-Prime Primary Realtime Clock</Description><StartTime><Timestamp dt:dt=""int"">0</Timestamp><DateUtc dt:dt=""string"">2014-05-29T22:39:45Z</DateUtc></StartTime><FrequencyChanges><FrequencyChange><Frequency dt:dt=""r8"">2793040000</Frequency><Timestamp dt:dt=""r8"">284124311866906</Timestamp><Current dt:dt=""r8"">0</Current><DateUtc dt:dt=""string"">2014-05-29T22:39:45Z</DateUtc></FrequencyChange></FrequencyChanges></Clock>\n",60.03,1,-116966627,0,,-999999,9,12736,t,44333,57069,5/29/2014,15:39:45,,2,Session2,SessionsList,0,,-999999,2,717615,t,34201,751816,690712,2,1,2,3,,,,,3,1,3,,,,NonCued2,MiniBlocks1,,1066840,,,7,1,b,-999999,8,1167822,b,768,1168590,Green,Congruent,b,White,0,,0,11,1162825,,0,0,,,,,,,,,,,,,Pictures\white.bmp,4000,16000,Pictures\black.bmp,,,,7,1,7,,,,,,,StimulusPr,Pictures\GreenRight.bmp,NonCuedStim2,Right
POP_2,27030,1,"<?xml version=""1.0""?>\n<Clock xmlns:dt=""urn:schemas-microsoft-com:datatypes""><Description dt:dt=""string"">E-Prime Primary Realtime Clock</Description><StartTime><Timestamp dt:dt=""int"">0</Timestamp><DateUtc dt:dt=""string"">2014-05-29T22:39:45Z</DateUtc></StartTime><FrequencyChanges><FrequencyChange><Frequency dt:dt=""r8"">2793040000</Frequency><Timestamp dt:dt=""r8"">284124311866906</Timestamp><Current dt:dt=""r8"">0</Current><DateUtc dt:dt=""string"">2014-05-29T22:39:45Z</DateUtc></FrequencyChange></FrequencyChanges></Clock>\n",60.03,1,-116966627,0,,-999999,9,12736,t,44333,57069,5/29/2014,15:39:45,,2,Session2,SessionsList,0,,-999999,2,717615,t,34201,751816,690712,2,1,2,3,,,,,3,1,3,,,,NonCued2,MiniBlocks1,,1066840,,,8,1,r,-999999,11,1195825,r,746,1196571,Green,Congruent,r,White,0,,0,16,1185830,,0,0,,,,,,,,,,,,,Pictures\white.bmp,9000,2000,Pictures\GreenLeft.bmp,,,,8,1,8,,,,,,,StimulusPr,Pictures\black.bmp,NonCuedStim2,Left
POP_2,27030,1,"<?xml version=""1.0""?>\n<Clock xmlns:dt=""urn:schemas-microsoft-com:datatypes""><Description dt:dt=""string"">E-Prime Primary Realtime Clock</Description><StartTime><Timestamp dt:dt=""int"">0</Timestamp><DateUtc dt:dt=""string"">2014-05-29T22:39:45Z</DateUtc></StartTime><FrequencyChanges><FrequencyChange><Frequency dt:dt=""r8"">2793040000</Frequency><Timestamp dt:dt=""r8"">284124311866906</Timestamp><Current dt:dt=""r8"">0</Current><DateUtc dt:dt=""string"">2014-05-29T22:39:45Z</DateUtc></FrequencyChange></FrequencyChanges></Clock>\n",60.03,1,-116966627,0,,-999999,9,12736,t,44333,57069,5/29/2014,15:39:45,,2,Session2,SessionsList,0,,-999999,2,717615,t,34201,751816,690712,2,1,2,3,,,,,3,1,3,,,,NonCued2,MiniBlocks1,,1066840,,,9,1,b,-999999,8,1203837,b,733,1204570,Green,Congruent,b,White,0,,0,10,1199823,,0,0,,,,,,,,,,,,,Pictures\white.bmp,3000,10000,Pictures\black.bmp,,,,9,1,9,,,,,,,StimulusPr,Pictures\GreenRight.bmp,NonCuedStim2,Right
POP_2,27030,1,"<?xml version=""1.0""?>\n<Clock xmlns:dt=""urn:schemas-microsoft-com:datatypes""><Description dt:dt=""string"">E-Prime Primary Realtime Clock</Description><StartTime><Timestamp dt:dt=""int"">0</Timestamp><DateUtc dt:dt=""string"">2014-05-29T22:39:45Z</DateUtc></StartTime><FrequencyChanges><FrequencyChange><Frequency dt:dt=""r8"">2793040000</Frequency><Timestamp dt:dt=""r8"">284124311866906</Timestamp><Current dt:dt=""r8"">0</Current><DateUtc dt:dt=""string"">2014-05-29T22:39:45Z</DateUtc></FrequencyChange></FrequencyChanges></Clock>\n",60.03,1,-116966627,0,,-999999,9,12736,t,44333,57069,5/29/2014,15:39:45,,2,Session2,SessionsList,0,,-999999,2,717615,t,34201,751816,690712,2,1,2,3,,,,,3,1,3,,,,NonCued2,MiniBlocks1,,1066840,,,10,1,b,-999999,16,1219829,b,541,1220370,Green,Congruent,b,White,0,,0,2,1215815,,0,0,,,,,,,,,,,,,Pictures\white.bmp,3000,2000,Pictures\black.bmp,,,,10,1,10,,,,,,,StimulusPr,Pictures\GreenRight.bmp,NonCuedStim2,Right
POP_2,27030,1,"<?xml version=""1.0""?>\n<Clock xmlns:dt=""urn:schemas-microsoft-com:datatypes""><Description dt:dt=""string"">E-Prime Primary Realtime Clock</Description><StartTime><Timestamp dt:dt=""int"">0</Timestamp><DateUtc dt:dt=""string"">2014-05-29T22:39:45Z</DateUtc></StartTime><FrequencyChanges><FrequencyChange><Frequency dt:dt=""r8"">2793040000</Frequency><Timestamp dt:dt=""r8"">284124311866906</Timestamp><Current dt:dt=""r8"">0</Current><DateUtc dt:dt=""string"">2014-05-29T22:39:45Z</DateUtc></FrequencyChange></FrequencyChanges></Clock>\n",60.03,1,-116966627,0,,-999999,9,12736,t,44333,57069,5/29/2014,15:39:45,,2,Session2,SessionsList,0,,-999999,2,717615,t,34201,751816,690712,2,1,2,4,,1222395,,,4,1,4,,,,Cued2,MiniBlocks1,,,,,1,1,b,-999999,6,1239819,b,661,1240480,White,Congruent,b,Green,0,,0,11,1232840,,0,0,,,,1,1,1,,,,,,,Pictures\green.bmp,6000,4000,Pictures\black.bmp,,,,,,,,,,,,,StimulusPr,Pictures\right.bmp,CuedStim2,Right
POP_2,27030,1,"<?xml version=""1.0""?>\n<Clock xmlns:dt=""urn:schemas-microsoft-com:datatypes""><Description dt:dt=""string"">E-Prime Primary Realtime Clock</Description><StartTime><Timestamp dt:dt=""int"">0</Timestamp><DateUtc dt:dt=""string"">2014-05-29T22:39:45Z</DateUtc></StartTime><FrequencyChanges><FrequencyChange><Frequency dt:dt=""r8"">2793040000</Frequency><Timestamp dt:dt=""r8"">284124311866906</Timestamp><Current dt:dt=""r8"">0</Current><DateUtc dt:dt=""string"">2014-05-29T22:39:45Z</DateUtc></FrequencyChange></FrequencyChanges></Clock>\n",60.03,1,-116966627,0,,-999999,9,12736,t,44333,57069,5/29/2014,15:39:45,,2,Session2,SessionsList,0,,-999999,2,717615,t,34201,751816,690712,2,1,2,4,,1222395,,,4,1,4,,,,Cued2,MiniBlocks1,,,,,2,1,b,-999999,15,1255828,b,1083,1256911,White,Congruent,b,Green,0,,0,3,1245816,,0,0,,,,2,1,2,,,,,,,Pictures\green.bmp,9000,10000,Pictures\black.bmp,,,,,,,,,,,,,StimulusPr,Pictures\right.bmp,CuedStim2,Right
POP_2,27030,1,"<?xml version=""1.0""?>\n<Clock xmlns:dt=""urn:schemas-microsoft-com:datatypes""><Description dt:dt=""string"">E-Prime Primary Realtime Clock</Description><StartTime><Timestamp dt:dt=""int"">0</Timestamp><DateUtc dt:dt=""string"">2014-05-29T22:39:45Z</DateUtc></StartTime><FrequencyChanges><FrequencyChange><Frequency dt:dt=""r8"">2793040000</Frequency><Timestamp dt:dt=""r8"">284124311866906</Timestamp><Current dt:dt=""r8"">0</Current><DateUtc dt:dt=""string"">2014-05-29T22:39:45Z</DateUtc></FrequencyChange></FrequencyChanges></Clock>\n",60.03,1,-116966627,0,,-999999,9,12736,t,44333,57069,5/29/2014,15:39:45,,2,Session2,SessionsList,0,,-999999,2,717615,t,34201,751816,690712,2,1,2,4,,1222395,,,4,1,4,,,,Cued2,MiniBlocks1,,,,,3,1,r,-999999,7,1272836,r,831,1273667,White,Incongruent,r,Red,0,,0,8,1268821,,0,0,,,,3,1,3,,,,,,,Pictures\red.bmp,3000,2000,Pictures\black.bmp,,,,,,,,,,,,,StimulusPr,Pictures\right.bmp,CuedStim2,Right
POP_2,27030,1,"<?xml version=""1.0""?>\n<Clock xmlns:dt=""urn:schemas-microsoft-com:datatypes""><Description dt:dt=""string"">E-Prime Primary Realtime Clock</Description><StartTime><Timestamp dt:dt=""int"">0</Timestamp><DateUtc dt:dt=""string"">2014-05-29T22:39:45Z</DateUtc></StartTime><FrequencyChanges><FrequencyChange><Frequency dt:dt=""r8"">2793040000</Frequency><Timestamp dt:dt=""r8"">284124311866906</Timestamp><Current dt:dt=""r8"">0</Current><DateUtc dt:dt=""string"">2014-05-29T22:39:45Z</DateUtc></FrequencyChange></FrequencyChanges></Clock>\n",60.03,1,-116966627,0,,-999999,9,12736,t,44333,57069,5/29/2014,15:39:45,,2,Session2,SessionsList,0,,-999999,2,717615,t,34201,751816,690712,2,1,2,4,,1222395,,,4,1,4,,,,Cued2,MiniBlocks1,,,,,4,0,r,-999999,18,1283831,b,966,1284797,White,Congruent,r,Green,0,,0,4,1276817,,0,0,,,,4,1,4,,,,,,,Pictures\green.bmp,6000,16000,Pictures\left.bmp,,,,,,,,,,,,,StimulusPr,Pictures\black.bmp,CuedStim2,Left
POP_2,27030,1,"<?xml version=""1.0""?>\n<Clock xmlns:dt=""urn:schemas-microsoft-com:datatypes""><Description dt:dt=""string"">E-Prime Primary Realtime Clock</Description><StartTime><Timestamp dt:dt=""int"">0</Timestamp><DateUtc dt:dt=""string"">2014-05-29T22:39:45Z</DateUtc></StartTime><FrequencyChanges><FrequencyChange><Frequency dt:dt=""r8"">2793040000</Frequency><Timestamp dt:dt=""r8"">284124311866906</Timestamp><Current dt:dt=""r8"">0</Current><DateUtc dt:dt=""string"">2014-05-29T22:39:45Z</DateUtc></FrequencyChange></FrequencyChanges></Clock>\n",60.03,1,-116966627,0,,-999999,9,12736,t,44333,57069,5/29/2014,15:39:45,,2,Session2,SessionsList,0,,-999999,2,717615,t,34201,751816,690712,2,1,2,4,,1222395,,,4,1,4,,,,Cued2,MiniBlocks1,,,,,5,1,b,-999999,6,1306819,b,831,1307650,White,Congruent,b,Green,0,,0,9,1302838,,0,0,,,,5,1,5,,,,,,,Pictures\green.bmp,3000,2000,Pictures\black.bmp,,,,,,,,,,,,,StimulusPr,Pictures\right.bmp,CuedStim2,Right
POP_2,27030,1,"<?xml version=""1.0""?>\n<Clock xmlns:dt=""urn:schemas-microsoft-com:datatypes""><Description dt:dt=""string"">E-Prime Primary Realtime Clock</Description><StartTime><Timestamp dt:dt=""int"">0</Timestamp><DateUtc dt:dt=""string"">2014-05-29T22:39:45Z</DateUtc></StartTime><FrequencyChanges><FrequencyChange><Frequency dt:dt=""r8"">2793040000</Frequency><Timestamp dt:dt=""r8"">284124311866906</Timestamp><Current dt:dt=""r8"">0</Current><DateUtc dt:dt=""string"">2014-05-29T22:39:45Z</DateUtc></FrequencyChange></FrequencyChanges></Clock>\n",60.03,1,-116966627,0,,-999999,9,12736,t,44333,57069,5/29/2014,15:39:45,,2,Session2,SessionsList,0,,-999999,2,717615,t,34201,751816,690712,2,1,2,4,,1222395,,,4,1,4,,,,Cued2,MiniBlocks1,,,,,6,1,r,-999999,2,1314815,r,608,1315423,White,Congruent,r,Green,0,,0,5,1310834,,0,0,,,,6,1,6,,,,,,,Pictures\green.bmp,3000,2000,Pictures\left.bmp,,,,,,,,,,,,,StimulusPr,Pictures\black.bmp,CuedStim2,Left
POP_2,27030,1,"<?xml version=""1.0""?>\n<Clock xmlns:dt=""urn:schemas-microsoft-com:datatypes""><Description dt:dt=""string"">E-Prime Primary Realtime Clock</Description><StartTime><Timestamp dt:dt=""int"">0</Timestamp><DateUtc dt:dt=""string"">2014-05-29T22:39:45Z</DateUtc></StartTime><FrequencyChanges><FrequencyChange><Frequency dt:dt=""r8"">2793040000</Frequency><Timestamp dt:dt=""r8"">284124311866906</Timestamp><Current dt:dt=""r8"">0</Current><DateUtc dt:dt=""string"">2014-05-29T22:39:45Z</DateUtc></FrequencyChange></FrequencyChanges></Clock>\n",60.03,1,-116966627,0,,-999999,9,12736,t,44333,57069,5/29/2014,15:39:45,,2,Session2,SessionsList,0,,-999999,2,717615,t,34201,751816,690712,2,1,2,4,,1222395,,,4,1,4,,,,Cued2,MiniBlocks1,,,,,7,1,b,-999999,13,1325826,b,940,1326766,White,Incongruent,b,Red,0,,0,17,1318830,,0,0,,,,7,1,7,,,,,,,Pictures\red.bmp,6000,4000,Pictures\left.bmp,,,,,,,,,,,,,StimulusPr,Pictures\black.bmp,CuedStim2,Left
POP_2,27030,1,"<?xml version=""1.0""?>\n<Clock xmlns:dt=""urn:schemas-microsoft-com:datatypes""><Description dt:dt=""string"">E-Prime Primary Realtime Clock</Description><StartTime><Timestamp dt:dt=""int"">0</Timestamp><DateUtc dt:dt=""string"">2014-05-29T22:39:45Z</DateUtc></StartTime><FrequencyChanges><FrequencyChange><Frequency dt:dt=""r8"">2793040000</Frequency><Timestamp dt:dt=""r8"">284124311866906</Timestamp><Current dt:dt=""r8"">0</Current><DateUtc dt:dt=""string"">2014-05-29T22:39:45Z</DateUtc></FrequencyChange></FrequencyChanges></Clock>\n",60.03,1,-116966627,0,,-999999,9,12736,t,44333,57069,5/29/2014,15:39:45,,2,Session2,SessionsList,0,,-999999,2,717615,t,34201,751816,690712,2,1,2,4,,1222395,,,4,1,4,,,,Cued2,MiniBlocks1,,,,,8,1,b,-999999,8,1336821,b,667,1337488,White,Congruent,b,Green,0,,0,10,1331823,,0,0,,,,8,1,8,,,,,,,Pictures\green.bmp,4000,4000,Pictures\black.bmp,,,,,,,,,,,,,StimulusPr,Pictures\right.bmp,CuedStim2,Right
POP_2,27030,1,"<?xml version=""1.0""?>\n<Clock xmlns:dt=""urn:schemas-microsoft-com:datatypes""><Description dt:dt=""string"">E-Prime Primary Realtime Clock</Description><StartTime><Timestamp dt:dt=""int"">0</Timestamp><DateUtc dt:dt=""string"">2014-05-29T22:39:45Z</DateUtc></StartTime><FrequencyChanges><FrequencyChange><Frequency dt:dt=""r8"">2793040000</Frequency><Timestamp dt:dt=""r8"">284124311866906</Timestamp><Current dt:dt=""r8"">0</Current><DateUtc dt:dt=""string"">2014-05-29T22:39:45Z</DateUtc></FrequencyChange></FrequencyChanges></Clock>\n",60.03,1,-116966627,0,,-999999,9,12736,t,44333,57069,5/29/2014,15:39:45,,2,Session2,SessionsList,0,,-999999,2,717615,t,34201,751816,690712,2,1,2,4,,1222395,,,4,1,4,,,,Cued2,MiniBlocks1,,,,,9,1,b,-999999,16,1352829,b,910,1353739,White,Incongruent,b,Red,0,,0,5,1342818,,0,0,,,,9,1,9,,,,,,,Pictures\red.bmp,9000,10000,Pictures\left.bmp,,,,,,,,,,,,,StimulusPr,Pictures\black.bmp,CuedStim2,Left
POP_2,27030,1,"<?xml version=""1.0""?>\n<Clock xmlns:dt=""urn:schemas-microsoft-com:datatypes""><Description dt:dt=""string"">E-Prime Primary Realtime Clock</Description><StartTime><Timestamp dt:dt=""int"">0</Timestamp><DateUtc dt:dt=""string"">2014-05-29T22:39:45Z</DateUtc></StartTime><FrequencyChanges><FrequencyChange><Frequency dt:dt=""r8"">2793040000</Frequency><Timestamp dt:dt=""r8"">284124311866906</Timestamp><Current dt:dt=""r8"">0</Current><DateUtc dt:dt=""string"">2014-05-29T22:39:45Z</DateUtc></FrequencyChange></FrequencyChanges></Clock>\n",60.03,1,-116966627,0,,-999999,9,12736,t,44333,57069,5/29/2014,15:39:45,,2,Session2,SessionsList,0,,-999999,2,717615,t,34201,751816,690712,2,1,2,4,,1222395,,,4,1,4,,,,Cued2,MiniBlocks1,,,,,10,1,r,-999999,5,1374818,r,845,1375663,White,Congruent,r,Green,0,,0,11,1364823,,0,0,,,,10,1,10,,,,,,,Pictures\green.bmp,9000,10000,Pictures\left.bmp,,,,,,,,,,,,,StimulusPr,Pictures\black.bmp,CuedStim2,Left
