ExperimentName,Subject,Session,Clock.Information,Display.RefreshRate,Group,RandomSeed,Session1Onset.ACC,Session1Onset.CRESP,Session1Onset.DurationError,Session1Onset.OnsetDelay,Session1Onset.OnsetTime,Session1Onset.RESP,Session1Onset.RT,Session1Onset.RTTime,SessionDate,SessionTime,SessionTimeUtc,Block,Procedure[Block],Running[Block],Session2Onset.ACC,Session2Onset.CRESP,Session2Onset.DurationError,Session2Onset.OnsetDelay,Session2Onset.OnsetTime,Session2Onset.RESP,Session2Onset.RT,Session2Onset.RTTime,SessionBreak.OnsetTime,SessionsList,SessionsList.Cycle,SessionsList.Sample,Trial,CuedPrompt1.OnsetTime,CuedPrompt2.OnsetTime,CuedPrompt3.OnsetTime,CuedPrompt4.OnsetTime,MiniBlocks1,MiniBlocks1.Cycle,MiniBlocks1.Sample,MiniBlocks2,MiniBlocks2.Cycle,MiniBlocks2.Sample,Procedure[Trial],Running[Trial],UncuedPrompt1.OnsetTime,UncuedPrompt2.OnsetTime,UncuedPrompt3.OnsetTime,UncuedPrompt4.OnsetTime,SubTrial,Arrow1.ACC,Arrow1.CRESP,Arrow1.DurationError,Arrow1.OnsetDelay,Arrow1.OnsetTime,Arrow1.RESP,Arrow1.RT,Arrow1.RTTime,ArrowColor,Congruence,CorrectResp,Cue,Cue.ACC,Cue.CRESP,Cue.DurationError,Cue.OnsetDelay,Cue.OnsetTime,Cue.RESP,Cue.RT,Cue.RTTime,CuedStim1,CuedStim1.Cycle,CuedStim1.Sample,CuedStim2,CuedStim2.Cycle,CuedStim2.Sample,CuedStim3,CuedStim3.Cycle,CuedStim3.Sample,CuedStim4,CuedStim4.Cycle,CuedStim4.Sample,CueImage,JitterCue,JitterTrial,LeftImage,NonCuedStim1,NonCuedStim1.Cycle,NonCuedStim1.Sample,NonCuedStim2,NonCuedStim2.Cycle,NonCuedStim2.Sample,NonCuedStim3,NonCuedStim3.Cycle,NonCuedStim3.Sample,NonCuedStim4,NonCuedStim4.Cycle,NonCuedStim4.Sample,Procedure[SubTrial],RightImage,Running[SubTrial],Stimulus
POP_2,27019,1,"<?xml version=""1.0""?>\n<Clock xmlns:dt=""urn:schemas-microsoft-com:datatypes""><Description dt:dt=""string"">E-Prime Primary Realtime Clock</Description><StartTime><Timestamp dt:dt=""int"">0</Timestamp><DateUtc dt:dt=""string"">2014-05-28T22:37:01Z</DateUtc></StartTime><FrequencyChanges><FrequencyChange><Frequency dt:dt=""r8"">2793040000</Frequency><Timestamp dt:dt=""r8"">42349751330497</Timestamp><Current dt:dt=""r8"">0</Current><DateUtc dt:dt=""string"">2014-05-28T22:37:01Z</DateUtc></FrequencyChange></FrequencyChanges></Clock>\n",60.03,1,1584101453,0,,-999999,1,27542,t,60344,87886,5/28/2014,15:37:01,,1,Session1,SessionsList,,,,,,,,,,1,1,1,1,,,,,,,,1,1,1,NonCued3,MiniBlocks2,,,87895,,1,1,b,-999999,15,107901,b,715,108616,Green,Congruent,b,White,0,,0,8,97890,,0,0,,,,,,,,,,,,,Pictures\white.bmp,9000,10000,Pictures\black.bmp,,,,,,,1,1,1,,,,StimulusPr,Pictures\GreenRight.bmp,NonCuedStim3,Right
POP_2,27019,1,"<?xml version=""1.0""?>\n<Clock xmlns:dt=""urn:schemas-microsoft-com:datatypes""><Description dt:dt=""string"">E-Prime Primary Realtime Clock</Description><StartTime><Timestamp dt:dt=""int"">0</Timestamp><DateUtc dt:dt=""string"">2014-05-28T22:37:01Z</DateUtc></StartTime><FrequencyChanges><FrequencyChange><Frequency dt:dt=""r8"">2793040000</Frequency><Timestamp dt:dt=""r8"">42349751330497</Timestamp><Current dt:dt=""r8"">0</Current><DateUtc dt:dt=""string"">2014-05-28T22:37:01Z</DateUtc></FrequencyChange></FrequencyChanges></Clock>\n",60.03,1,1584101453,0,,-999999,1,27542,t,60344,87886,5/28/2014,15:37:01,,1,Session1,SessionsList,,,,,,,,,,1,1,1,1,,,,,,,,1,1,1,NonCued3,MiniBlocks2,,,87895,,2,1,r,-999999,8,129890,r,620,130510,Red,Incongruent,r,White,0,,0,10,119895,,0,0,,,,,,,,,,,,,Pictures\white.bmp,9000,10000,Pictures\black.bmp,,,,,,,2,1,2,,,,StimulusPr,Pictures\RedRight.bmp,NonCuedStim3,Right
POP_2,27019,1,"<?xml version=""1.0""?>\n<Clock xmlns:dt=""urn:schemas-microsoft-com:datatypes""><Description dt:dt=""string"">E-Prime Primary Realtime Clock</Description><StartTime><Timestamp dt:dt=""int"">0</Timestamp><DateUtc dt:dt=""string"">2014-05-28T22:37:01Z</DateUtc></StartTime><FrequencyChanges><FrequencyChange><Frequency dt:dt=""r8"">2793040000</Frequency><Timestamp dt:dt=""r8"">42349751330497</Timestamp><Current dt:dt=""r8"">0</Current><DateUtc dt:dt=""string"">2014-05-28T22:37:01Z</DateUtc></FrequencyChange></FrequencyChanges></Clock>\n",60.03,1,1584101453,0,,-999999,1,27542,t,60344,87886,5/28/2014,15:37:01,,1,Session1,SessionsList,,,,,,,,,,1,1,1,1,,,,,,,,1,1,1,NonCued3,MiniBlocks2,,,87895,,3,1,r,-999999,13,146898,r,575,147473,Green,Congruent,r,White,0,,0,16,141901,,0,0,,,,,,,,,,,,,Pictures\white.bmp,4000,4000,Pictures\GreenLeft.bmp,,,,,,,3,1,3,,,,StimulusPr,Pictures\black.bmp,NonCuedStim3,Left
POP_2,27019,1,"<?xml version=""1.0""?>\n<Clock xmlns:dt=""urn:schemas-microsoft-com:datatypes""><Description dt:dt=""string"">E-Prime Primary Realtime Clock</Description><StartTime><Timestamp dt:dt=""int"">0</Timestamp><DateUtc dt:dt=""string"">2014-05-28T22:37:01Z</DateUtc></StartTime><FrequencyChanges><FrequencyChange><Frequency dt:dt=""r8"">2793040000</Frequency><Timestamp dt:dt=""r8"">42349751330497</Timestamp><Current dt:dt=""r8"">0</Current><DateUtc dt:dt=""string"">2014-05-28T22:37:01Z</DateUtc></FrequencyChange></FrequencyChanges></Clock>\n",60.03,1,1584101453,0,,-999999,1,27542,t,60344,87886,5/28/2014,15:37:01,,1,Session1,SessionsList,,,,,,,,,,1,1,1,1,,,,,,,,1,1,1,NonCued3,MiniBlocks2,,,87895,,4,1,b,-999999,10,159892,b,711,160603,Red,Incongruent,b,White,0,,0,10,152895,,0,0,,,,,,,,,,,,,Pictures\white.bmp,6000,4000,Pictures\RedLeft.bmp,,,,,,,4,1,4,,,,StimulusPr,Pictures\black.bmp,NonCuedStim3,Left
POP_2,27019,1,"<?xml version=""1.0""?>\n<Clock xmlns:dt=""urn:schemas-microsoft-com:datatypes""><Description dt:dt=""string"">E-Prime Primary Realtime Clock</Description><StartTime><Timestamp dt:dt=""int"">0</Timestamp><DateUtc dt:dt=""string"">2014-05-28T22:37:01Z</DateUtc></StartTime><FrequencyChanges><FrequencyChange><Frequency dt:dt=""r8"">2793040000</Frequency><Timestamp dt:dt=""r8"">42349751330497</Timestamp><Current dt:dt=""r8"">0</Current><DateUtc dt:dt=""string"">2014-05-28T22:37:01Z</DateUtc></FrequencyChange></FrequencyChanges></Clock>\n",60.03,1,1584101453,0,,-999999,1,27542,t,60344,87886,5/28/2014,15:37:01,,1,Session1,SessionsList,,,,,,,,,,1,1,1,1,,,,,,,,1,1,1,NonCued3,MiniBlocks2,,,87895,,5,1,b,-999999,19,169904,b,540,170444,Green,Congruent,b,White,0,,0,4,165889,,0,0,,,,,,,,,,,,,Pictures\white.bmp,3000,2000,Pictures\black.bmp,,,,,,,5,1,5,,,,StimulusPr,Pictures\GreenRight.bmp,NonCuedStim3,Right
POP_2,27019,1,"<?xml version=""1.0""?>\n<Clock xmlns:dt=""urn:schemas-microsoft-com:datatypes""><Description dt:dt=""string"">E-Prime Primary Realtime Clock</Description><StartTime><Timestamp dt:dt=""int"">0</Timestamp><DateUtc dt:dt=""string"">2014-05-28T22:37:01Z</DateUtc></StartTime><FrequencyChanges><FrequencyChange><Frequency dt:dt=""r8"">2793040000</Frequency><Timestamp dt:dt=""r8"">42349751330497</Timestamp><Current dt:dt=""r8"">0</Current><DateUtc dt:dt=""string"">2014-05-28T22:37:01Z</DateUtc></FrequencyChange></FrequencyChanges></Clock>\n",60.03,1,1584101453,0,,-999999,1,27542,t,60344,87886,5/28/2014,15:37:01,,1,Session1,SessionsList,,,,,,,,,,1,1,1,1,,,,,,,,1,1,1,NonCued3,MiniBlocks2,,,87895,,6,1,r,-999999,14,177899,r,700,178599,Green,Congruent,r,White,0,,0,17,173902,,0,0,,,,,,,,,,,,,Pictures\white.bmp,3000,2000,Pictures\GreenLeft.bmp,,,,,,,6,1,6,,,,StimulusPr,Pictures\black.bmp,NonCuedStim3,Left
POP_2,27019,1,"<?xml version=""1.0""?>\n<Clock xmlns:dt=""urn:schemas-microsoft-com:datatypes""><Description dt:dt=""string"">E-Prime Primary Realtime Clock</Description><StartTime><Timestamp dt:dt=""int"">0</Timestamp><DateUtc dt:dt=""string"">2014-05-28T22:37:01Z</DateUtc></StartTime><FrequencyChanges><FrequencyChange><Frequency dt:dt=""r8"">2793040000</Frequency><Timestamp dt:dt=""r8"">42349751330497</Timestamp><Current dt:dt=""r8"">0</Current><DateUtc dt:dt=""string"">2014-05-28T22:37:01Z</DateUtc></FrequencyChange></FrequencyChanges></Clock>\n",60.03,1,1584101453,0,,-999999,1,27542,t,60344,87886,5/28/2014,15:37:01,,1,Session1,SessionsList,,,,,,,,,,1,1,1,1,,,,,,,,1,1,1,NonCued3,MiniBlocks2,,,87895,,7,1,b,-999999,9,188894,b,484,189378,Green,Congruent,b,White,0,,0,12,181897,,0,0,,,,,,,,,,,,,Pictures\white.bmp,6000,16000,Pictures\black.bmp,,,,,,,7,1,7,,,,StimulusPr,Pictures\GreenRight.bmp,NonCuedStim3,Right
POP_2,27019,1,"<?xml version=""1.0""?>\n<Clock xmlns:dt=""urn:schemas-microsoft-com:datatypes""><Description dt:dt=""string"">E-Prime Primary Realtime Clock</Description><StartTime><Timestamp dt:dt=""int"">0</Timestamp><DateUtc dt:dt=""string"">2014-05-28T22:37:01Z</DateUtc></StartTime><FrequencyChanges><FrequencyChange><Frequency dt:dt=""r8"">2793040000</Frequency><Timestamp dt:dt=""r8"">42349751330497</Timestamp><Current dt:dt=""r8"">0</Current><DateUtc dt:dt=""string"">2014-05-28T22:37:01Z</DateUtc></FrequencyChange></FrequencyChanges></Clock>\n",60.03,1,1584101453,0,,-999999,1,27542,t,60344,87886,5/28/2014,15:37:01,,1,Session1,SessionsList,,,,,,,,,,1,1,1,1,,,,,,,,1,1,1,NonCued3,MiniBlocks2,,,87895,,8,1,r,-999999,15,210900,r,688,211588,Red,Incongruent,r,White,0,,0,17,206902,,0,0,,,,,,,,,,,,,Pictures\white.bmp,3000,2000,Pictures\black.bmp,,,,,,,8,1,8,,,,StimulusPr,Pictures\RedRight.bmp,NonCuedStim3,Right
POP_2,27019,1,"<?xml version=""1.0""?>\n<Clock xmlns:dt=""urn:schemas-microsoft-com:datatypes""><Description dt:dt=""string"">E-Prime Primary Realtime Clock</Description><StartTime><Timestamp dt:dt=""int"">0</Timestamp><DateUtc dt:dt=""string"">2014-05-28T22:37:01Z</DateUtc></StartTime><FrequencyChanges><FrequencyChange><Frequency dt:dt=""r8"">2793040000</Frequency><Timestamp dt:dt=""r8"">42349751330497</Timestamp><Current dt:dt=""r8"">0</Current><DateUtc dt:dt=""string"">2014-05-28T22:37:01Z</DateUtc></FrequencyChange></FrequencyChanges></Clock>\n",60.03,1,1584101453,0,,-999999,1,27542,t,60344,87886,5/28/2014,15:37:01,,1,Session1,SessionsList,,,,,,,,,,1,1,1,1,,,,,,,,1,1,1,NonCued3,MiniBlocks2,,,87895,,9,1,r,-999999,15,224893,r,604,225497,Green,Congruent,r,White,0,,0,13,214898,,0,0,,,,,,,,,,,,,Pictures\white.bmp,9000,10000,Pictures\GreenLeft.bmp,,,,,,,9,1,9,,,,StimulusPr,Pictures\black.bmp,NonCuedStim3,Left
POP_2,27019,1,"<?xml version=""1.0""?>\n<Clock xmlns:dt=""urn:schemas-microsoft-com:datatypes""><Description dt:dt=""string"">E-Prime Primary Realtime Clock</Description><StartTime><Timestamp dt:dt=""int"">0</Timestamp><DateUtc dt:dt=""string"">2014-05-28T22:37:01Z</DateUtc></StartTime><FrequencyChanges><FrequencyChange><Frequency dt:dt=""r8"">2793040000</Frequency><Timestamp dt:dt=""r8"">42349751330497</Timestamp><Current dt:dt=""r8"">0</Current><DateUtc dt:dt=""string"">2014-05-28T22:37:01Z</DateUtc></FrequencyChange></FrequencyChanges></Clock>\n",60.03,1,1584101453,0,,-999999,1,27542,t,60344,87886,5/28/2014,15:37:01,,1,Session1,SessionsList,,,,,,,,,,1,1,1,1,,,,,,,,1,1,1,NonCued3,MiniBlocks2,,,87895,,10,1,r,-999999,15,243900,r,433,244333,Green,Congruent,r,White,0,,0,2,236887,,0,0,,,,,,,,,,,,,Pictures\white.bmp,6000,4000,Pictures\GreenLeft.bmp,,,,,,,10,1,10,,,,StimulusPr,Pictures\black.bmp,NonCuedStim3,Left
POP_2,27019,1,"<?xml version=""1.0""?>\n<Clock xmlns:dt=""urn:schemas-microsoft-com:datatypes""><Description dt:dt=""string"">E-Prime Primary Realtime Clock</Description><StartTime><Timestamp dt:dt=""int"">0</Timestamp><DateUtc dt:dt=""string"">2014-05-28T22:37:01Z</DateUtc></StartTime><FrequencyChanges><FrequencyChange><Frequency dt:dt=""r8"">2793040000</Frequency><Timestamp dt:dt=""r8"">42349751330497</Timestamp><Current dt:dt=""r8"">0</Current><DateUtc dt:dt=""string"">2014-05-28T22:37:01Z</DateUtc></FrequencyChange></FrequencyChanges></Clock>\n",60.03,1,1584101453,0,,-999999,1,27542,t,60344,87886,5/28/2014,15:37:01,,1,Session1,SessionsList,,,,,,,,,,1,1,1,2,,,248364,,,,,2,1,2,Cued3,MiniBlocks2,,,,,1,1,b,-999999,6,262890,b,424,263314,White,Congruent,b,Green,0,,0,7,258892,,0,0,,,,,,,1,1,1,,,,Pictures\green.bmp,3000,2000,Pictures\black.bmp,,,,,,,,,,,,,StimulusPr,Pictures\right.bmp,CuedStim3,Right
POP_2,27019,1,"<?xml version=""1.0""?>\n<Clock xmlns:dt=""urn:schemas-microsoft-com:datatypes""><Description dt:dt=""string"">E-Prime Primary Realtime Clock</Description><StartTime><Timestamp dt:dt=""int"">0</Timestamp><DateUtc dt:dt=""string"">2014-05-28T22:37:01Z</DateUtc></StartTime><FrequencyChanges><FrequencyChange><Frequency dt:dt=""r8"">2793040000</Frequency><Timestamp dt:dt=""r8"">42349751330497</Timestamp><Current dt:dt=""r8"">0</Current><DateUtc dt:dt=""string"">2014-05-28T22:37:01Z</DateUtc></FrequencyChange></FrequencyChanges></Clock>\n",60.03,1,1584101453,0,,-999999,1,27542,t,60344,87886,5/28/2014,15:37:01,,1,Session1,SessionsList,,,,,,,,,,1,1,1,2,,,248364,,,,,2,1,2,Cued3,MiniBlocks2,,,,,2,1,b,-999999,18,270903,b,371,271274,White,Congruent,b,Green,0,,0,3,266888,,0,0,,,,,,,2,1,2,,,,Pictures\green.bmp,3000,10000,Pictures\black.bmp,,,,,,,,,,,,,StimulusPr,Pictures\right.bmp,CuedStim3,Right
POP_2,27019,1,"<?xml version=""1.0""?>\n<Clock xmlns:dt=""urn:schemas-microsoft-com:datatypes""><Description dt:dt=""string"">E-Prime Primary Realtime Clock</Description><StartTime><Timestamp dt:dt=""int"">0</Timestamp><DateUtc dt:dt=""string"">2014-05-28T22:37:01Z</DateUtc></StartTime><FrequencyChanges><FrequencyChange><Frequency dt:dt=""r8"">2793040000</Frequency><Timestamp dt:dt=""r8"">42349751330497</Timestamp><Current dt:dt=""r8"">0</Current><DateUtc dt:dt=""string"">2014-05-28T22:37:01Z</DateUtc></FrequencyChange></FrequencyChanges></Clock>\n",60.03,1,1584101453,0,,-999999,1,27542,t,60344,87886,5/28/2014,15:37:01,,1,Session1,SessionsList,,,,,,,,,,1,1,1,2,,,248364,,,,,2,1,2,Cued3,MiniBlocks2,,,,,3,1,r,-999999,7,292892,r,583,293475,White,Congruent,r,Green,0,,0,12,282897,,0,0,,,,,,,3,1,3,,,,Pictures\green.bmp,9000,2000,Pictures\left.bmp,,,,,,,,,,,,,StimulusPr,Pictures\black.bmp,CuedStim3,Left
POP_2,27019,1,"<?xml version=""1.0""?>\n<Clock xmlns:dt=""urn:schemas-microsoft-com:datatypes""><Description dt:dt=""string"">E-Prime Primary Realtime Clock</Description><StartTime><Timestamp dt:dt=""int"">0</Timestamp><DateUtc dt:dt=""string"">2014-05-28T22:37:01Z</DateUtc></StartTime><FrequencyChanges><FrequencyChange><Frequency dt:dt=""r8"">2793040000</Frequency><Timestamp dt:dt=""r8"">42349751330497</Timestamp><Current dt:dt=""r8"">0</Current><DateUtc dt:dt=""string"">2014-05-28T22:37:01Z</DateUtc></FrequencyChange></FrequencyChanges></Clock>\n",60.03,1,1584101453,0,,-999999,1,27542,t,60344,87886,5/28/2014,15:37:01,,1,Session1,SessionsList,,,,,,,,,,1,1,1,2,,,248364,,,,,2,1,2,Cued3,MiniBlocks2,,,,,4,1,r,-999999,2,301887,r,576,302463,White,Congruent,r,Green,0,,0,5,296890,,0,0,,,,,,,4,1,4,,,,Pictures\green.bmp,4000,16000,Pictures\left.bmp,,,,,,,,,,,,,StimulusPr,Pictures\black.bmp,CuedStim3,Left
POP_2,27019,1,"<?xml version=""1.0""?>\n<Clock xmlns:dt=""urn:schemas-microsoft-com:datatypes""><Description dt:dt=""string"">E-Prime Primary Realtime Clock</Description><StartTime><Timestamp dt:dt=""int"">0</Timestamp><DateUtc dt:dt=""string"">2014-05-28T22:37:01Z</DateUtc></StartTime><FrequencyChanges><FrequencyChange><Frequency dt:dt=""r8"">2793040000</Frequency><Timestamp dt:dt=""r8"">42349751330497</Timestamp><Current dt:dt=""r8"">0</Current><DateUtc dt:dt=""string"">2014-05-28T22:37:01Z</DateUtc></FrequencyChange></FrequencyChanges></Clock>\n",60.03,1,1584101453,0,,-999999,1,27542,t,60344,87886,5/28/2014,15:37:01,,1,Session1,SessionsList,,,,,,,,,,1,1,1,2,,,248364,,,,,2,1,2,Cued3,MiniBlocks2,,,,,5,1,r,-999999,9,323893,r,1005,324898,White,Incongruent,r,Red,0,,0,18,319895,,0,0,,,,,,,5,1,5,,,,Pictures\red.bmp,3000,4000,Pictures\black.bmp,,,,,,,,,,,,,StimulusPr,Pictures\right.bmp,CuedStim3,Right
POP_2,27019,1,"<?xml version=""1.0""?>\n<Clock xmlns:dt=""urn:schemas-microsoft-com:datatypes""><Description dt:dt=""string"">E-Prime Primary Realtime Clock</Description><StartTime><Timestamp dt:dt=""int"">0</Timestamp><DateUtc dt:dt=""string"">2014-05-28T22:37:01Z</DateUtc></StartTime><FrequencyChanges><FrequencyChange><Frequency dt:dt=""r8"">2793040000</Frequency><Timestamp dt:dt=""r8"">42349751330497</Timestamp><Current dt:dt=""r8"">0</Current><DateUtc dt:dt=""string"">2014-05-28T22:37:01Z</DateUtc></FrequencyChange></FrequencyChanges></Clock>\n",60.03,1,1584101453,0,,-999999,1,27542,t,60344,87886,5/28/2014,15:37:01,,1,Session1,SessionsList,,,,,,,,,,1,1,1,2,,,248364,,,,,2,1,2,Cued3,MiniBlocks2,,,,,6,1,b,-999999,18,337902,b,501,338403,White,Congruent,b,Green,0,,0,5,330889,,0,0,,,,,,,6,1,6,,,,Pictures\green.bmp,6000,4000,Pictures\black.bmp,,,,,,,,,,,,,StimulusPr,Pictures\right.bmp,CuedStim3,Right
POP_2,27019,1,"<?xml version=""1.0""?>\n<Clock xmlns:dt=""urn:schemas-microsoft-com:datatypes""><Description dt:dt=""string"">E-Prime Primary Realtime Clock</Description><StartTime><Timestamp dt:dt=""int"">0</Timestamp><DateUtc dt:dt=""string"">2014-05-28T22:37:01Z</DateUtc></StartTime><FrequencyChanges><FrequencyChange><Frequency dt:dt=""r8"">2793040000</Frequency><Timestamp dt:dt=""r8"">42349751330497</Timestamp><Current dt:dt=""r8"">0</Current><DateUtc dt:dt=""string"">2014-05-28T22:37:01Z</DateUtc></FrequencyChange></FrequencyChanges></Clock>\n",60.03,1,1584101453,0,,-999999,1,27542,t,60344,87886,5/28/2014,15:37:01,,1,Session1,SessionsList,,,,,,,,,,1,1,1,2,,,248364,,,,,2,1,2,Cued3,MiniBlocks2,,,,,7,1,r,-999999,2,348880,r,499,349379,White,Congruent,r,Green,0,,0,15,343899,,0,0,,,,,,,7,1,7,,,,Pictures\green.bmp,4000,16000,Pictures\left.bmp,,,,,,,,,,,,,StimulusPr,Pictures\black.bmp,CuedStim3,Left
POP_2,27019,1,"<?xml version=""1.0""?>\n<Clock xmlns:dt=""urn:schemas-microsoft-com:datatypes""><Description dt:dt=""string"">E-Prime Primary Realtime Clock</Description><StartTime><Timestamp dt:dt=""int"">0</Timestamp><DateUtc dt:dt=""string"">2014-05-28T22:37:01Z</DateUtc></StartTime><FrequencyChanges><FrequencyChange><Frequency dt:dt=""r8"">2793040000</Frequency><Timestamp dt:dt=""r8"">42349751330497</Timestamp><Current dt:dt=""r8"">0</Current><DateUtc dt:dt=""string"">2014-05-28T22:37:01Z</DateUtc></FrequencyChange></FrequencyChanges></Clock>\n",60.03,1,1584101453,0,,-999999,1,27542,t,60344,87886,5/28/2014,15:37:01,,1,Session1,SessionsList,,,,,,,,,,1,1,1,2,,,248364,,,,,2,1,2,Cued3,MiniBlocks2,,,,,8,1,b,-999999,18,370902,b,521,371423,White,Incongruent,b,Red,0,,0,4,366888,,0,0,,,,,,,8,1,8,,,,Pictures\red.bmp,3000,2000,Pictures\left.bmp,,,,,,,,,,,,,StimulusPr,Pictures\black.bmp,CuedStim3,Left
POP_2,27019,1,"<?xml version=""1.0""?>\n<Clock xmlns:dt=""urn:schemas-microsoft-com:datatypes""><Description dt:dt=""string"">E-Prime Primary Realtime Clock</Description><StartTime><Timestamp dt:dt=""int"">0</Timestamp><DateUtc dt:dt=""string"">2014-05-28T22:37:01Z</DateUtc></StartTime><FrequencyChanges><FrequencyChange><Frequency dt:dt=""r8"">2793040000</Frequency><Timestamp dt:dt=""r8"">42349751330497</Timestamp><Current dt:dt=""r8"">0</Current><DateUtc dt:dt=""string"">2014-05-28T22:37:01Z</DateUtc></FrequencyChange></FrequencyChanges></Clock>\n",60.03,1,1584101453,0,,-999999,1,27542,t,60344,87886,5/28/2014,15:37:01,,1,Session1,SessionsList,,,,,,,,,,1,1,1,2,,,248364,,,,,2,1,2,Cued3,MiniBlocks2,,,,,9,1,r,-999999,16,378898,r,602,379500,White,Congruent,r,Green,0,,0,16,374900,,0,0,,,,,,,9,1,9,,,,Pictures\green.bmp,3000,2000,Pictures\left.bmp,,,,,,,,,,,,,StimulusPr,Pictures\black.bmp,CuedStim3,Left
POP_2,27019,1,"<?xml version=""1.0""?>\n<Clock xmlns:dt=""urn:schemas-microsoft-com:datatypes""><Description dt:dt=""string"">E-Prime Primary Realtime Clock</Description><StartTime><Timestamp dt:dt=""int"">0</Timestamp><DateUtc dt:dt=""string"">2014-05-28T22:37:01Z</DateUtc></StartTime><FrequencyChanges><FrequencyChange><Frequency dt:dt=""r8"">2793040000</Frequency><Timestamp dt:dt=""r8"">42349751330497</Timestamp><Current dt:dt=""r8"">0</Current><DateUtc dt:dt=""string"">2014-05-28T22:37:01Z</DateUtc></FrequencyChange></FrequencyChanges></Clock>\n",60.03,1,1584101453,0,,-999999,1,27542,t,60344,87886,5/28/2014,15:37:01,,1,Session1,SessionsList,,,,,,,,,,1,1,1,2,,,248364,,,,,2,1,2,Cued3,MiniBlocks2,,,,,10,1,b,-999999,7,392891,b,482,393373,White,Congruent,b,Green,0,,0,12,382896,,0,0,,,,,,,10,1,10,,,,Pictures\green.bmp,9000,10000,Pictures\black.bmp,,,,,,,,,,,,,StimulusPr,Pictures\right.bmp,CuedStim3,Right
POP_2,27019,1,"<?xml version=""1.0""?>\n<Clock xmlns:dt=""urn:schemas-microsoft-com:datatypes""><Description dt:dt=""string"">E-Prime Primary Realtime Clock</Description><StartTime><Timestamp dt:dt=""int"">0</Timestamp><DateUtc dt:dt=""string"">2014-05-28T22:37:01Z</DateUtc></StartTime><FrequencyChanges><FrequencyChange><Frequency dt:dt=""r8"">2793040000</Frequency><Timestamp dt:dt=""r8"">42349751330497</Timestamp><Current dt:dt=""r8"">0</Current><DateUtc dt:dt=""string"">2014-05-28T22:37:01Z</DateUtc></FrequencyChange></FrequencyChanges></Clock>\n",60.03,1,1584101453,0,,-999999,1,27542,t,60344,87886,5/28/2014,15:37:01,,1,Session1,SessionsList,,,,,,,,,,1,1,1,3,,,,403386,,,,3,1,3,Cued4,MiniBlocks2,,,,,1,1,b,-999999,10,420894,b,538,421432,White,Congruent,b,Green,0,,0,14,413898,,0,0,,,,,,,,,,1,1,1,Pictures\green.bmp,6000,2000,Pictures\black.bmp,,,,,,,,,,,,,StimulusPr,Pictures\right.bmp,CuedStim4,Right
POP_2,27019,1,"<?xml version=""1.0""?>\n<Clock xmlns:dt=""urn:schemas-microsoft-com:datatypes""><Description dt:dt=""string"">E-Prime Primary Realtime Clock</Description><StartTime><Timestamp dt:dt=""int"">0</Timestamp><DateUtc dt:dt=""string"">2014-05-28T22:37:01Z</DateUtc></StartTime><FrequencyChanges><FrequencyChange><Frequency dt:dt=""r8"">2793040000</Frequency><Timestamp dt:dt=""r8"">42349751330497</Timestamp><Current dt:dt=""r8"">0</Current><DateUtc dt:dt=""string"">2014-05-28T22:37:01Z</DateUtc></FrequencyChange></FrequencyChanges></Clock>\n",60.03,1,1584101453,0,,-999999,1,27542,t,60344,87886,5/28/2014,15:37:01,,1,Session1,SessionsList,,,,,,,,,,1,1,1,3,,,,403386,,,,3,1,3,Cued4,MiniBlocks2,,,,,2,1,r,-999999,3,434887,r,581,435468,White,Incongruent,r,Red,0,,0,14,424892,,0,0,,,,,,,,,,2,1,2,Pictures\red.bmp,9000,2000,Pictures\black.bmp,,,,,,,,,,,,,StimulusPr,Pictures\right.bmp,CuedStim4,Right
POP_2,27019,1,"<?xml version=""1.0""?>\n<Clock xmlns:dt=""urn:schemas-microsoft-com:datatypes""><Description dt:dt=""string"">E-Prime Primary Realtime Clock</Description><StartTime><Timestamp dt:dt=""int"">0</Timestamp><DateUtc dt:dt=""string"">2014-05-28T22:37:01Z</DateUtc></StartTime><FrequencyChanges><FrequencyChange><Frequency dt:dt=""r8"">2793040000</Frequency><Timestamp dt:dt=""r8"">42349751330497</Timestamp><Current dt:dt=""r8"">0</Current><DateUtc dt:dt=""string"">2014-05-28T22:37:01Z</DateUtc></FrequencyChange></FrequencyChanges></Clock>\n",60.03,1,1584101453,0,,-999999,1,27542,t,60344,87886,5/28/2014,15:37:01,,1,Session1,SessionsList,,,,,,,,,,1,1,1,3,,,,403386,,,,3,1,3,Cued4,MiniBlocks2,,,,,3,1,b,-999999,16,442900,b,497,443397,White,Congruent,b,Green,0,,0,18,438902,,0,0,,,,,,,,,,3,1,3,Pictures\green.bmp,3000,4000,Pictures\black.bmp,,,,,,,,,,,,,StimulusPr,Pictures\right.bmp,CuedStim4,Right
POP_2,27019,1,"<?xml version=""1.0""?>\n<Clock xmlns:dt=""urn:schemas-microsoft-com:datatypes""><Description dt:dt=""string"">E-Prime Primary Realtime Clock</Description><StartTime><Timestamp dt:dt=""int"">0</Timestamp><DateUtc dt:dt=""string"">2014-05-28T22:37:01Z</DateUtc></StartTime><FrequencyChanges><FrequencyChange><Frequency dt:dt=""r8"">2793040000</Frequency><Timestamp dt:dt=""r8"">42349751330497</Timestamp><Current dt:dt=""r8"">0</Current><DateUtc dt:dt=""string"">2014-05-28T22:37:01Z</DateUtc></FrequencyChange></FrequencyChanges></Clock>\n",60.03,1,1584101453,0,,-999999,1,27542,t,60344,87886,5/28/2014,15:37:01,,1,Session1,SessionsList,,,,,,,,,,1,1,1,3,,,,403386,,,,3,1,3,Cued4,MiniBlocks2,,,,,4,1,r,-999999,11,452895,r,578,453473,White,Congruent,r,Green,0,,0,13,448897,,0,0,,,,,,,,,,4,1,4,Pictures\green.bmp,3000,4000,Pictures\left.bmp,,,,,,,,,,,,,StimulusPr,Pictures\black.bmp,CuedStim4,Left
POP_2,27019,1,"<?xml version=""1.0""?>\n<Clock xmlns:dt=""urn:schemas-microsoft-com:datatypes""><Description dt:dt=""string"">E-Prime Primary Realtime Clock</Description><StartTime><Timestamp dt:dt=""int"">0</Timestamp><DateUtc dt:dt=""string"">2014-05-28T22:37:01Z</DateUtc></StartTime><FrequencyChanges><FrequencyChange><Frequency dt:dt=""r8"">2793040000</Frequency><Timestamp dt:dt=""r8"">42349751330497</Timestamp><Current dt:dt=""r8"">0</Current><DateUtc dt:dt=""string"">2014-05-28T22:37:01Z</DateUtc></FrequencyChange></FrequencyChanges></Clock>\n",60.03,1,1584101453,0,,-999999,1,27542,t,60344,87886,5/28/2014,15:37:01,,1,Session1,SessionsList,,,,,,,,,,1,1,1,3,,,,403386,,,,3,1,3,Cued4,MiniBlocks2,,,,,5,0,b,-999999,7,463889,r,620,464509,White,Incongruent,b,Red,0,,0,8,458892,,0,0,,,,,,,,,,5,1,5,Pictures\red.bmp,4000,16000,Pictures\left.bmp,,,,,,,,,,,,,StimulusPr,Pictures\black.bmp,CuedStim4,Left
POP_2,27019,1,"<?xml version=""1.0""?>\n<Clock xmlns:dt=""urn:schemas-microsoft-com:datatypes""><Description dt:dt=""string"">E-Prime Primary Realtime Clock</Description><StartTime><Timestamp dt:dt=""int"">0</Timestamp><DateUtc dt:dt=""string"">2014-05-28T22:37:01Z</DateUtc></StartTime><FrequencyChanges><FrequencyChange><Frequency dt:dt=""r8"">2793040000</Frequency><Timestamp dt:dt=""r8"">42349751330497</Timestamp><Current dt:dt=""r8"">0</Current><DateUtc dt:dt=""string"">2014-05-28T22:37:01Z</DateUtc></FrequencyChange></FrequencyChanges></Clock>\n",60.03,1,1584101453,0,,-999999,1,27542,t,60344,87886,5/28/2014,15:37:01,,1,Session1,SessionsList,,,,,,,,,,1,1,1,3,,,,403386,,,,3,1,3,Cued4,MiniBlocks2,,,,,6,1,b,-999999,11,485895,b,414,486309,White,Congruent,b,Green,0,,0,13,481897,,0,0,,,,,,,,,,6,1,6,Pictures\green.bmp,3000,2000,Pictures\black.bmp,,,,,,,,,,,,,StimulusPr,Pictures\right.bmp,CuedStim4,Right
POP_2,27019,1,"<?xml version=""1.0""?>\n<Clock xmlns:dt=""urn:schemas-microsoft-com:datatypes""><Description dt:dt=""string"">E-Prime Primary Realtime Clock</Description><StartTime><Timestamp dt:dt=""int"">0</Timestamp><DateUtc dt:dt=""string"">2014-05-28T22:37:01Z</DateUtc></StartTime><FrequencyChanges><FrequencyChange><Frequency dt:dt=""r8"">2793040000</Frequency><Timestamp dt:dt=""r8"">42349751330497</Timestamp><Current dt:dt=""r8"">0</Current><DateUtc dt:dt=""string"">2014-05-28T22:37:01Z</DateUtc></FrequencyChange></FrequencyChanges></Clock>\n",60.03,1,1584101453,0,,-999999,1,27542,t,60344,87886,5/28/2014,15:37:01,,1,Session1,SessionsList,,,,,,,,,,1,1,1,3,,,,403386,,,,3,1,3,Cued4,MiniBlocks2,,,,,7,1,b,-999999,4,499888,b,577,500465,White,Congruent,b,Green,0,,0,9,489893,,0,0,,,,,,,,,,7,1,7,Pictures\green.bmp,9000,10000,Pictures\black.bmp,,,,,,,,,,,,,StimulusPr,Pictures\right.bmp,CuedStim4,Right
POP_2,27019,1,"<?xml version=""1.0""?>\n<Clock xmlns:dt=""urn:schemas-microsoft-com:datatypes""><Description dt:dt=""string"">E-Prime Primary Realtime Clock</Description><StartTime><Timestamp dt:dt=""int"">0</Timestamp><DateUtc dt:dt=""string"">2014-05-28T22:37:01Z</DateUtc></StartTime><FrequencyChanges><FrequencyChange><Frequency dt:dt=""r8"">2793040000</Frequency><Timestamp dt:dt=""r8"">42349751330497</Timestamp><Current dt:dt=""r8"">0</Current><DateUtc dt:dt=""string"">2014-05-28T22:37:01Z</DateUtc></FrequencyChange></FrequencyChanges></Clock>\n",60.03,1,1584101453,0,,-999999,1,27542,t,60344,87886,5/28/2014,15:37:01,,1,Session1,SessionsList,,,,,,,,,,1,1,1,3,,,,403386,,,,3,1,3,Cued4,MiniBlocks2,,,,,8,1,b,-999999,11,518895,b,600,519495,White,Incongruent,b,Red,0,,0,14,511898,,0,0,,,,,,,,,,8,1,8,Pictures\red.bmp,6000,10000,Pictures\left.bmp,,,,,,,,,,,,,StimulusPr,Pictures\black.bmp,CuedStim4,Left
POP_2,27019,1,"<?xml version=""1.0""?>\n<Clock xmlns:dt=""urn:schemas-microsoft-com:datatypes""><Description dt:dt=""string"">E-Prime Primary Realtime Clock</Description><StartTime><Timestamp dt:dt=""int"">0</Timestamp><DateUtc dt:dt=""string"">2014-05-28T22:37:01Z</DateUtc></StartTime><FrequencyChanges><FrequencyChange><Frequency dt:dt=""r8"">2793040000</Frequency><Timestamp dt:dt=""r8"">42349751330497</Timestamp><Current dt:dt=""r8"">0</Current><DateUtc dt:dt=""string"">2014-05-28T22:37:01Z</DateUtc></FrequencyChange></FrequencyChanges></Clock>\n",60.03,1,1584101453,0,,-999999,1,27542,t,60344,87886,5/28/2014,15:37:01,,1,Session1,SessionsList,,,,,,,,,,1,1,1,3,,,,403386,,,,3,1,3,Cued4,MiniBlocks2,,,,,9,1,r,-999999,7,537885,r,438,538323,White,Congruent,r,Green,0,,0,6,530889,,0,0,,,,,,,,,,9,1,9,Pictures\green.bmp,6000,16000,Pictures\left.bmp,,,,,,,,,,,,,StimulusPr,Pictures\black.bmp,CuedStim4,Left
POP_2,27019,1,"<?xml version=""1.0""?>\n<Clock xmlns:dt=""urn:schemas-microsoft-com:datatypes""><Description dt:dt=""string"">E-Prime Primary Realtime Clock</Description><StartTime><Timestamp dt:dt=""int"">0</Timestamp><DateUtc dt:dt=""string"">2014-05-28T22:37:01Z</DateUtc></StartTime><FrequencyChanges><FrequencyChange><Frequency dt:dt=""r8"">2793040000</Frequency><Timestamp dt:dt=""r8"">42349751330497</Timestamp><Current dt:dt=""r8"">0</Current><DateUtc dt:dt=""string"">2014-05-28T22:37:01Z</DateUtc></FrequencyChange></FrequencyChanges></Clock>\n",60.03,1,1584101453,0,,-999999,1,27542,t,60344,87886,5/28/2014,15:37:01,,1,Session1,SessionsList,,,,,,,,,,1,1,1,3,,,,403386,,,,3,1,3,Cued4,MiniBlocks2,,,,,10,1,r,-999999,7,560890,r,721,561611,White,Congruent,r,Green,0,,0,10,555893,,0,0,,,,,,,,,,10,1,10,Pictures\green.bmp,4000,2000,Pictures\left.bmp,,,,,,,,,,,,,StimulusPr,Pictures\black.bmp,CuedStim4,Left
POP_2,27019,1,"<?xml version=""1.0""?>\n<Clock xmlns:dt=""urn:schemas-microsoft-com:datatypes""><Description dt:dt=""string"">E-Prime Primary Realtime Clock</Description><StartTime><Timestamp dt:dt=""int"">0</Timestamp><DateUtc dt:dt=""string"">2014-05-28T22:37:01Z</DateUtc></StartTime><FrequencyChanges><FrequencyChange><Frequency dt:dt=""r8"">2793040000</Frequency><Timestamp dt:dt=""r8"">42349751330497</Timestamp><Current dt:dt=""r8"">0</Current><DateUtc dt:dt=""string"">2014-05-28T22:37:01Z</DateUtc></FrequencyChange></FrequencyChanges></Clock>\n",60.03,1,1584101453,0,,-999999,1,27542,t,60344,87886,5/28/2014,15:37:01,,1,Session1,SessionsList,,,,,,,,,,1,1,1,4,,,,,,,,4,1,4,NonCued4,MiniBlocks2,,,,563639,1,1,r,-999999,4,577882,r,822,578704,Green,Congruent,r,White,0,,0,17,573900,,0,0,,,,,,,,,,,,,Pictures\white.bmp,3000,2000,Pictures\GreenLeft.bmp,,,,,,,,,,1,1,1,StimulusPr,Pictures\black.bmp,NonCuedStim4,Left
POP_2,27019,1,"<?xml version=""1.0""?>\n<Clock xmlns:dt=""urn:schemas-microsoft-com:datatypes""><Description dt:dt=""string"">E-Prime Primary Realtime Clock</Description><StartTime><Timestamp dt:dt=""int"">0</Timestamp><DateUtc dt:dt=""string"">2014-05-28T22:37:01Z</DateUtc></StartTime><FrequencyChanges><FrequencyChange><Frequency dt:dt=""r8"">2793040000</Frequency><Timestamp dt:dt=""r8"">42349751330497</Timestamp><Current dt:dt=""r8"">0</Current><DateUtc dt:dt=""string"">2014-05-28T22:37:01Z</DateUtc></FrequencyChange></FrequencyChanges></Clock>\n",60.03,1,1584101453,0,,-999999,1,27542,t,60344,87886,5/28/2014,15:37:01,,1,Session1,SessionsList,,,,,,,,,,1,1,1,4,,,,,,,,4,1,4,NonCued4,MiniBlocks2,,,,563639,2,1,r,-999999,11,586894,r,648,587542,Green,Congruent,r,White,0,,0,13,581896,,0,0,,,,,,,,,,,,,Pictures\white.bmp,4000,2000,Pictures\GreenLeft.bmp,,,,,,,,,,2,1,2,StimulusPr,Pictures\black.bmp,NonCuedStim4,Left
POP_2,27019,1,"<?xml version=""1.0""?>\n<Clock xmlns:dt=""urn:schemas-microsoft-com:datatypes""><Description dt:dt=""string"">E-Prime Primary Realtime Clock</Description><StartTime><Timestamp dt:dt=""int"">0</Timestamp><DateUtc dt:dt=""string"">2014-05-28T22:37:01Z</DateUtc></StartTime><FrequencyChanges><FrequencyChange><Frequency dt:dt=""r8"">2793040000</Frequency><Timestamp dt:dt=""r8"">42349751330497</Timestamp><Current dt:dt=""r8"">0</Current><DateUtc dt:dt=""string"">2014-05-28T22:37:01Z</DateUtc></FrequencyChange></FrequencyChanges></Clock>\n",60.03,1,1584101453,0,,-999999,1,27542,t,60344,87886,5/28/2014,15:37:01,,1,Session1,SessionsList,,,,,,,,,,1,1,1,4,,,,,,,,4,1,4,NonCued4,MiniBlocks2,,,,563639,3,1,r,-999999,8,595889,r,612,596501,Red,Incongruent,r,White,0,,0,9,590892,,0,0,,,,,,,,,,,,,Pictures\white.bmp,4000,2000,Pictures\black.bmp,,,,,,,,,,3,1,3,StimulusPr,Pictures\RedRight.bmp,NonCuedStim4,Right
POP_2,27019,1,"<?xml version=""1.0""?>\n<Clock xmlns:dt=""urn:schemas-microsoft-com:datatypes""><Description dt:dt=""string"">E-Prime Primary Realtime Clock</Description><StartTime><Timestamp dt:dt=""int"">0</Timestamp><DateUtc dt:dt=""string"">2014-05-28T22:37:01Z</DateUtc></StartTime><FrequencyChanges><FrequencyChange><Frequency dt:dt=""r8"">2793040000</Frequency><Timestamp dt:dt=""r8"">42349751330497</Timestamp><Current dt:dt=""r8"">0</Current><DateUtc dt:dt=""string"">2014-05-28T22:37:01Z</DateUtc></FrequencyChange></FrequencyChanges></Clock>\n",60.03,1,1584101453,0,,-999999,1,27542,t,60344,87886,5/28/2014,15:37:01,,1,Session1,SessionsList,,,,,,,,,,1,1,1,4,,,,,,,,4,1,4,NonCued4,MiniBlocks2,,,,563639,4,1,b,-999999,19,603902,b,576,604478,Green,Congruent,b,White,0,,0,4,599887,,0,0,,,,,,,,,,,,,Pictures\white.bmp,3000,16000,Pictures\black.bmp,,,,,,,,,,4,1,4,StimulusPr,Pictures\GreenRight.bmp,NonCuedStim4,Right
POP_2,27019,1,"<?xml version=""1.0""?>\n<Clock xmlns:dt=""urn:schemas-microsoft-com:datatypes""><Description dt:dt=""string"">E-Prime Primary Realtime Clock</Description><StartTime><Timestamp dt:dt=""int"">0</Timestamp><DateUtc dt:dt=""string"">2014-05-28T22:37:01Z</DateUtc></StartTime><FrequencyChanges><FrequencyChange><Frequency dt:dt=""r8"">2793040000</Frequency><Timestamp dt:dt=""r8"">42349751330497</Timestamp><Current dt:dt=""r8"">0</Current><DateUtc dt:dt=""string"">2014-05-28T22:37:01Z</DateUtc></FrequencyChange></FrequencyChanges></Clock>\n",60.03,1,1584101453,0,,-999999,1,27542,t,60344,87886,5/28/2014,15:37:01,,1,Session1,SessionsList,,,,,,,,,,1,1,1,4,,,,,,,,4,1,4,NonCued4,MiniBlocks2,,,,563639,5,1,r,-999999,5,631888,r,624,632512,Green,Congruent,r,White,0,,0,10,621893,,0,0,,,,,,,,,,,,,Pictures\white.bmp,9000,10000,Pictures\GreenLeft.bmp,,,,,,,,,,5,1,5,StimulusPr,Pictures\black.bmp,NonCuedStim4,Left
POP_2,27019,1,"<?xml version=""1.0""?>\n<Clock xmlns:dt=""urn:schemas-microsoft-com:datatypes""><Description dt:dt=""string"">E-Prime Primary Realtime Clock</Description><StartTime><Timestamp dt:dt=""int"">0</Timestamp><DateUtc dt:dt=""string"">2014-05-28T22:37:01Z</DateUtc></StartTime><FrequencyChanges><FrequencyChange><Frequency dt:dt=""r8"">2793040000</Frequency><Timestamp dt:dt=""r8"">42349751330497</Timestamp><Current dt:dt=""r8"">0</Current><DateUtc dt:dt=""string"">2014-05-28T22:37:01Z</DateUtc></FrequencyChange></FrequencyChanges></Clock>\n",60.03,1,1584101453,0,,-999999,1,27542,t,60344,87886,5/28/2014,15:37:01,,1,Session1,SessionsList,,,,,,,,,,1,1,1,4,,,,,,,,4,1,4,NonCued4,MiniBlocks2,,,,563639,6,1,b,-999999,18,647897,b,558,648455,Green,Congruent,b,White,0,,0,16,643899,,0,0,,,,,,,,,,,,,Pictures\white.bmp,3000,16000,Pictures\black.bmp,,,,,,,,,,6,1,6,StimulusPr,Pictures\GreenRight.bmp,NonCuedStim4,Right
POP_2,27019,1,"<?xml version=""1.0""?>\n<Clock xmlns:dt=""urn:schemas-microsoft-com:datatypes""><Description dt:dt=""string"">E-Prime Primary Realtime Clock</Description><StartTime><Timestamp dt:dt=""int"">0</Timestamp><DateUtc dt:dt=""string"">2014-05-28T22:37:01Z</DateUtc></StartTime><FrequencyChanges><FrequencyChange><Frequency dt:dt=""r8"">2793040000</Frequency><Timestamp dt:dt=""r8"">42349751330497</Timestamp><Current dt:dt=""r8"">0</Current><DateUtc dt:dt=""string"">2014-05-28T22:37:01Z</DateUtc></FrequencyChange></FrequencyChanges></Clock>\n",60.03,1,1584101453,0,,-999999,1,27542,t,60344,87886,5/28/2014,15:37:01,,1,Session1,SessionsList,,,,,,,,,,1,1,1,4,,,,,,,,4,1,4,NonCued4,MiniBlocks2,,,,563639,7,1,b,-999999,3,669886,b,534,670420,Red,Incongruent,b,White,0,,0,5,665888,,0,0,,,,,,,,,,,,,Pictures\white.bmp,3000,16000,Pictures\RedLeft.bmp,,,,,,,,,,7,1,7,StimulusPr,Pictures\black.bmp,NonCuedStim4,Left
POP_2,27019,1,"<?xml version=""1.0""?>\n<Clock xmlns:dt=""urn:schemas-microsoft-com:datatypes""><Description dt:dt=""string"">E-Prime Primary Realtime Clock</Description><StartTime><Timestamp dt:dt=""int"">0</Timestamp><DateUtc dt:dt=""string"">2014-05-28T22:37:01Z</DateUtc></StartTime><FrequencyChanges><FrequencyChange><Frequency dt:dt=""r8"">2793040000</Frequency><Timestamp dt:dt=""r8"">42349751330497</Timestamp><Current dt:dt=""r8"">0</Current><DateUtc dt:dt=""string"">2014-05-28T22:37:01Z</DateUtc></FrequencyChange></FrequencyChanges></Clock>\n",60.03,1,1584101453,0,,-999999,1,27542,t,60344,87886,5/28/2014,15:37:01,,1,Session1,SessionsList,,,,,,,,,,1,1,1,4,,,,,,,,4,1,4,NonCued4,MiniBlocks2,,,,563639,8,1,r,-999999,8,691891,r,554,692445,Green,Congruent,r,White,0,,0,10,687893,,0,0,,,,,,,,,,,,,Pictures\white.bmp,3000,2000,Pictures\GreenLeft.bmp,,,,,,,,,,8,1,8,StimulusPr,Pictures\black.bmp,NonCuedStim4,Left
POP_2,27019,1,"<?xml version=""1.0""?>\n<Clock xmlns:dt=""urn:schemas-microsoft-com:datatypes""><Description dt:dt=""string"">E-Prime Primary Realtime Clock</Description><StartTime><Timestamp dt:dt=""int"">0</Timestamp><DateUtc dt:dt=""string"">2014-05-28T22:37:01Z</DateUtc></StartTime><FrequencyChanges><FrequencyChange><Frequency dt:dt=""r8"">2793040000</Frequency><Timestamp dt:dt=""r8"">42349751330497</Timestamp><Current dt:dt=""r8"">0</Current><DateUtc dt:dt=""string"">2014-05-28T22:37:01Z</DateUtc></FrequencyChange></FrequencyChanges></Clock>\n",60.03,1,1584101453,0,,-999999,1,27542,t,60344,87886,5/28/2014,15:37:01,,1,Session1,SessionsList,,,,,,,,,,1,1,1,4,,,,,,,,4,1,4,NonCued4,MiniBlocks2,,,,563639,9,1,b,-999999,3,702886,b,420,703306,Green,Congruent,b,White,0,,0,6,695889,,0,0,,,,,,,,,,,,,Pictures\white.bmp,6000,2000,Pictures\black.bmp,,,,,,,,,,9,1,9,StimulusPr,Pictures\GreenRight.bmp,NonCuedStim4,Right
POP_2,27019,1,"<?xml version=""1.0""?>\n<Clock xmlns:dt=""urn:schemas-microsoft-com:datatypes""><Description dt:dt=""string"">E-Prime Primary Realtime Clock</Description><StartTime><Timestamp dt:dt=""int"">0</Timestamp><DateUtc dt:dt=""string"">2014-05-28T22:37:01Z</DateUtc></StartTime><FrequencyChanges><FrequencyChange><Frequency dt:dt=""r8"">2793040000</Frequency><Timestamp dt:dt=""r8"">42349751330497</Timestamp><Current dt:dt=""r8"">0</Current><DateUtc dt:dt=""string"">2014-05-28T22:37:01Z</DateUtc></FrequencyChange></FrequencyChanges></Clock>\n",60.03,1,1584101453,0,,-999999,1,27542,t,60344,87886,5/28/2014,15:37:01,,1,Session1,SessionsList,,,,,,,,,,1,1,1,4,,,,,,,,4,1,4,NonCued4,MiniBlocks2,,,,563639,10,1,b,-999999,15,711898,b,401,712299,Green,Congruent,b,White,0,,0,17,706900,,0,0,,,,,,,,,,,,,Pictures\white.bmp,4000,4000,Pictures\black.bmp,,,,,,,,,,10,1,10,StimulusPr,Pictures\GreenRight.bmp,NonCuedStim4,Right
POP_2,27019,1,"<?xml version=""1.0""?>\n<Clock xmlns:dt=""urn:schemas-microsoft-com:datatypes""><Description dt:dt=""string"">E-Prime Primary Realtime Clock</Description><StartTime><Timestamp dt:dt=""int"">0</Timestamp><DateUtc dt:dt=""string"">2014-05-28T22:37:01Z</DateUtc></StartTime><FrequencyChanges><FrequencyChange><Frequency dt:dt=""r8"">2793040000</Frequency><Timestamp dt:dt=""r8"">42349751330497</Timestamp><Current dt:dt=""r8"">0</Current><DateUtc dt:dt=""string"">2014-05-28T22:37:01Z</DateUtc></FrequencyChange></FrequencyChanges></Clock>\n",60.03,1,1584101453,0,,-999999,1,27542,t,60344,87886,5/28/2014,15:37:01,,2,Session2,SessionsList,0,,-999999,5,729905,t,35199,765104,716329,2,1,2,1,765105,,,,1,1,1,,,,Cued1,MiniBlocks1,,,,,1,1,r,-999999,17,779131,r,540,779671,White,Congruent,r,Green,0,,0,18,774133,,0,0,1,1,1,,,,,,,,,,Pictures\green.bmp,4000,4000,Pictures\left.bmp,,,,,,,,,,,,,StimulusPr,Pictures\black.bmp,CuedStim1,Left
POP_2,27019,1,"<?xml version=""1.0""?>\n<Clock xmlns:dt=""urn:schemas-microsoft-com:datatypes""><Description dt:dt=""string"">E-Prime Primary Realtime Clock</Description><StartTime><Timestamp dt:dt=""int"">0</Timestamp><DateUtc dt:dt=""string"">2014-05-28T22:37:01Z</DateUtc></StartTime><FrequencyChanges><FrequencyChange><Frequency dt:dt=""r8"">2793040000</Frequency><Timestamp dt:dt=""r8"">42349751330497</Timestamp><Current dt:dt=""r8"">0</Current><DateUtc dt:dt=""string"">2014-05-28T22:37:01Z</DateUtc></FrequencyChange></FrequencyChanges></Clock>\n",60.03,1,1584101453,0,,-999999,1,27542,t,60344,87886,5/28/2014,15:37:01,,2,Session2,SessionsList,0,,-999999,5,729905,t,35199,765104,716329,2,1,2,1,765105,,,,1,1,1,,,,Cued1,MiniBlocks1,,,,,2,1,b,-999999,8,792124,b,466,792590,White,Congruent,b,Green,0,,0,13,785128,,0,0,2,1,2,,,,,,,,,,Pictures\green.bmp,6000,2000,Pictures\black.bmp,,,,,,,,,,,,,StimulusPr,Pictures\right.bmp,CuedStim1,Right
POP_2,27019,1,"<?xml version=""1.0""?>\n<Clock xmlns:dt=""urn:schemas-microsoft-com:datatypes""><Description dt:dt=""string"">E-Prime Primary Realtime Clock</Description><StartTime><Timestamp dt:dt=""int"">0</Timestamp><DateUtc dt:dt=""string"">2014-05-28T22:37:01Z</DateUtc></StartTime><FrequencyChanges><FrequencyChange><Frequency dt:dt=""r8"">2793040000</Frequency><Timestamp dt:dt=""r8"">42349751330497</Timestamp><Current dt:dt=""r8"">0</Current><DateUtc dt:dt=""string"">2014-05-28T22:37:01Z</DateUtc></FrequencyChange></FrequencyChanges></Clock>\n",60.03,1,1584101453,0,,-999999,1,27542,t,60344,87886,5/28/2014,15:37:01,,2,Session2,SessionsList,0,,-999999,5,729905,t,35199,765104,716329,2,1,2,1,765105,,,,1,1,1,,,,Cued1,MiniBlocks1,,,,,3,1,b,-999999,6,800120,b,409,800529,White,Congruent,b,Green,0,,0,2,796106,,0,0,3,1,3,,,,,,,,,,Pictures\green.bmp,3000,2000,Pictures\black.bmp,,,,,,,,,,,,,StimulusPr,Pictures\right.bmp,CuedStim1,Right
POP_2,27019,1,"<?xml version=""1.0""?>\n<Clock xmlns:dt=""urn:schemas-microsoft-com:datatypes""><Description dt:dt=""string"">E-Prime Primary Realtime Clock</Description><StartTime><Timestamp dt:dt=""int"">0</Timestamp><DateUtc dt:dt=""string"">2014-05-28T22:37:01Z</DateUtc></StartTime><FrequencyChanges><FrequencyChange><Frequency dt:dt=""r8"">2793040000</Frequency><Timestamp dt:dt=""r8"">42349751330497</Timestamp><Current dt:dt=""r8"">0</Current><DateUtc dt:dt=""string"">2014-05-28T22:37:01Z</DateUtc></FrequencyChange></FrequencyChanges></Clock>\n",60.03,1,1584101453,0,,-999999,1,27542,t,60344,87886,5/28/2014,15:37:01,,2,Session2,SessionsList,0,,-999999,5,729905,t,35199,765104,716329,2,1,2,1,765105,,,,1,1,1,,,,Cued1,MiniBlocks1,,,,,4,1,b,-999999,17,808116,b,468,808584,White,Incongruent,b,Red,0,,0,10,804118,,0,0,4,1,4,,,,,,,,,,Pictures\red.bmp,3000,16000,Pictures\left.bmp,,,,,,,,,,,,,StimulusPr,Pictures\black.bmp,CuedStim1,Left
POP_2,27019,1,"<?xml version=""1.0""?>\n<Clock xmlns:dt=""urn:schemas-microsoft-com:datatypes""><Description dt:dt=""string"">E-Prime Primary Realtime Clock</Description><StartTime><Timestamp dt:dt=""int"">0</Timestamp><DateUtc dt:dt=""string"">2014-05-28T22:37:01Z</DateUtc></StartTime><FrequencyChanges><FrequencyChange><Frequency dt:dt=""r8"">2793040000</Frequency><Timestamp dt:dt=""r8"">42349751330497</Timestamp><Current dt:dt=""r8"">0</Current><DateUtc dt:dt=""string"">2014-05-28T22:37:01Z</DateUtc></FrequencyChange></FrequencyChanges></Clock>\n",60.03,1,1584101453,0,,-999999,1,27542,t,60344,87886,5/28/2014,15:37:01,,2,Session2,SessionsList,0,,-999999,5,729905,t,35199,765104,716329,2,1,2,1,765105,,,,1,1,1,,,,Cued1,MiniBlocks1,,,,,5,1,r,-999999,12,830122,r,624,830746,White,Congruent,r,Green,0,,0,18,826124,,0,0,5,1,5,,,,,,,,,,Pictures\green.bmp,3000,16000,Pictures\left.bmp,,,,,,,,,,,,,StimulusPr,Pictures\black.bmp,CuedStim1,Left
POP_2,27019,1,"<?xml version=""1.0""?>\n<Clock xmlns:dt=""urn:schemas-microsoft-com:datatypes""><Description dt:dt=""string"">E-Prime Primary Realtime Clock</Description><StartTime><Timestamp dt:dt=""int"">0</Timestamp><DateUtc dt:dt=""string"">2014-05-28T22:37:01Z</DateUtc></StartTime><FrequencyChanges><FrequencyChange><Frequency dt:dt=""r8"">2793040000</Frequency><Timestamp dt:dt=""r8"">42349751330497</Timestamp><Current dt:dt=""r8"">0</Current><DateUtc dt:dt=""string"">2014-05-28T22:37:01Z</DateUtc></FrequencyChange></FrequencyChanges></Clock>\n",60.03,1,1584101453,0,,-999999,1,27542,t,60344,87886,5/28/2014,15:37:01,,2,Session2,SessionsList,0,,-999999,5,729905,t,35199,765104,716329,2,1,2,1,765105,,,,1,1,1,,,,Cued1,MiniBlocks1,,,,,6,1,r,-999999,9,858124,r,643,858767,White,Congruent,r,Green,0,,0,13,848113,,0,0,6,1,6,,,,,,,,,,Pictures\green.bmp,9000,10000,Pictures\left.bmp,,,,,,,,,,,,,StimulusPr,Pictures\black.bmp,CuedStim1,Left
POP_2,27019,1,"<?xml version=""1.0""?>\n<Clock xmlns:dt=""urn:schemas-microsoft-com:datatypes""><Description dt:dt=""string"">E-Prime Primary Realtime Clock</Description><StartTime><Timestamp dt:dt=""int"">0</Timestamp><DateUtc dt:dt=""string"">2014-05-28T22:37:01Z</DateUtc></StartTime><FrequencyChanges><FrequencyChange><Frequency dt:dt=""r8"">2793040000</Frequency><Timestamp dt:dt=""r8"">42349751330497</Timestamp><Current dt:dt=""r8"">0</Current><DateUtc dt:dt=""string"">2014-05-28T22:37:01Z</DateUtc></FrequencyChange></FrequencyChanges></Clock>\n",60.03,1,1584101453,0,,-999999,1,27542,t,60344,87886,5/28/2014,15:37:01,,2,Session2,SessionsList,0,,-999999,5,729905,t,35199,765104,716329,2,1,2,1,765105,,,,1,1,1,,,,Cued1,MiniBlocks1,,,,,7,1,b,-999999,18,874133,b,439,874572,White,Congruent,b,Green,0,,0,3,870118,,0,0,7,1,7,,,,,,,,,,Pictures\green.bmp,3000,16000,Pictures\black.bmp,,,,,,,,,,,,,StimulusPr,Pictures\right.bmp,CuedStim1,Right
POP_2,27019,1,"<?xml version=""1.0""?>\n<Clock xmlns:dt=""urn:schemas-microsoft-com:datatypes""><Description dt:dt=""string"">E-Prime Primary Realtime Clock</Description><StartTime><Timestamp dt:dt=""int"">0</Timestamp><DateUtc dt:dt=""string"">2014-05-28T22:37:01Z</DateUtc></StartTime><FrequencyChanges><FrequencyChange><Frequency dt:dt=""r8"">2793040000</Frequency><Timestamp dt:dt=""r8"">42349751330497</Timestamp><Current dt:dt=""r8"">0</Current><DateUtc dt:dt=""string"">2014-05-28T22:37:01Z</DateUtc></FrequencyChange></FrequencyChanges></Clock>\n",60.03,1,1584101453,0,,-999999,1,27542,t,60344,87886,5/28/2014,15:37:01,,2,Session2,SessionsList,0,,-999999,5,729905,t,35199,765104,716329,2,1,2,1,765105,,,,1,1,1,,,,Cued1,MiniBlocks1,,,,,8,1,r,-999999,6,897121,r,622,897743,White,Incongruent,r,Red,0,,0,6,892107,,0,0,8,1,8,,,,,,,,,,Pictures\red.bmp,4000,2000,Pictures\black.bmp,,,,,,,,,,,,,StimulusPr,Pictures\right.bmp,CuedStim1,Right
POP_2,27019,1,"<?xml version=""1.0""?>\n<Clock xmlns:dt=""urn:schemas-microsoft-com:datatypes""><Description dt:dt=""string"">E-Prime Primary Realtime Clock</Description><StartTime><Timestamp dt:dt=""int"">0</Timestamp><DateUtc dt:dt=""string"">2014-05-28T22:37:01Z</DateUtc></StartTime><FrequencyChanges><FrequencyChange><Frequency dt:dt=""r8"">2793040000</Frequency><Timestamp dt:dt=""r8"">42349751330497</Timestamp><Current dt:dt=""r8"">0</Current><DateUtc dt:dt=""string"">2014-05-28T22:37:01Z</DateUtc></FrequencyChange></FrequencyChanges></Clock>\n",60.03,1,1584101453,0,,-999999,1,27542,t,60344,87886,5/28/2014,15:37:01,,2,Session2,SessionsList,0,,-999999,5,729905,t,35199,765104,716329,2,1,2,1,765105,,,,1,1,1,,,,Cued1,MiniBlocks1,,,,,9,1,b,-999999,3,906117,b,351,906468,White,Congruent,b,Green,0,,0,5,901119,,0,0,9,1,9,,,,,,,,,,Pictures\green.bmp,4000,2000,Pictures\black.bmp,,,,,,,,,,,,,StimulusPr,Pictures\right.bmp,CuedStim1,Right
POP_2,27019,1,"<?xml version=""1.0""?>\n<Clock xmlns:dt=""urn:schemas-microsoft-com:datatypes""><Description dt:dt=""string"">E-Prime Primary Realtime Clock</Description><StartTime><Timestamp dt:dt=""int"">0</Timestamp><DateUtc dt:dt=""string"">2014-05-28T22:37:01Z</DateUtc></StartTime><FrequencyChanges><FrequencyChange><Frequency dt:dt=""r8"">2793040000</Frequency><Timestamp dt:dt=""r8"">42349751330497</Timestamp><Current dt:dt=""r8"">0</Current><DateUtc dt:dt=""string"">2014-05-28T22:37:01Z</DateUtc></FrequencyChange></FrequencyChanges></Clock>\n",60.03,1,1584101453,0,,-999999,1,27542,t,60344,87886,5/28/2014,15:37:01,,2,Session2,SessionsList,0,,-999999,5,729905,t,35199,765104,716329,2,1,2,1,765105,,,,1,1,1,,,,Cued1,MiniBlocks1,,,,,10,1,r,-999999,11,914113,r,580,914693,White,Congruent,r,Green,0,,0,17,910131,,0,0,10,1,10,,,,,,,,,,Pictures\green.bmp,3000,2000,Pictures\left.bmp,,,,,,,,,,,,,StimulusPr,Pictures\black.bmp,CuedStim1,Left
POP_2,27019,1,"<?xml version=""1.0""?>\n<Clock xmlns:dt=""urn:schemas-microsoft-com:datatypes""><Description dt:dt=""string"">E-Prime Primary Realtime Clock</Description><StartTime><Timestamp dt:dt=""int"">0</Timestamp><DateUtc dt:dt=""string"">2014-05-28T22:37:01Z</DateUtc></StartTime><FrequencyChanges><FrequencyChange><Frequency dt:dt=""r8"">2793040000</Frequency><Timestamp dt:dt=""r8"">42349751330497</Timestamp><Current dt:dt=""r8"">0</Current><DateUtc dt:dt=""string"">2014-05-28T22:37:01Z</DateUtc></FrequencyChange></FrequencyChanges></Clock>\n",60.03,1,1584101453,0,,-999999,1,27542,t,60344,87886,5/28/2014,15:37:01,,2,Session2,SessionsList,0,,-999999,5,729905,t,35199,765104,716329,2,1,2,2,,,,,2,1,2,,,,NonCued1,MiniBlocks1,916711,,,,1,1,r,-999999,5,932120,r,477,932597,Green,Congruent,r,White,0,,0,7,927106,,0,0,,,,,,,,,,,,,Pictures\white.bmp,4000,2000,Pictures\GreenLeft.bmp,1,1,1,,,,,,,,,,StimulusPr,Pictures\black.bmp,NonCuedStim1,Left
POP_2,27019,1,"<?xml version=""1.0""?>\n<Clock xmlns:dt=""urn:schemas-microsoft-com:datatypes""><Description dt:dt=""string"">E-Prime Primary Realtime Clock</Description><StartTime><Timestamp dt:dt=""int"">0</Timestamp><DateUtc dt:dt=""string"">2014-05-28T22:37:01Z</DateUtc></StartTime><FrequencyChanges><FrequencyChange><Frequency dt:dt=""r8"">2793040000</Frequency><Timestamp dt:dt=""r8"">42349751330497</Timestamp><Current dt:dt=""r8"">0</Current><DateUtc dt:dt=""string"">2014-05-28T22:37:01Z</DateUtc></FrequencyChange></FrequencyChanges></Clock>\n",60.03,1,1584101453,0,,-999999,1,27542,t,60344,87886,5/28/2014,15:37:01,,2,Session2,SessionsList,0,,-999999,5,729905,t,35199,765104,716329,2,1,2,2,,,,,2,1,2,,,,NonCued1,MiniBlocks1,916711,,,,2,1,b,-999999,16,943131,b,425,943556,Green,Congruent,b,White,0,,0,2,936118,,0,0,,,,,,,,,,,,,Pictures\white.bmp,6000,16000,Pictures\black.bmp,2,1,2,,,,,,,,,,StimulusPr,Pictures\GreenRight.bmp,NonCuedStim1,Right
POP_2,27019,1,"<?xml version=""1.0""?>\n<Clock xmlns:dt=""urn:schemas-microsoft-com:datatypes""><Description dt:dt=""string"">E-Prime Primary Realtime Clock</Description><StartTime><Timestamp dt:dt=""int"">0</Timestamp><DateUtc dt:dt=""string"">2014-05-28T22:37:01Z</DateUtc></StartTime><FrequencyChanges><FrequencyChange><Frequency dt:dt=""r8"">2793040000</Frequency><Timestamp dt:dt=""r8"">42349751330497</Timestamp><Current dt:dt=""r8"">0</Current><DateUtc dt:dt=""string"">2014-05-28T22:37:01Z</DateUtc></FrequencyChange></FrequencyChanges></Clock>\n",60.03,1,1584101453,0,,-999999,1,27542,t,60344,87886,5/28/2014,15:37:01,,2,Session2,SessionsList,0,,-999999,5,729905,t,35199,765104,716329,2,1,2,2,,,,,2,1,2,,,,NonCued1,MiniBlocks1,916711,,,,3,1,r,-999999,4,968119,r,741,968860,Red,Incongruent,r,White,0,,0,7,961122,,0,0,,,,,,,,,,,,,Pictures\white.bmp,6000,10000,Pictures\black.bmp,3,1,3,,,,,,,,,,StimulusPr,Pictures\RedRight.bmp,NonCuedStim1,Right
POP_2,27019,1,"<?xml version=""1.0""?>\n<Clock xmlns:dt=""urn:schemas-microsoft-com:datatypes""><Description dt:dt=""string"">E-Prime Primary Realtime Clock</Description><StartTime><Timestamp dt:dt=""int"">0</Timestamp><DateUtc dt:dt=""string"">2014-05-28T22:37:01Z</DateUtc></StartTime><FrequencyChanges><FrequencyChange><Frequency dt:dt=""r8"">2793040000</Frequency><Timestamp dt:dt=""r8"">42349751330497</Timestamp><Current dt:dt=""r8"">0</Current><DateUtc dt:dt=""string"">2014-05-28T22:37:01Z</DateUtc></FrequencyChange></FrequencyChanges></Clock>\n",60.03,1,1584101453,0,,-999999,1,27542,t,60344,87886,5/28/2014,15:37:01,,2,Session2,SessionsList,0,,-999999,5,729905,t,35199,765104,716329,2,1,2,2,,,,,2,1,2,,,,NonCued1,MiniBlocks1,916711,,,,4,1,r,-999999,11,990125,r,589,990714,Green,Congruent,r,White,0,,0,9,980113,,0,0,,,,,,,,,,,,,Pictures\white.bmp,9000,10000,Pictures\GreenLeft.bmp,4,1,4,,,,,,,,,,StimulusPr,Pictures\black.bmp,NonCuedStim1,Left
POP_2,27019,1,"<?xml version=""1.0""?>\n<Clock xmlns:dt=""urn:schemas-microsoft-com:datatypes""><Description dt:dt=""string"">E-Prime Primary Realtime Clock</Description><StartTime><Timestamp dt:dt=""int"">0</Timestamp><DateUtc dt:dt=""string"">2014-05-28T22:37:01Z</DateUtc></StartTime><FrequencyChanges><FrequencyChange><Frequency dt:dt=""r8"">2793040000</Frequency><Timestamp dt:dt=""r8"">42349751330497</Timestamp><Current dt:dt=""r8"">0</Current><DateUtc dt:dt=""string"">2014-05-28T22:37:01Z</DateUtc></FrequencyChange></FrequencyChanges></Clock>\n",60.03,1,1584101453,0,,-999999,1,27542,t,60344,87886,5/28/2014,15:37:01,,2,Session2,SessionsList,0,,-999999,5,729905,t,35199,765104,716329,2,1,2,2,,,,,2,1,2,,,,NonCued1,MiniBlocks1,916711,,,,5,1,b,-999999,19,1006133,b,347,1006480,Green,Congruent,b,White,0,,0,14,1002119,,0,0,,,,,,,,,,,,,Pictures\white.bmp,3000,2000,Pictures\black.bmp,5,1,5,,,,,,,,,,StimulusPr,Pictures\GreenRight.bmp,NonCuedStim1,Right
POP_2,27019,1,"<?xml version=""1.0""?>\n<Clock xmlns:dt=""urn:schemas-microsoft-com:datatypes""><Description dt:dt=""string"">E-Prime Primary Realtime Clock</Description><StartTime><Timestamp dt:dt=""int"">0</Timestamp><DateUtc dt:dt=""string"">2014-05-28T22:37:01Z</DateUtc></StartTime><FrequencyChanges><FrequencyChange><Frequency dt:dt=""r8"">2793040000</Frequency><Timestamp dt:dt=""r8"">42349751330497</Timestamp><Current dt:dt=""r8"">0</Current><DateUtc dt:dt=""string"">2014-05-28T22:37:01Z</DateUtc></FrequencyChange></FrequencyChanges></Clock>\n",60.03,1,1584101453,0,,-999999,1,27542,t,60344,87886,5/28/2014,15:37:01,,2,Session2,SessionsList,0,,-999999,5,729905,t,35199,765104,716329,2,1,2,2,,,,,2,1,2,,,,NonCued1,MiniBlocks1,916711,,,,6,1,b,-999999,15,1015129,b,638,1015767,Red,Incongruent,b,White,0,,0,17,1010131,,0,0,,,,,,,,,,,,,Pictures\white.bmp,4000,16000,Pictures\RedLeft.bmp,6,1,6,,,,,,,,,,StimulusPr,Pictures\black.bmp,NonCuedStim1,Left
POP_2,27019,1,"<?xml version=""1.0""?>\n<Clock xmlns:dt=""urn:schemas-microsoft-com:datatypes""><Description dt:dt=""string"">E-Prime Primary Realtime Clock</Description><StartTime><Timestamp dt:dt=""int"">0</Timestamp><DateUtc dt:dt=""string"">2014-05-28T22:37:01Z</DateUtc></StartTime><FrequencyChanges><FrequencyChange><Frequency dt:dt=""r8"">2793040000</Frequency><Timestamp dt:dt=""r8"">42349751330497</Timestamp><Current dt:dt=""r8"">0</Current><DateUtc dt:dt=""string"">2014-05-28T22:37:01Z</DateUtc></FrequencyChange></FrequencyChanges></Clock>\n",60.03,1,1584101453,0,,-999999,1,27542,t,60344,87886,5/28/2014,15:37:01,,2,Session2,SessionsList,0,,-999999,5,729905,t,35199,765104,716329,2,1,2,2,,,,,2,1,2,,,,NonCued1,MiniBlocks1,916711,,,,7,1,b,-999999,13,1037118,b,645,1037763,Green,Congruent,b,White,0,,0,6,1033120,,0,0,,,,,,,,,,,,,Pictures\white.bmp,3000,4000,Pictures\black.bmp,7,1,7,,,,,,,,,,StimulusPr,Pictures\GreenRight.bmp,NonCuedStim1,Right
POP_2,27019,1,"<?xml version=""1.0""?>\n<Clock xmlns:dt=""urn:schemas-microsoft-com:datatypes""><Description dt:dt=""string"">E-Prime Primary Realtime Clock</Description><StartTime><Timestamp dt:dt=""int"">0</Timestamp><DateUtc dt:dt=""string"">2014-05-28T22:37:01Z</DateUtc></StartTime><FrequencyChanges><FrequencyChange><Frequency dt:dt=""r8"">2793040000</Frequency><Timestamp dt:dt=""r8"">42349751330497</Timestamp><Current dt:dt=""r8"">0</Current><DateUtc dt:dt=""string"">2014-05-28T22:37:01Z</DateUtc></FrequencyChange></FrequencyChanges></Clock>\n",60.03,1,1584101453,0,,-999999,1,27542,t,60344,87886,5/28/2014,15:37:01,,2,Session2,SessionsList,0,,-999999,5,729905,t,35199,765104,716329,2,1,2,2,,,,,2,1,2,,,,NonCued1,MiniBlocks1,916711,,,,8,1,b,-999999,6,1047113,b,487,1047600,Green,Congruent,b,White,0,,0,12,1043115,,0,0,,,,,,,,,,,,,Pictures\white.bmp,3000,4000,Pictures\black.bmp,8,1,8,,,,,,,,,,StimulusPr,Pictures\GreenRight.bmp,NonCuedStim1,Right
POP_2,27019,1,"<?xml version=""1.0""?>\n<Clock xmlns:dt=""urn:schemas-microsoft-com:datatypes""><Description dt:dt=""string"">E-Prime Primary Realtime Clock</Description><StartTime><Timestamp dt:dt=""int"">0</Timestamp><DateUtc dt:dt=""string"">2014-05-28T22:37:01Z</DateUtc></StartTime><FrequencyChanges><FrequencyChange><Frequency dt:dt=""r8"">2793040000</Frequency><Timestamp dt:dt=""r8"">42349751330497</Timestamp><Current dt:dt=""r8"">0</Current><DateUtc dt:dt=""string"">2014-05-28T22:37:01Z</DateUtc></FrequencyChange></FrequencyChanges></Clock>\n",60.03,1,1584101453,0,,-999999,1,27542,t,60344,87886,5/28/2014,15:37:01,,2,Session2,SessionsList,0,,-999999,5,729905,t,35199,765104,716329,2,1,2,2,,,,,2,1,2,,,,NonCued1,MiniBlocks1,916711,,,,9,1,b,-999999,7,1063121,b,475,1063596,Red,Incongruent,b,White,0,,0,12,1053126,,0,0,,,,,,,,,,,,,Pictures\white.bmp,9000,2000,Pictures\RedLeft.bmp,9,1,9,,,,,,,,,,StimulusPr,Pictures\black.bmp,NonCuedStim1,Left
POP_2,27019,1,"<?xml version=""1.0""?>\n<Clock xmlns:dt=""urn:schemas-microsoft-com:datatypes""><Description dt:dt=""string"">E-Prime Primary Realtime Clock</Description><StartTime><Timestamp dt:dt=""int"">0</Timestamp><DateUtc dt:dt=""string"">2014-05-28T22:37:01Z</DateUtc></StartTime><FrequencyChanges><FrequencyChange><Frequency dt:dt=""r8"">2793040000</Frequency><Timestamp dt:dt=""r8"">42349751330497</Timestamp><Current dt:dt=""r8"">0</Current><DateUtc dt:dt=""string"">2014-05-28T22:37:01Z</DateUtc></FrequencyChange></FrequencyChanges></Clock>\n",60.03,1,1584101453,0,,-999999,1,27542,t,60344,87886,5/28/2014,15:37:01,,2,Session2,SessionsList,0,,-999999,5,729905,t,35199,765104,716329,2,1,2,2,,,,,2,1,2,,,,NonCued1,MiniBlocks1,916711,,,,10,1,r,-999999,13,1074116,r,711,1074827,Green,Congruent,r,White,0,,0,5,1067119,,0,0,,,,,,,,,,,,,Pictures\white.bmp,6000,2000,Pictures\GreenLeft.bmp,10,1,10,,,,,,,,,,StimulusPr,Pictures\black.bmp,NonCuedStim1,Left
POP_2,27019,1,"<?xml version=""1.0""?>\n<Clock xmlns:dt=""urn:schemas-microsoft-com:datatypes""><Description dt:dt=""string"">E-Prime Primary Realtime Clock</Description><StartTime><Timestamp dt:dt=""int"">0</Timestamp><DateUtc dt:dt=""string"">2014-05-28T22:37:01Z</DateUtc></StartTime><FrequencyChanges><FrequencyChange><Frequency dt:dt=""r8"">2793040000</Frequency><Timestamp dt:dt=""r8"">42349751330497</Timestamp><Current dt:dt=""r8"">0</Current><DateUtc dt:dt=""string"">2014-05-28T22:37:01Z</DateUtc></FrequencyChange></FrequencyChanges></Clock>\n",60.03,1,1584101453,0,,-999999,1,27542,t,60344,87886,5/28/2014,15:37:01,,2,Session2,SessionsList,0,,-999999,5,729905,t,35199,765104,716329,2,1,2,3,,,,,3,1,3,,,,NonCued2,MiniBlocks1,,1076848,,,1,1,b,-999999,6,1097121,b,511,1097632,Green,Congruent,b,White,0,,0,2,1087110,,0,0,,,,,,,,,,,,,Pictures\white.bmp,9000,10000,Pictures\black.bmp,,,,1,1,1,,,,,,,StimulusPr,Pictures\GreenRight.bmp,NonCuedStim2,Right
POP_2,27019,1,"<?xml version=""1.0""?>\n<Clock xmlns:dt=""urn:schemas-microsoft-com:datatypes""><Description dt:dt=""string"">E-Prime Primary Realtime Clock</Description><StartTime><Timestamp dt:dt=""int"">0</Timestamp><DateUtc dt:dt=""string"">2014-05-28T22:37:01Z</DateUtc></StartTime><FrequencyChanges><FrequencyChange><Frequency dt:dt=""r8"">2793040000</Frequency><Timestamp dt:dt=""r8"">42349751330497</Timestamp><Current dt:dt=""r8"">0</Current><DateUtc dt:dt=""string"">2014-05-28T22:37:01Z</DateUtc></FrequencyChange></FrequencyChanges></Clock>\n",60.03,1,1584101453,0,,-999999,1,27542,t,60344,87886,5/28/2014,15:37:01,,2,Session2,SessionsList,0,,-999999,5,729905,t,35199,765104,716329,2,1,2,3,,,,,3,1,3,,,,NonCued2,MiniBlocks1,,1076848,,,2,1,r,-999999,17,1113129,r,631,1113760,Green,Congruent,r,White,0,,0,15,1109115,,0,0,,,,,,,,,,,,,Pictures\white.bmp,3000,2000,Pictures\GreenLeft.bmp,,,,2,1,2,,,,,,,StimulusPr,Pictures\black.bmp,NonCuedStim2,Left
POP_2,27019,1,"<?xml version=""1.0""?>\n<Clock xmlns:dt=""urn:schemas-microsoft-com:datatypes""><Description dt:dt=""string"">E-Prime Primary Realtime Clock</Description><StartTime><Timestamp dt:dt=""int"">0</Timestamp><DateUtc dt:dt=""string"">2014-05-28T22:37:01Z</DateUtc></StartTime><FrequencyChanges><FrequencyChange><Frequency dt:dt=""r8"">2793040000</Frequency><Timestamp dt:dt=""r8"">42349751330497</Timestamp><Current dt:dt=""r8"">0</Current><DateUtc dt:dt=""string"">2014-05-28T22:37:01Z</DateUtc></FrequencyChange></FrequencyChanges></Clock>\n",60.03,1,1584101453,0,,-999999,1,27542,t,60344,87886,5/28/2014,15:37:01,,2,Session2,SessionsList,0,,-999999,5,729905,t,35199,765104,716329,2,1,2,3,,,,,3,1,3,,,,NonCued2,MiniBlocks1,,1076848,,,3,1,r,-999999,11,1121125,r,741,1121866,Red,Incongruent,r,White,0,,0,3,1117111,,0,0,,,,,,,,,,,,,Pictures\white.bmp,3000,2000,Pictures\black.bmp,,,,3,1,3,,,,,,,StimulusPr,Pictures\RedRight.bmp,NonCuedStim2,Right
POP_2,27019,1,"<?xml version=""1.0""?>\n<Clock xmlns:dt=""urn:schemas-microsoft-com:datatypes""><Description dt:dt=""string"">E-Prime Primary Realtime Clock</Description><StartTime><Timestamp dt:dt=""int"">0</Timestamp><DateUtc dt:dt=""string"">2014-05-28T22:37:01Z</DateUtc></StartTime><FrequencyChanges><FrequencyChange><Frequency dt:dt=""r8"">2793040000</Frequency><Timestamp dt:dt=""r8"">42349751330497</Timestamp><Current dt:dt=""r8"">0</Current><DateUtc dt:dt=""string"">2014-05-28T22:37:01Z</DateUtc></FrequencyChange></FrequencyChanges></Clock>\n",60.03,1,1584101453,0,,-999999,1,27542,t,60344,87886,5/28/2014,15:37:01,,2,Session2,SessionsList,0,,-999999,5,729905,t,35199,765104,716329,2,1,2,3,,,,,3,1,3,,,,NonCued2,MiniBlocks1,,1076848,,,4,1,r,-999999,18,1130121,r,627,1130748,Green,Congruent,r,White,0,,0,9,1125123,,0,0,,,,,,,,,,,,,Pictures\white.bmp,4000,16000,Pictures\GreenLeft.bmp,,,,4,1,4,,,,,,,StimulusPr,Pictures\black.bmp,NonCuedStim2,Left
POP_2,27019,1,"<?xml version=""1.0""?>\n<Clock xmlns:dt=""urn:schemas-microsoft-com:datatypes""><Description dt:dt=""string"">E-Prime Primary Realtime Clock</Description><StartTime><Timestamp dt:dt=""int"">0</Timestamp><DateUtc dt:dt=""string"">2014-05-28T22:37:01Z</DateUtc></StartTime><FrequencyChanges><FrequencyChange><Frequency dt:dt=""r8"">2793040000</Frequency><Timestamp dt:dt=""r8"">42349751330497</Timestamp><Current dt:dt=""r8"">0</Current><DateUtc dt:dt=""string"">2014-05-28T22:37:01Z</DateUtc></FrequencyChange></FrequencyChanges></Clock>\n",60.03,1,1584101453,0,,-999999,1,27542,t,60344,87886,5/28/2014,15:37:01,,2,Session2,SessionsList,0,,-999999,5,729905,t,35199,765104,716329,2,1,2,3,,,,,3,1,3,,,,NonCued2,MiniBlocks1,,1076848,,,5,1,r,-999999,11,1155125,r,623,1155748,Green,Congruent,r,White,0,,0,14,1148128,,0,0,,,,,,,,,,,,,Pictures\white.bmp,6000,4000,Pictures\GreenLeft.bmp,,,,5,1,5,,,,,,,StimulusPr,Pictures\black.bmp,NonCuedStim2,Left
POP_2,27019,1,"<?xml version=""1.0""?>\n<Clock xmlns:dt=""urn:schemas-microsoft-com:datatypes""><Description dt:dt=""string"">E-Prime Primary Realtime Clock</Description><StartTime><Timestamp dt:dt=""int"">0</Timestamp><DateUtc dt:dt=""string"">2014-05-28T22:37:01Z</DateUtc></StartTime><FrequencyChanges><FrequencyChange><Frequency dt:dt=""r8"">2793040000</Frequency><Timestamp dt:dt=""r8"">42349751330497</Timestamp><Current dt:dt=""r8"">0</Current><DateUtc dt:dt=""string"">2014-05-28T22:37:01Z</DateUtc></FrequencyChange></FrequencyChanges></Clock>\n",60.03,1,1584101453,0,,-999999,1,27542,t,60344,87886,5/28/2014,15:37:01,,2,Session2,SessionsList,0,,-999999,5,729905,t,35199,765104,716329,2,1,2,3,,,,,3,1,3,,,,NonCued2,MiniBlocks1,,1076848,,,6,1,b,-999999,6,1165120,b,590,1165710,Red,Incongruent,b,White,0,,0,7,1161105,,0,0,,,,,,,,,,,,,Pictures\white.bmp,3000,4000,Pictures\RedLeft.bmp,,,,6,1,6,,,,,,,StimulusPr,Pictures\black.bmp,NonCuedStim2,Left
POP_2,27019,1,"<?xml version=""1.0""?>\n<Clock xmlns:dt=""urn:schemas-microsoft-com:datatypes""><Description dt:dt=""string"">E-Prime Primary Realtime Clock</Description><StartTime><Timestamp dt:dt=""int"">0</Timestamp><DateUtc dt:dt=""string"">2014-05-28T22:37:01Z</DateUtc></StartTime><FrequencyChanges><FrequencyChange><Frequency dt:dt=""r8"">2793040000</Frequency><Timestamp dt:dt=""r8"">42349751330497</Timestamp><Current dt:dt=""r8"">0</Current><DateUtc dt:dt=""string"">2014-05-28T22:37:01Z</DateUtc></FrequencyChange></FrequencyChanges></Clock>\n",60.03,1,1584101453,0,,-999999,1,27542,t,60344,87886,5/28/2014,15:37:01,,2,Session2,SessionsList,0,,-999999,5,729905,t,35199,765104,716329,2,1,2,3,,,,,3,1,3,,,,NonCued2,MiniBlocks1,,1076848,,,7,1,b,-999999,17,1176131,b,406,1176537,Green,Congruent,b,White,0,,0,3,1171117,,0,0,,,,,,,,,,,,,Pictures\white.bmp,4000,16000,Pictures\black.bmp,,,,7,1,7,,,,,,,StimulusPr,Pictures\GreenRight.bmp,NonCuedStim2,Right
POP_2,27019,1,"<?xml version=""1.0""?>\n<Clock xmlns:dt=""urn:schemas-microsoft-com:datatypes""><Description dt:dt=""string"">E-Prime Primary Realtime Clock</Description><StartTime><Timestamp dt:dt=""int"">0</Timestamp><DateUtc dt:dt=""string"">2014-05-28T22:37:01Z</DateUtc></StartTime><FrequencyChanges><FrequencyChange><Frequency dt:dt=""r8"">2793040000</Frequency><Timestamp dt:dt=""r8"">42349751330497</Timestamp><Current dt:dt=""r8"">0</Current><DateUtc dt:dt=""string"">2014-05-28T22:37:01Z</DateUtc></FrequencyChange></FrequencyChanges></Clock>\n",60.03,1,1584101453,0,,-999999,1,27542,t,60344,87886,5/28/2014,15:37:01,,2,Session2,SessionsList,0,,-999999,5,729905,t,35199,765104,716329,2,1,2,3,,,,,3,1,3,,,,NonCued2,MiniBlocks1,,1076848,,,8,1,r,-999999,4,1204118,r,712,1204830,Green,Congruent,r,White,0,,0,8,1194122,,0,0,,,,,,,,,,,,,Pictures\white.bmp,9000,2000,Pictures\GreenLeft.bmp,,,,8,1,8,,,,,,,StimulusPr,Pictures\black.bmp,NonCuedStim2,Left
POP_2,27019,1,"<?xml version=""1.0""?>\n<Clock xmlns:dt=""urn:schemas-microsoft-com:datatypes""><Description dt:dt=""string"">E-Prime Primary Realtime Clock</Description><StartTime><Timestamp dt:dt=""int"">0</Timestamp><DateUtc dt:dt=""string"">2014-05-28T22:37:01Z</DateUtc></StartTime><FrequencyChanges><FrequencyChange><Frequency dt:dt=""r8"">2793040000</Frequency><Timestamp dt:dt=""r8"">42349751330497</Timestamp><Current dt:dt=""r8"">0</Current><DateUtc dt:dt=""string"">2014-05-28T22:37:01Z</DateUtc></FrequencyChange></FrequencyChanges></Clock>\n",60.03,1,1584101453,0,,-999999,1,27542,t,60344,87886,5/28/2014,15:37:01,,2,Session2,SessionsList,0,,-999999,5,729905,t,35199,765104,716329,2,1,2,3,,,,,3,1,3,,,,NonCued2,MiniBlocks1,,1076848,,,9,1,b,-999999,11,1212113,b,524,1212637,Green,Congruent,b,White,0,,0,18,1208132,,0,0,,,,,,,,,,,,,Pictures\white.bmp,3000,10000,Pictures\black.bmp,,,,9,1,9,,,,,,,StimulusPr,Pictures\GreenRight.bmp,NonCuedStim2,Right
POP_2,27019,1,"<?xml version=""1.0""?>\n<Clock xmlns:dt=""urn:schemas-microsoft-com:datatypes""><Description dt:dt=""string"">E-Prime Primary Realtime Clock</Description><StartTime><Timestamp dt:dt=""int"">0</Timestamp><DateUtc dt:dt=""string"">2014-05-28T22:37:01Z</DateUtc></StartTime><FrequencyChanges><FrequencyChange><Frequency dt:dt=""r8"">2793040000</Frequency><Timestamp dt:dt=""r8"">42349751330497</Timestamp><Current dt:dt=""r8"">0</Current><DateUtc dt:dt=""string"">2014-05-28T22:37:01Z</DateUtc></FrequencyChange></FrequencyChanges></Clock>\n",60.03,1,1584101453,0,,-999999,1,27542,t,60344,87886,5/28/2014,15:37:01,,2,Session2,SessionsList,0,,-999999,5,729905,t,35199,765104,716329,2,1,2,3,,,,,3,1,3,,,,NonCued2,MiniBlocks1,,1076848,,,10,1,b,-999999,9,1228122,b,415,1228537,Green,Congruent,b,White,0,,0,11,1224124,,0,0,,,,,,,,,,,,,Pictures\white.bmp,3000,2000,Pictures\black.bmp,,,,10,1,10,,,,,,,StimulusPr,Pictures\GreenRight.bmp,NonCuedStim2,Right
POP_2,27019,1,"<?xml version=""1.0""?>\n<Clock xmlns:dt=""urn:schemas-microsoft-com:datatypes""><Description dt:dt=""string"">E-Prime Primary Realtime Clock</Description><StartTime><Timestamp dt:dt=""int"">0</Timestamp><DateUtc dt:dt=""string"">2014-05-28T22:37:01Z</DateUtc></StartTime><FrequencyChanges><FrequencyChange><Frequency dt:dt=""r8"">2793040000</Frequency><Timestamp dt:dt=""r8"">42349751330497</Timestamp><Current dt:dt=""r8"">0</Current><DateUtc dt:dt=""string"">2014-05-28T22:37:01Z</DateUtc></FrequencyChange></FrequencyChanges></Clock>\n",60.03,1,1584101453,0,,-999999,1,27542,t,60344,87886,5/28/2014,15:37:01,,2,Session2,SessionsList,0,,-999999,5,729905,t,35199,765104,716329,2,1,2,4,,1230554,,,4,1,4,,,,Cued2,MiniBlocks1,,,,,1,1,b,-999999,11,1247112,b,471,1247583,White,Congruent,b,Green,0,,0,17,1240116,,0,0,,,,1,1,1,,,,,,,Pictures\green.bmp,6000,4000,Pictures\black.bmp,,,,,,,,,,,,,StimulusPr,Pictures\right.bmp,CuedStim2,Right
POP_2,27019,1,"<?xml version=""1.0""?>\n<Clock xmlns:dt=""urn:schemas-microsoft-com:datatypes""><Description dt:dt=""string"">E-Prime Primary Realtime Clock</Description><StartTime><Timestamp dt:dt=""int"">0</Timestamp><DateUtc dt:dt=""string"">2014-05-28T22:37:01Z</DateUtc></StartTime><FrequencyChanges><FrequencyChange><Frequency dt:dt=""r8"">2793040000</Frequency><Timestamp dt:dt=""r8"">42349751330497</Timestamp><Current dt:dt=""r8"">0</Current><DateUtc dt:dt=""string"">2014-05-28T22:37:01Z</DateUtc></FrequencyChange></FrequencyChanges></Clock>\n",60.03,1,1584101453,0,,-999999,1,27542,t,60344,87886,5/28/2014,15:37:01,,2,Session2,SessionsList,0,,-999999,5,729905,t,35199,765104,716329,2,1,2,4,,1230554,,,4,1,4,,,,Cued2,MiniBlocks1,,,,,2,1,b,-999999,7,1263121,b,419,1263540,White,Congruent,b,Green,0,,0,13,1253126,,0,0,,,,2,1,2,,,,,,,Pictures\green.bmp,9000,10000,Pictures\black.bmp,,,,,,,,,,,,,StimulusPr,Pictures\right.bmp,CuedStim2,Right
POP_2,27019,1,"<?xml version=""1.0""?>\n<Clock xmlns:dt=""urn:schemas-microsoft-com:datatypes""><Description dt:dt=""string"">E-Prime Primary Realtime Clock</Description><StartTime><Timestamp dt:dt=""int"">0</Timestamp><DateUtc dt:dt=""string"">2014-05-28T22:37:01Z</DateUtc></StartTime><FrequencyChanges><FrequencyChange><Frequency dt:dt=""r8"">2793040000</Frequency><Timestamp dt:dt=""r8"">42349751330497</Timestamp><Current dt:dt=""r8"">0</Current><DateUtc dt:dt=""string"">2014-05-28T22:37:01Z</DateUtc></FrequencyChange></FrequencyChanges></Clock>\n",60.03,1,1584101453,0,,-999999,1,27542,t,60344,87886,5/28/2014,15:37:01,,2,Session2,SessionsList,0,,-999999,5,729905,t,35199,765104,716329,2,1,2,4,,1230554,,,4,1,4,,,,Cued2,MiniBlocks1,,,,,3,1,r,-999999,6,1279113,r,699,1279812,White,Incongruent,r,Red,0,,0,17,1275115,,0,0,,,,3,1,3,,,,,,,Pictures\red.bmp,3000,2000,Pictures\black.bmp,,,,,,,,,,,,,StimulusPr,Pictures\right.bmp,CuedStim2,Right
POP_2,27019,1,"<?xml version=""1.0""?>\n<Clock xmlns:dt=""urn:schemas-microsoft-com:datatypes""><Description dt:dt=""string"">E-Prime Primary Realtime Clock</Description><StartTime><Timestamp dt:dt=""int"">0</Timestamp><DateUtc dt:dt=""string"">2014-05-28T22:37:01Z</DateUtc></StartTime><FrequencyChanges><FrequencyChange><Frequency dt:dt=""r8"">2793040000</Frequency><Timestamp dt:dt=""r8"">42349751330497</Timestamp><Current dt:dt=""r8"">0</Current><DateUtc dt:dt=""string"">2014-05-28T22:37:01Z</DateUtc></FrequencyChange></FrequencyChanges></Clock>\n",60.03,1,1584101453,0,,-999999,1,27542,t,60344,87886,5/28/2014,15:37:01,,2,Session2,SessionsList,0,,-999999,5,729905,t,35199,765104,716329,2,1,2,4,,1230554,,,4,1,4,,,,Cued2,MiniBlocks1,,,,,4,1,r,-999999,10,1290124,r,973,1291097,White,Congruent,r,Green,0,,0,13,1283127,,0,0,,,,4,1,4,,,,,,,Pictures\green.bmp,6000,16000,Pictures\left.bmp,,,,,,,,,,,,,StimulusPr,Pictures\black.bmp,CuedStim2,Left
POP_2,27019,1,"<?xml version=""1.0""?>\n<Clock xmlns:dt=""urn:schemas-microsoft-com:datatypes""><Description dt:dt=""string"">E-Prime Primary Realtime Clock</Description><StartTime><Timestamp dt:dt=""int"">0</Timestamp><DateUtc dt:dt=""string"">2014-05-28T22:37:01Z</DateUtc></StartTime><FrequencyChanges><FrequencyChange><Frequency dt:dt=""r8"">2793040000</Frequency><Timestamp dt:dt=""r8"">42349751330497</Timestamp><Current dt:dt=""r8"">0</Current><DateUtc dt:dt=""string"">2014-05-28T22:37:01Z</DateUtc></FrequencyChange></FrequencyChanges></Clock>\n",60.03,1,1584101453,0,,-999999,1,27542,t,60344,87886,5/28/2014,15:37:01,,2,Session2,SessionsList,0,,-999999,5,729905,t,35199,765104,716329,2,1,2,4,,1230554,,,4,1,4,,,,Cued2,MiniBlocks1,,,,,5,1,b,-999999,15,1313129,b,376,1313505,White,Congruent,b,Green,0,,0,17,1309131,,0,0,,,,5,1,5,,,,,,,Pictures\green.bmp,3000,2000,Pictures\black.bmp,,,,,,,,,,,,,StimulusPr,Pictures\right.bmp,CuedStim2,Right
POP_2,27019,1,"<?xml version=""1.0""?>\n<Clock xmlns:dt=""urn:schemas-microsoft-com:datatypes""><Description dt:dt=""string"">E-Prime Primary Realtime Clock</Description><StartTime><Timestamp dt:dt=""int"">0</Timestamp><DateUtc dt:dt=""string"">2014-05-28T22:37:01Z</DateUtc></StartTime><FrequencyChanges><FrequencyChange><Frequency dt:dt=""r8"">2793040000</Frequency><Timestamp dt:dt=""r8"">42349751330497</Timestamp><Current dt:dt=""r8"">0</Current><DateUtc dt:dt=""string"">2014-05-28T22:37:01Z</DateUtc></FrequencyChange></FrequencyChanges></Clock>\n",60.03,1,1584101453,0,,-999999,1,27542,t,60344,87886,5/28/2014,15:37:01,,2,Session2,SessionsList,0,,-999999,5,729905,t,35199,765104,716329,2,1,2,4,,1230554,,,4,1,4,,,,Cued2,MiniBlocks1,,,,,6,1,r,-999999,3,1321109,r,690,1321799,White,Congruent,r,Green,0,,0,10,1317110,,0,0,,,,6,1,6,,,,,,,Pictures\green.bmp,3000,2000,Pictures\left.bmp,,,,,,,,,,,,,StimulusPr,Pictures\black.bmp,CuedStim2,Left
POP_2,27019,1,"<?xml version=""1.0""?>\n<Clock xmlns:dt=""urn:schemas-microsoft-com:datatypes""><Description dt:dt=""string"">E-Prime Primary Realtime Clock</Description><StartTime><Timestamp dt:dt=""int"">0</Timestamp><DateUtc dt:dt=""string"">2014-05-28T22:37:01Z</DateUtc></StartTime><FrequencyChanges><FrequencyChange><Frequency dt:dt=""r8"">2793040000</Frequency><Timestamp dt:dt=""r8"">42349751330497</Timestamp><Current dt:dt=""r8"">0</Current><DateUtc dt:dt=""string"">2014-05-28T22:37:01Z</DateUtc></FrequencyChange></FrequencyChanges></Clock>\n",60.03,1,1584101453,0,,-999999,1,27542,t,60344,87886,5/28/2014,15:37:01,,2,Session2,SessionsList,0,,-999999,5,729905,t,35199,765104,716329,2,1,2,4,,1230554,,,4,1,4,,,,Cued2,MiniBlocks1,,,,,7,1,b,-999999,12,1332119,b,730,1332849,White,Incongruent,b,Red,0,,0,14,1325123,,0,0,,,,7,1,7,,,,,,,Pictures\red.bmp,6000,4000,Pictures\left.bmp,,,,,,,,,,,,,StimulusPr,Pictures\black.bmp,CuedStim2,Left
POP_2,27019,1,"<?xml version=""1.0""?>\n<Clock xmlns:dt=""urn:schemas-microsoft-com:datatypes""><Description dt:dt=""string"">E-Prime Primary Realtime Clock</Description><StartTime><Timestamp dt:dt=""int"">0</Timestamp><DateUtc dt:dt=""string"">2014-05-28T22:37:01Z</DateUtc></StartTime><FrequencyChanges><FrequencyChange><Frequency dt:dt=""r8"">2793040000</Frequency><Timestamp dt:dt=""r8"">42349751330497</Timestamp><Current dt:dt=""r8"">0</Current><DateUtc dt:dt=""string"">2014-05-28T22:37:01Z</DateUtc></FrequencyChange></FrequencyChanges></Clock>\n",60.03,1,1584101453,0,,-999999,1,27542,t,60344,87886,5/28/2014,15:37:01,,2,Session2,SessionsList,0,,-999999,5,729905,t,35199,765104,716329,2,1,2,4,,1230554,,,4,1,4,,,,Cued2,MiniBlocks1,,,,,8,1,b,-999999,17,1343130,b,672,1343802,White,Congruent,b,Green,0,,0,9,1338116,,0,0,,,,8,1,8,,,,,,,Pictures\green.bmp,4000,4000,Pictures\black.bmp,,,,,,,,,,,,,StimulusPr,Pictures\right.bmp,CuedStim2,Right
POP_2,27019,1,"<?xml version=""1.0""?>\n<Clock xmlns:dt=""urn:schemas-microsoft-com:datatypes""><Description dt:dt=""string"">E-Prime Primary Realtime Clock</Description><StartTime><Timestamp dt:dt=""int"">0</Timestamp><DateUtc dt:dt=""string"">2014-05-28T22:37:01Z</DateUtc></StartTime><FrequencyChanges><FrequencyChange><Frequency dt:dt=""r8"">2793040000</Frequency><Timestamp dt:dt=""r8"">42349751330497</Timestamp><Current dt:dt=""r8"">0</Current><DateUtc dt:dt=""string"">2014-05-28T22:37:01Z</DateUtc></FrequencyChange></FrequencyChanges></Clock>\n",60.03,1,1584101453,0,,-999999,1,27542,t,60344,87886,5/28/2014,15:37:01,,2,Session2,SessionsList,0,,-999999,5,729905,t,35199,765104,716329,2,1,2,4,,1230554,,,4,1,4,,,,Cued2,MiniBlocks1,,,,,9,1,b,-999999,8,1359106,b,549,1359655,White,Incongruent,b,Red,0,,0,9,1349111,,0,0,,,,9,1,9,,,,,,,Pictures\red.bmp,9000,10000,Pictures\left.bmp,,,,,,,,,,,,,StimulusPr,Pictures\black.bmp,CuedStim2,Left
POP_2,27019,1,"<?xml version=""1.0""?>\n<Clock xmlns:dt=""urn:schemas-microsoft-com:datatypes""><Description dt:dt=""string"">E-Prime Primary Realtime Clock</Description><StartTime><Timestamp dt:dt=""int"">0</Timestamp><DateUtc dt:dt=""string"">2014-05-28T22:37:01Z</DateUtc></StartTime><FrequencyChanges><FrequencyChange><Frequency dt:dt=""r8"">2793040000</Frequency><Timestamp dt:dt=""r8"">42349751330497</Timestamp><Current dt:dt=""r8"">0</Current><DateUtc dt:dt=""string"">2014-05-28T22:37:01Z</DateUtc></FrequencyChange></FrequencyChanges></Clock>\n",60.03,1,1584101453,0,,-999999,1,27542,t,60344,87886,5/28/2014,15:37:01,,2,Session2,SessionsList,0,,-999999,5,729905,t,35199,765104,716329,2,1,2,4,,1230554,,,4,1,4,,,,Cued2,MiniBlocks1,,,,,10,1,r,-999999,14,1381128,r,603,1381731,White,Congruent,r,Green,0,,0,8,1371116,,0,0,,,,10,1,10,,,,,,,Pictures\green.bmp,9000,10000,Pictures\left.bmp,,,,,,,,,,,,,StimulusPr,Pictures\black.bmp,CuedStim2,Left
