ExperimentName,Subject,Session,Clock.Information,Display.RefreshRate,Group,RandomSeed,Session1Onset.ACC,Session1Onset.CRESP,Session1Onset.DurationError,Session1Onset.OnsetDelay,Session1Onset.OnsetTime,Session1Onset.RESP,Session1Onset.RT,Session1Onset.RTTime,SessionDate,SessionTime,SessionTimeUtc,Block,Procedure[Block],Running[Block],Session2Onset.ACC,Session2Onset.CRESP,Session2Onset.DurationError,Session2Onset.OnsetDelay,Session2Onset.OnsetTime,Session2Onset.RESP,Session2Onset.RT,Session2Onset.RTTime,SessionBreak.OnsetTime,SessionsList,SessionsList.Cycle,SessionsList.Sample,Trial,CuedPrompt1.OnsetTime,CuedPrompt2.OnsetTime,CuedPrompt3.OnsetTime,CuedPrompt4.OnsetTime,MiniBlocks1,MiniBlocks1.Cycle,MiniBlocks1.Sample,MiniBlocks2,MiniBlocks2.Cycle,MiniBlocks2.Sample,Procedure[Trial],Running[Trial],UncuedPrompt1.OnsetTime,UncuedPrompt2.OnsetTime,UncuedPrompt3.OnsetTime,UncuedPrompt4.OnsetTime,SubTrial,Arrow1.ACC,Arrow1.CRESP,Arrow1.DurationError,Arrow1.OnsetDelay,Arrow1.OnsetTime,Arrow1.RESP,Arrow1.RT,Arrow1.RTTime,ArrowColor,Congruence,CorrectResp,Cue,Cue.ACC,Cue.CRESP,Cue.DurationError,Cue.OnsetDelay,Cue.OnsetTime,Cue.RESP,Cue.RT,Cue.RTTime,CuedStim1,CuedStim1.Cycle,CuedStim1.Sample,CuedStim2,CuedStim2.Cycle,CuedStim2.Sample,CuedStim3,CuedStim3.Cycle,CuedStim3.Sample,CuedStim4,CuedStim4.Cycle,CuedStim4.Sample,CueImage,JitterCue,JitterTrial,LeftImage,NonCuedStim1,NonCuedStim1.Cycle,NonCuedStim1.Sample,NonCuedStim2,NonCuedStim2.Cycle,NonCuedStim2.Sample,NonCuedStim3,NonCuedStim3.Cycle,NonCuedStim3.Sample,NonCuedStim4,NonCuedStim4.Cycle,NonCuedStim4.Sample,Procedure[SubTrial],RightImage,Running[SubTrial],Stimulus
POP_2,27039,1,"<?xml version=""1.0""?>\n<Clock xmlns:dt=""urn:schemas-microsoft-com:datatypes""><Description dt:dt=""string"">E-Prime Primary Realtime Clock</Description><StartTime><Timestamp dt:dt=""int"">0</Timestamp><DateUtc dt:dt=""string"">2014-06-07T23:31:43Z</DateUtc></StartTime><FrequencyChanges><FrequencyChange><Frequency dt:dt=""r8"">2793040000</Frequency><Timestamp dt:dt=""r8"">1.06548007237086E+15</Timestamp><Current dt:dt=""r8"">0</Current><DateUtc dt:dt=""string"">2014-06-07T23:31:43Z</DateUtc></FrequencyChange></FrequencyChanges></Clock>\n",60.03,1,2047276437,0,,-999999,15,50960,t,42547,93507,6/7/2014,16:31:43,,1,Session1,SessionsList,,,,,,,,,,1,1,1,1,,,,,,,,1,1,1,NonCued3,MiniBlocks2,,,93522,,1,1,b,-999999,6,113512,b,518,114030,Green,Congruent,b,White,0,,0,11,103517,,0,0,,,,,,,,,,,,,Pictures\white.bmp,9000,10000,Pictures\black.bmp,,,,,,,1,1,1,,,,StimulusPr,Pictures\GreenRight.bmp,NonCuedStim3,Right
POP_2,27039,1,"<?xml version=""1.0""?>\n<Clock xmlns:dt=""urn:schemas-microsoft-com:datatypes""><Description dt:dt=""string"">E-Prime Primary Realtime Clock</Description><StartTime><Timestamp dt:dt=""int"">0</Timestamp><DateUtc dt:dt=""string"">2014-06-07T23:31:43Z</DateUtc></StartTime><FrequencyChanges><FrequencyChange><Frequency dt:dt=""r8"">2793040000</Frequency><Timestamp dt:dt=""r8"">1.06548007237086E+15</Timestamp><Current dt:dt=""r8"">0</Current><DateUtc dt:dt=""string"">2014-06-07T23:31:43Z</DateUtc></FrequencyChange></FrequencyChanges></Clock>\n",60.03,1,2047276437,0,,-999999,15,50960,t,42547,93507,6/7/2014,16:31:43,,1,Session1,SessionsList,,,,,,,,,,1,1,1,1,,,,,,,,1,1,1,NonCued3,MiniBlocks2,,,93522,,2,1,r,-999999,12,135518,r,479,135997,Red,Incongruent,r,White,0,,0,17,125523,,0,0,,,,,,,,,,,,,Pictures\white.bmp,9000,10000,Pictures\black.bmp,,,,,,,2,1,2,,,,StimulusPr,Pictures\RedRight.bmp,NonCuedStim3,Right
POP_2,27039,1,"<?xml version=""1.0""?>\n<Clock xmlns:dt=""urn:schemas-microsoft-com:datatypes""><Description dt:dt=""string"">E-Prime Primary Realtime Clock</Description><StartTime><Timestamp dt:dt=""int"">0</Timestamp><DateUtc dt:dt=""string"">2014-06-07T23:31:43Z</DateUtc></StartTime><FrequencyChanges><FrequencyChange><Frequency dt:dt=""r8"">2793040000</Frequency><Timestamp dt:dt=""r8"">1.06548007237086E+15</Timestamp><Current dt:dt=""r8"">0</Current><DateUtc dt:dt=""string"">2014-06-07T23:31:43Z</DateUtc></FrequencyChange></FrequencyChanges></Clock>\n",60.03,1,2047276437,0,,-999999,15,50960,t,42547,93507,6/7/2014,16:31:43,,1,Session1,SessionsList,,,,,,,,,,1,1,1,1,,,,,,,,1,1,1,NonCued3,MiniBlocks2,,,93522,,3,1,r,-999999,3,152509,r,553,153062,Green,Congruent,r,White,0,,0,6,147512,,0,0,,,,,,,,,,,,,Pictures\white.bmp,4000,4000,Pictures\GreenLeft.bmp,,,,,,,3,1,3,,,,StimulusPr,Pictures\black.bmp,NonCuedStim3,Left
POP_2,27039,1,"<?xml version=""1.0""?>\n<Clock xmlns:dt=""urn:schemas-microsoft-com:datatypes""><Description dt:dt=""string"">E-Prime Primary Realtime Clock</Description><StartTime><Timestamp dt:dt=""int"">0</Timestamp><DateUtc dt:dt=""string"">2014-06-07T23:31:43Z</DateUtc></StartTime><FrequencyChanges><FrequencyChange><Frequency dt:dt=""r8"">2793040000</Frequency><Timestamp dt:dt=""r8"">1.06548007237086E+15</Timestamp><Current dt:dt=""r8"">0</Current><DateUtc dt:dt=""string"">2014-06-07T23:31:43Z</DateUtc></FrequencyChange></FrequencyChanges></Clock>\n",60.03,1,2047276437,0,,-999999,15,50960,t,42547,93507,6/7/2014,16:31:43,,1,Session1,SessionsList,,,,,,,,,,1,1,1,1,,,,,,,,1,1,1,NonCued3,MiniBlocks2,,,93522,,4,1,b,-999999,13,165519,b,546,166065,Red,Incongruent,b,White,0,,0,17,158523,,0,0,,,,,,,,,,,,,Pictures\white.bmp,6000,4000,Pictures\RedLeft.bmp,,,,,,,4,1,4,,,,StimulusPr,Pictures\black.bmp,NonCuedStim3,Left
POP_2,27039,1,"<?xml version=""1.0""?>\n<Clock xmlns:dt=""urn:schemas-microsoft-com:datatypes""><Description dt:dt=""string"">E-Prime Primary Realtime Clock</Description><StartTime><Timestamp dt:dt=""int"">0</Timestamp><DateUtc dt:dt=""string"">2014-06-07T23:31:43Z</DateUtc></StartTime><FrequencyChanges><FrequencyChange><Frequency dt:dt=""r8"">2793040000</Frequency><Timestamp dt:dt=""r8"">1.06548007237086E+15</Timestamp><Current dt:dt=""r8"">0</Current><DateUtc dt:dt=""string"">2014-06-07T23:31:43Z</DateUtc></FrequencyChange></FrequencyChanges></Clock>\n",60.03,1,2047276437,0,,-999999,15,50960,t,42547,93507,6/7/2014,16:31:43,,1,Session1,SessionsList,,,,,,,,,,1,1,1,1,,,,,,,,1,1,1,NonCued3,MiniBlocks2,,,93522,,5,1,b,-999999,8,175514,b,457,175971,Green,Congruent,b,White,0,,0,10,171516,,0,0,,,,,,,,,,,,,Pictures\white.bmp,3000,2000,Pictures\black.bmp,,,,,,,5,1,5,,,,StimulusPr,Pictures\GreenRight.bmp,NonCuedStim3,Right
POP_2,27039,1,"<?xml version=""1.0""?>\n<Clock xmlns:dt=""urn:schemas-microsoft-com:datatypes""><Description dt:dt=""string"">E-Prime Primary Realtime Clock</Description><StartTime><Timestamp dt:dt=""int"">0</Timestamp><DateUtc dt:dt=""string"">2014-06-07T23:31:43Z</DateUtc></StartTime><FrequencyChanges><FrequencyChange><Frequency dt:dt=""r8"">2793040000</Frequency><Timestamp dt:dt=""r8"">1.06548007237086E+15</Timestamp><Current dt:dt=""r8"">0</Current><DateUtc dt:dt=""string"">2014-06-07T23:31:43Z</DateUtc></FrequencyChange></FrequencyChanges></Clock>\n",60.03,1,2047276437,0,,-999999,15,50960,t,42547,93507,6/7/2014,16:31:43,,1,Session1,SessionsList,,,,,,,,,,1,1,1,1,,,,,,,,1,1,1,NonCued3,MiniBlocks2,,,93522,,6,1,r,-999999,4,183510,r,326,183836,Green,Congruent,r,White,0,,0,6,179512,,0,0,,,,,,,,,,,,,Pictures\white.bmp,3000,2000,Pictures\GreenLeft.bmp,,,,,,,6,1,6,,,,StimulusPr,Pictures\black.bmp,NonCuedStim3,Left
POP_2,27039,1,"<?xml version=""1.0""?>\n<Clock xmlns:dt=""urn:schemas-microsoft-com:datatypes""><Description dt:dt=""string"">E-Prime Primary Realtime Clock</Description><StartTime><Timestamp dt:dt=""int"">0</Timestamp><DateUtc dt:dt=""string"">2014-06-07T23:31:43Z</DateUtc></StartTime><FrequencyChanges><FrequencyChange><Frequency dt:dt=""r8"">2793040000</Frequency><Timestamp dt:dt=""r8"">1.06548007237086E+15</Timestamp><Current dt:dt=""r8"">0</Current><DateUtc dt:dt=""string"">2014-06-07T23:31:43Z</DateUtc></FrequencyChange></FrequencyChanges></Clock>\n",60.03,1,2047276437,0,,-999999,15,50960,t,42547,93507,6/7/2014,16:31:43,,1,Session1,SessionsList,,,,,,,,,,1,1,1,1,,,,,,,,1,1,1,NonCued3,MiniBlocks2,,,93522,,7,1,b,-999999,15,194521,b,287,194808,Green,Congruent,b,White,0,,0,2,187508,,0,0,,,,,,,,,,,,,Pictures\white.bmp,6000,16000,Pictures\black.bmp,,,,,,,7,1,7,,,,StimulusPr,Pictures\GreenRight.bmp,NonCuedStim3,Right
POP_2,27039,1,"<?xml version=""1.0""?>\n<Clock xmlns:dt=""urn:schemas-microsoft-com:datatypes""><Description dt:dt=""string"">E-Prime Primary Realtime Clock</Description><StartTime><Timestamp dt:dt=""int"">0</Timestamp><DateUtc dt:dt=""string"">2014-06-07T23:31:43Z</DateUtc></StartTime><FrequencyChanges><FrequencyChange><Frequency dt:dt=""r8"">2793040000</Frequency><Timestamp dt:dt=""r8"">1.06548007237086E+15</Timestamp><Current dt:dt=""r8"">0</Current><DateUtc dt:dt=""string"">2014-06-07T23:31:43Z</DateUtc></FrequencyChange></FrequencyChanges></Clock>\n",60.03,1,2047276437,0,,-999999,15,50960,t,42547,93507,6/7/2014,16:31:43,,1,Session1,SessionsList,,,,,,,,,,1,1,1,1,,,,,,,,1,1,1,NonCued3,MiniBlocks2,,,93522,,8,1,r,-999999,4,216510,r,470,216980,Red,Incongruent,r,White,0,,0,6,212512,,0,0,,,,,,,,,,,,,Pictures\white.bmp,3000,2000,Pictures\black.bmp,,,,,,,8,1,8,,,,StimulusPr,Pictures\RedRight.bmp,NonCuedStim3,Right
POP_2,27039,1,"<?xml version=""1.0""?>\n<Clock xmlns:dt=""urn:schemas-microsoft-com:datatypes""><Description dt:dt=""string"">E-Prime Primary Realtime Clock</Description><StartTime><Timestamp dt:dt=""int"">0</Timestamp><DateUtc dt:dt=""string"">2014-06-07T23:31:43Z</DateUtc></StartTime><FrequencyChanges><FrequencyChange><Frequency dt:dt=""r8"">2793040000</Frequency><Timestamp dt:dt=""r8"">1.06548007237086E+15</Timestamp><Current dt:dt=""r8"">0</Current><DateUtc dt:dt=""string"">2014-06-07T23:31:43Z</DateUtc></FrequencyChange></FrequencyChanges></Clock>\n",60.03,1,2047276437,0,,-999999,15,50960,t,42547,93507,6/7/2014,16:31:43,,1,Session1,SessionsList,,,,,,,,,,1,1,1,1,,,,,,,,1,1,1,NonCued3,MiniBlocks2,,,93522,,9,1,r,-999999,14,230520,r,389,230909,Green,Congruent,r,White,0,,0,2,220508,,0,0,,,,,,,,,,,,,Pictures\white.bmp,9000,10000,Pictures\GreenLeft.bmp,,,,,,,9,1,9,,,,StimulusPr,Pictures\black.bmp,NonCuedStim3,Left
POP_2,27039,1,"<?xml version=""1.0""?>\n<Clock xmlns:dt=""urn:schemas-microsoft-com:datatypes""><Description dt:dt=""string"">E-Prime Primary Realtime Clock</Description><StartTime><Timestamp dt:dt=""int"">0</Timestamp><DateUtc dt:dt=""string"">2014-06-07T23:31:43Z</DateUtc></StartTime><FrequencyChanges><FrequencyChange><Frequency dt:dt=""r8"">2793040000</Frequency><Timestamp dt:dt=""r8"">1.06548007237086E+15</Timestamp><Current dt:dt=""r8"">0</Current><DateUtc dt:dt=""string"">2014-06-07T23:31:43Z</DateUtc></FrequencyChange></FrequencyChanges></Clock>\n",60.03,1,2047276437,0,,-999999,15,50960,t,42547,93507,6/7/2014,16:31:43,,1,Session1,SessionsList,,,,,,,,,,1,1,1,1,,,,,,,,1,1,1,NonCued3,MiniBlocks2,,,93522,,10,1,r,-999999,4,249510,r,423,249933,Green,Congruent,r,White,0,,0,8,242514,,0,0,,,,,,,,,,,,,Pictures\white.bmp,6000,4000,Pictures\GreenLeft.bmp,,,,,,,10,1,10,,,,StimulusPr,Pictures\black.bmp,NonCuedStim3,Left
POP_2,27039,1,"<?xml version=""1.0""?>\n<Clock xmlns:dt=""urn:schemas-microsoft-com:datatypes""><Description dt:dt=""string"">E-Prime Primary Realtime Clock</Description><StartTime><Timestamp dt:dt=""int"">0</Timestamp><DateUtc dt:dt=""string"">2014-06-07T23:31:43Z</DateUtc></StartTime><FrequencyChanges><FrequencyChange><Frequency dt:dt=""r8"">2793040000</Frequency><Timestamp dt:dt=""r8"">1.06548007237086E+15</Timestamp><Current dt:dt=""r8"">0</Current><DateUtc dt:dt=""string"">2014-06-07T23:31:43Z</DateUtc></FrequencyChange></FrequencyChanges></Clock>\n",60.03,1,2047276437,0,,-999999,15,50960,t,42547,93507,6/7/2014,16:31:43,,1,Session1,SessionsList,,,,,,,,,,1,1,1,2,,,253958,,,,,2,1,2,Cued3,MiniBlocks2,,,,,1,1,b,-999999,12,267518,b,293,267811,White,Congruent,b,Green,0,,0,14,263520,,0,0,,,,,,,1,1,1,,,,Pictures\green.bmp,3000,2000,Pictures\black.bmp,,,,,,,,,,,,,StimulusPr,Pictures\right.bmp,CuedStim3,Right
POP_2,27039,1,"<?xml version=""1.0""?>\n<Clock xmlns:dt=""urn:schemas-microsoft-com:datatypes""><Description dt:dt=""string"">E-Prime Primary Realtime Clock</Description><StartTime><Timestamp dt:dt=""int"">0</Timestamp><DateUtc dt:dt=""string"">2014-06-07T23:31:43Z</DateUtc></StartTime><FrequencyChanges><FrequencyChange><Frequency dt:dt=""r8"">2793040000</Frequency><Timestamp dt:dt=""r8"">1.06548007237086E+15</Timestamp><Current dt:dt=""r8"">0</Current><DateUtc dt:dt=""string"">2014-06-07T23:31:43Z</DateUtc></FrequencyChange></FrequencyChanges></Clock>\n",60.03,1,2047276437,0,,-999999,15,50960,t,42547,93507,6/7/2014,16:31:43,,1,Session1,SessionsList,,,,,,,,,,1,1,1,2,,,253958,,,,,2,1,2,Cued3,MiniBlocks2,,,,,2,1,b,-999999,8,275514,b,298,275812,White,Congruent,b,Green,0,,0,10,271516,,0,0,,,,,,,2,1,2,,,,Pictures\green.bmp,3000,10000,Pictures\black.bmp,,,,,,,,,,,,,StimulusPr,Pictures\right.bmp,CuedStim3,Right
POP_2,27039,1,"<?xml version=""1.0""?>\n<Clock xmlns:dt=""urn:schemas-microsoft-com:datatypes""><Description dt:dt=""string"">E-Prime Primary Realtime Clock</Description><StartTime><Timestamp dt:dt=""int"">0</Timestamp><DateUtc dt:dt=""string"">2014-06-07T23:31:43Z</DateUtc></StartTime><FrequencyChanges><FrequencyChange><Frequency dt:dt=""r8"">2793040000</Frequency><Timestamp dt:dt=""r8"">1.06548007237086E+15</Timestamp><Current dt:dt=""r8"">0</Current><DateUtc dt:dt=""string"">2014-06-07T23:31:43Z</DateUtc></FrequencyChange></FrequencyChanges></Clock>\n",60.03,1,2047276437,0,,-999999,15,50960,t,42547,93507,6/7/2014,16:31:43,,1,Session1,SessionsList,,,,,,,,,,1,1,1,2,,,253958,,,,,2,1,2,Cued3,MiniBlocks2,,,,,3,1,r,-999999,14,297519,r,306,297825,White,Congruent,r,Green,0,,0,3,287508,,0,0,,,,,,,3,1,3,,,,Pictures\green.bmp,9000,2000,Pictures\left.bmp,,,,,,,,,,,,,StimulusPr,Pictures\black.bmp,CuedStim3,Left
POP_2,27039,1,"<?xml version=""1.0""?>\n<Clock xmlns:dt=""urn:schemas-microsoft-com:datatypes""><Description dt:dt=""string"">E-Prime Primary Realtime Clock</Description><StartTime><Timestamp dt:dt=""int"">0</Timestamp><DateUtc dt:dt=""string"">2014-06-07T23:31:43Z</DateUtc></StartTime><FrequencyChanges><FrequencyChange><Frequency dt:dt=""r8"">2793040000</Frequency><Timestamp dt:dt=""r8"">1.06548007237086E+15</Timestamp><Current dt:dt=""r8"">0</Current><DateUtc dt:dt=""string"">2014-06-07T23:31:43Z</DateUtc></FrequencyChange></FrequencyChanges></Clock>\n",60.03,1,2047276437,0,,-999999,15,50960,t,42547,93507,6/7/2014,16:31:43,,1,Session1,SessionsList,,,,,,,,,,1,1,1,2,,,253958,,,,,2,1,2,Cued3,MiniBlocks2,,,,,4,1,r,-999999,10,306515,r,379,306894,White,Congruent,r,Green,0,,0,13,301518,,0,0,,,,,,,4,1,4,,,,Pictures\green.bmp,4000,16000,Pictures\left.bmp,,,,,,,,,,,,,StimulusPr,Pictures\black.bmp,CuedStim3,Left
POP_2,27039,1,"<?xml version=""1.0""?>\n<Clock xmlns:dt=""urn:schemas-microsoft-com:datatypes""><Description dt:dt=""string"">E-Prime Primary Realtime Clock</Description><StartTime><Timestamp dt:dt=""int"">0</Timestamp><DateUtc dt:dt=""string"">2014-06-07T23:31:43Z</DateUtc></StartTime><FrequencyChanges><FrequencyChange><Frequency dt:dt=""r8"">2793040000</Frequency><Timestamp dt:dt=""r8"">1.06548007237086E+15</Timestamp><Current dt:dt=""r8"">0</Current><DateUtc dt:dt=""string"">2014-06-07T23:31:43Z</DateUtc></FrequencyChange></FrequencyChanges></Clock>\n",60.03,1,2047276437,0,,-999999,15,50960,t,42547,93507,6/7/2014,16:31:43,,1,Session1,SessionsList,,,,,,,,,,1,1,1,2,,,253958,,,,,2,1,2,Cued3,MiniBlocks2,,,,,5,1,r,-999999,16,328521,r,331,328852,White,Incongruent,r,Red,0,,0,18,324523,,0,0,,,,,,,5,1,5,,,,Pictures\red.bmp,3000,4000,Pictures\black.bmp,,,,,,,,,,,,,StimulusPr,Pictures\right.bmp,CuedStim3,Right
POP_2,27039,1,"<?xml version=""1.0""?>\n<Clock xmlns:dt=""urn:schemas-microsoft-com:datatypes""><Description dt:dt=""string"">E-Prime Primary Realtime Clock</Description><StartTime><Timestamp dt:dt=""int"">0</Timestamp><DateUtc dt:dt=""string"">2014-06-07T23:31:43Z</DateUtc></StartTime><FrequencyChanges><FrequencyChange><Frequency dt:dt=""r8"">2793040000</Frequency><Timestamp dt:dt=""r8"">1.06548007237086E+15</Timestamp><Current dt:dt=""r8"">0</Current><DateUtc dt:dt=""string"">2014-06-07T23:31:43Z</DateUtc></FrequencyChange></FrequencyChanges></Clock>\n",60.03,1,2047276437,0,,-999999,15,50960,t,42547,93507,6/7/2014,16:31:43,,1,Session1,SessionsList,,,,,,,,,,1,1,1,2,,,253958,,,,,2,1,2,Cued3,MiniBlocks2,,,,,6,1,b,-999999,9,341514,b,286,341800,White,Congruent,b,Green,0,,0,13,334518,,0,0,,,,,,,6,1,6,,,,Pictures\green.bmp,6000,4000,Pictures\black.bmp,,,,,,,,,,,,,StimulusPr,Pictures\right.bmp,CuedStim3,Right
POP_2,27039,1,"<?xml version=""1.0""?>\n<Clock xmlns:dt=""urn:schemas-microsoft-com:datatypes""><Description dt:dt=""string"">E-Prime Primary Realtime Clock</Description><StartTime><Timestamp dt:dt=""int"">0</Timestamp><DateUtc dt:dt=""string"">2014-06-07T23:31:43Z</DateUtc></StartTime><FrequencyChanges><FrequencyChange><Frequency dt:dt=""r8"">2793040000</Frequency><Timestamp dt:dt=""r8"">1.06548007237086E+15</Timestamp><Current dt:dt=""r8"">0</Current><DateUtc dt:dt=""string"">2014-06-07T23:31:43Z</DateUtc></FrequencyChange></FrequencyChanges></Clock>\n",60.03,1,2047276437,0,,-999999,15,50960,t,42547,93507,6/7/2014,16:31:43,,1,Session1,SessionsList,,,,,,,,,,1,1,1,2,,,253958,,,,,2,1,2,Cued3,MiniBlocks2,,,,,7,1,r,-999999,4,352509,r,289,352798,White,Congruent,r,Green,0,,0,6,347511,,0,0,,,,,,,7,1,7,,,,Pictures\green.bmp,4000,16000,Pictures\left.bmp,,,,,,,,,,,,,StimulusPr,Pictures\black.bmp,CuedStim3,Left
POP_2,27039,1,"<?xml version=""1.0""?>\n<Clock xmlns:dt=""urn:schemas-microsoft-com:datatypes""><Description dt:dt=""string"">E-Prime Primary Realtime Clock</Description><StartTime><Timestamp dt:dt=""int"">0</Timestamp><DateUtc dt:dt=""string"">2014-06-07T23:31:43Z</DateUtc></StartTime><FrequencyChanges><FrequencyChange><Frequency dt:dt=""r8"">2793040000</Frequency><Timestamp dt:dt=""r8"">1.06548007237086E+15</Timestamp><Current dt:dt=""r8"">0</Current><DateUtc dt:dt=""string"">2014-06-07T23:31:43Z</DateUtc></FrequencyChange></FrequencyChanges></Clock>\n",60.03,1,2047276437,0,,-999999,15,50960,t,42547,93507,6/7/2014,16:31:43,,1,Session1,SessionsList,,,,,,,,,,1,1,1,2,,,253958,,,,,2,1,2,Cued3,MiniBlocks2,,,,,8,1,b,-999999,9,374514,b,370,374884,White,Incongruent,b,Red,0,,0,11,370516,,0,0,,,,,,,8,1,8,,,,Pictures\red.bmp,3000,2000,Pictures\left.bmp,,,,,,,,,,,,,StimulusPr,Pictures\black.bmp,CuedStim3,Left
POP_2,27039,1,"<?xml version=""1.0""?>\n<Clock xmlns:dt=""urn:schemas-microsoft-com:datatypes""><Description dt:dt=""string"">E-Prime Primary Realtime Clock</Description><StartTime><Timestamp dt:dt=""int"">0</Timestamp><DateUtc dt:dt=""string"">2014-06-07T23:31:43Z</DateUtc></StartTime><FrequencyChanges><FrequencyChange><Frequency dt:dt=""r8"">2793040000</Frequency><Timestamp dt:dt=""r8"">1.06548007237086E+15</Timestamp><Current dt:dt=""r8"">0</Current><DateUtc dt:dt=""string"">2014-06-07T23:31:43Z</DateUtc></FrequencyChange></FrequencyChanges></Clock>\n",60.03,1,2047276437,0,,-999999,15,50960,t,42547,93507,6/7/2014,16:31:43,,1,Session1,SessionsList,,,,,,,,,,1,1,1,2,,,253958,,,,,2,1,2,Cued3,MiniBlocks2,,,,,9,1,r,-999999,5,382510,r,290,382800,White,Congruent,r,Green,0,,0,7,378512,,0,0,,,,,,,9,1,9,,,,Pictures\green.bmp,3000,2000,Pictures\left.bmp,,,,,,,,,,,,,StimulusPr,Pictures\black.bmp,CuedStim3,Left
POP_2,27039,1,"<?xml version=""1.0""?>\n<Clock xmlns:dt=""urn:schemas-microsoft-com:datatypes""><Description dt:dt=""string"">E-Prime Primary Realtime Clock</Description><StartTime><Timestamp dt:dt=""int"">0</Timestamp><DateUtc dt:dt=""string"">2014-06-07T23:31:43Z</DateUtc></StartTime><FrequencyChanges><FrequencyChange><Frequency dt:dt=""r8"">2793040000</Frequency><Timestamp dt:dt=""r8"">1.06548007237086E+15</Timestamp><Current dt:dt=""r8"">0</Current><DateUtc dt:dt=""string"">2014-06-07T23:31:43Z</DateUtc></FrequencyChange></FrequencyChanges></Clock>\n",60.03,1,2047276437,0,,-999999,15,50960,t,42547,93507,6/7/2014,16:31:43,,1,Session1,SessionsList,,,,,,,,,,1,1,1,2,,,253958,,,,,2,1,2,Cued3,MiniBlocks2,,,,,10,1,b,-999999,15,396520,b,389,396909,White,Congruent,b,Green,0,,0,3,386508,,0,0,,,,,,,10,1,10,,,,Pictures\green.bmp,9000,10000,Pictures\black.bmp,,,,,,,,,,,,,StimulusPr,Pictures\right.bmp,CuedStim3,Right
POP_2,27039,1,"<?xml version=""1.0""?>\n<Clock xmlns:dt=""urn:schemas-microsoft-com:datatypes""><Description dt:dt=""string"">E-Prime Primary Realtime Clock</Description><StartTime><Timestamp dt:dt=""int"">0</Timestamp><DateUtc dt:dt=""string"">2014-06-07T23:31:43Z</DateUtc></StartTime><FrequencyChanges><FrequencyChange><Frequency dt:dt=""r8"">2793040000</Frequency><Timestamp dt:dt=""r8"">1.06548007237086E+15</Timestamp><Current dt:dt=""r8"">0</Current><DateUtc dt:dt=""string"">2014-06-07T23:31:43Z</DateUtc></FrequencyChange></FrequencyChanges></Clock>\n",60.03,1,2047276437,0,,-999999,15,50960,t,42547,93507,6/7/2014,16:31:43,,1,Session1,SessionsList,,,,,,,,,,1,1,1,3,,,,406931,,,,3,1,3,Cued4,MiniBlocks2,,,,,1,1,b,-999999,18,423523,b,340,423863,White,Congruent,b,Green,0,,0,5,416510,,0,0,,,,,,,,,,1,1,1,Pictures\green.bmp,6000,2000,Pictures\black.bmp,,,,,,,,,,,,,StimulusPr,Pictures\right.bmp,CuedStim4,Right
POP_2,27039,1,"<?xml version=""1.0""?>\n<Clock xmlns:dt=""urn:schemas-microsoft-com:datatypes""><Description dt:dt=""string"">E-Prime Primary Realtime Clock</Description><StartTime><Timestamp dt:dt=""int"">0</Timestamp><DateUtc dt:dt=""string"">2014-06-07T23:31:43Z</DateUtc></StartTime><FrequencyChanges><FrequencyChange><Frequency dt:dt=""r8"">2793040000</Frequency><Timestamp dt:dt=""r8"">1.06548007237086E+15</Timestamp><Current dt:dt=""r8"">0</Current><DateUtc dt:dt=""string"">2014-06-07T23:31:43Z</DateUtc></FrequencyChange></FrequencyChanges></Clock>\n",60.03,1,2047276437,0,,-999999,15,50960,t,42547,93507,6/7/2014,16:31:43,,1,Session1,SessionsList,,,,,,,,,,1,1,1,3,,,,406931,,,,3,1,3,Cued4,MiniBlocks2,,,,,2,1,r,-999999,11,437516,r,482,437998,White,Incongruent,r,Red,0,,0,16,427521,,0,0,,,,,,,,,,2,1,2,Pictures\red.bmp,9000,2000,Pictures\black.bmp,,,,,,,,,,,,,StimulusPr,Pictures\right.bmp,CuedStim4,Right
POP_2,27039,1,"<?xml version=""1.0""?>\n<Clock xmlns:dt=""urn:schemas-microsoft-com:datatypes""><Description dt:dt=""string"">E-Prime Primary Realtime Clock</Description><StartTime><Timestamp dt:dt=""int"">0</Timestamp><DateUtc dt:dt=""string"">2014-06-07T23:31:43Z</DateUtc></StartTime><FrequencyChanges><FrequencyChange><Frequency dt:dt=""r8"">2793040000</Frequency><Timestamp dt:dt=""r8"">1.06548007237086E+15</Timestamp><Current dt:dt=""r8"">0</Current><DateUtc dt:dt=""string"">2014-06-07T23:31:43Z</DateUtc></FrequencyChange></FrequencyChanges></Clock>\n",60.03,1,2047276437,0,,-999999,15,50960,t,42547,93507,6/7/2014,16:31:43,,1,Session1,SessionsList,,,,,,,,,,1,1,1,3,,,,406931,,,,3,1,3,Cued4,MiniBlocks2,,,,,3,1,b,-999999,7,445512,b,462,445974,White,Congruent,b,Green,0,,0,9,441514,,0,0,,,,,,,,,,3,1,3,Pictures\green.bmp,3000,4000,Pictures\black.bmp,,,,,,,,,,,,,StimulusPr,Pictures\right.bmp,CuedStim4,Right
POP_2,27039,1,"<?xml version=""1.0""?>\n<Clock xmlns:dt=""urn:schemas-microsoft-com:datatypes""><Description dt:dt=""string"">E-Prime Primary Realtime Clock</Description><StartTime><Timestamp dt:dt=""int"">0</Timestamp><DateUtc dt:dt=""string"">2014-06-07T23:31:43Z</DateUtc></StartTime><FrequencyChanges><FrequencyChange><Frequency dt:dt=""r8"">2793040000</Frequency><Timestamp dt:dt=""r8"">1.06548007237086E+15</Timestamp><Current dt:dt=""r8"">0</Current><DateUtc dt:dt=""string"">2014-06-07T23:31:43Z</DateUtc></FrequencyChange></FrequencyChanges></Clock>\n",60.03,1,2047276437,0,,-999999,15,50960,t,42547,93507,6/7/2014,16:31:43,,1,Session1,SessionsList,,,,,,,,,,1,1,1,3,,,,406931,,,,3,1,3,Cued4,MiniBlocks2,,,,,4,1,r,-999999,18,455523,r,345,455868,White,Congruent,r,Green,0,,0,4,451509,,0,0,,,,,,,,,,4,1,4,Pictures\green.bmp,3000,4000,Pictures\left.bmp,,,,,,,,,,,,,StimulusPr,Pictures\black.bmp,CuedStim4,Left
POP_2,27039,1,"<?xml version=""1.0""?>\n<Clock xmlns:dt=""urn:schemas-microsoft-com:datatypes""><Description dt:dt=""string"">E-Prime Primary Realtime Clock</Description><StartTime><Timestamp dt:dt=""int"">0</Timestamp><DateUtc dt:dt=""string"">2014-06-07T23:31:43Z</DateUtc></StartTime><FrequencyChanges><FrequencyChange><Frequency dt:dt=""r8"">2793040000</Frequency><Timestamp dt:dt=""r8"">1.06548007237086E+15</Timestamp><Current dt:dt=""r8"">0</Current><DateUtc dt:dt=""string"">2014-06-07T23:31:43Z</DateUtc></FrequencyChange></FrequencyChanges></Clock>\n",60.03,1,2047276437,0,,-999999,15,50960,t,42547,93507,6/7/2014,16:31:43,,1,Session1,SessionsList,,,,,,,,,,1,1,1,3,,,,406931,,,,3,1,3,Cued4,MiniBlocks2,,,,,5,1,b,-999999,13,466518,b,491,467009,White,Incongruent,b,Red,0,,0,15,461520,,0,0,,,,,,,,,,5,1,5,Pictures\red.bmp,4000,16000,Pictures\left.bmp,,,,,,,,,,,,,StimulusPr,Pictures\black.bmp,CuedStim4,Left
POP_2,27039,1,"<?xml version=""1.0""?>\n<Clock xmlns:dt=""urn:schemas-microsoft-com:datatypes""><Description dt:dt=""string"">E-Prime Primary Realtime Clock</Description><StartTime><Timestamp dt:dt=""int"">0</Timestamp><DateUtc dt:dt=""string"">2014-06-07T23:31:43Z</DateUtc></StartTime><FrequencyChanges><FrequencyChange><Frequency dt:dt=""r8"">2793040000</Frequency><Timestamp dt:dt=""r8"">1.06548007237086E+15</Timestamp><Current dt:dt=""r8"">0</Current><DateUtc dt:dt=""string"">2014-06-07T23:31:43Z</DateUtc></FrequencyChange></FrequencyChanges></Clock>\n",60.03,1,2047276437,0,,-999999,15,50960,t,42547,93507,6/7/2014,16:31:43,,1,Session1,SessionsList,,,,,,,,,,1,1,1,3,,,,406931,,,,3,1,3,Cued4,MiniBlocks2,,,,,6,1,b,-999999,18,488523,b,544,489067,White,Congruent,b,Green,0,,0,5,484509,,0,0,,,,,,,,,,6,1,6,Pictures\green.bmp,3000,2000,Pictures\black.bmp,,,,,,,,,,,,,StimulusPr,Pictures\right.bmp,CuedStim4,Right
POP_2,27039,1,"<?xml version=""1.0""?>\n<Clock xmlns:dt=""urn:schemas-microsoft-com:datatypes""><Description dt:dt=""string"">E-Prime Primary Realtime Clock</Description><StartTime><Timestamp dt:dt=""int"">0</Timestamp><DateUtc dt:dt=""string"">2014-06-07T23:31:43Z</DateUtc></StartTime><FrequencyChanges><FrequencyChange><Frequency dt:dt=""r8"">2793040000</Frequency><Timestamp dt:dt=""r8"">1.06548007237086E+15</Timestamp><Current dt:dt=""r8"">0</Current><DateUtc dt:dt=""string"">2014-06-07T23:31:43Z</DateUtc></FrequencyChange></FrequencyChanges></Clock>\n",60.03,1,2047276437,0,,-999999,15,50960,t,42547,93507,6/7/2014,16:31:43,,1,Session1,SessionsList,,,,,,,,,,1,1,1,3,,,,406931,,,,3,1,3,Cued4,MiniBlocks2,,,,,7,1,b,-999999,11,502516,b,362,502878,White,Congruent,b,Green,0,,0,16,492521,,0,0,,,,,,,,,,7,1,7,Pictures\green.bmp,9000,10000,Pictures\black.bmp,,,,,,,,,,,,,StimulusPr,Pictures\right.bmp,CuedStim4,Right
POP_2,27039,1,"<?xml version=""1.0""?>\n<Clock xmlns:dt=""urn:schemas-microsoft-com:datatypes""><Description dt:dt=""string"">E-Prime Primary Realtime Clock</Description><StartTime><Timestamp dt:dt=""int"">0</Timestamp><DateUtc dt:dt=""string"">2014-06-07T23:31:43Z</DateUtc></StartTime><FrequencyChanges><FrequencyChange><Frequency dt:dt=""r8"">2793040000</Frequency><Timestamp dt:dt=""r8"">1.06548007237086E+15</Timestamp><Current dt:dt=""r8"">0</Current><DateUtc dt:dt=""string"">2014-06-07T23:31:43Z</DateUtc></FrequencyChange></FrequencyChanges></Clock>\n",60.03,1,2047276437,0,,-999999,15,50960,t,42547,93507,6/7/2014,16:31:43,,1,Session1,SessionsList,,,,,,,,,,1,1,1,3,,,,406931,,,,3,1,3,Cued4,MiniBlocks2,,,,,8,1,b,-999999,3,521507,b,448,521955,White,Incongruent,b,Red,0,,0,6,514510,,0,0,,,,,,,,,,8,1,8,Pictures\red.bmp,6000,10000,Pictures\left.bmp,,,,,,,,,,,,,StimulusPr,Pictures\black.bmp,CuedStim4,Left
POP_2,27039,1,"<?xml version=""1.0""?>\n<Clock xmlns:dt=""urn:schemas-microsoft-com:datatypes""><Description dt:dt=""string"">E-Prime Primary Realtime Clock</Description><StartTime><Timestamp dt:dt=""int"">0</Timestamp><DateUtc dt:dt=""string"">2014-06-07T23:31:43Z</DateUtc></StartTime><FrequencyChanges><FrequencyChange><Frequency dt:dt=""r8"">2793040000</Frequency><Timestamp dt:dt=""r8"">1.06548007237086E+15</Timestamp><Current dt:dt=""r8"">0</Current><DateUtc dt:dt=""string"">2014-06-07T23:31:43Z</DateUtc></FrequencyChange></FrequencyChanges></Clock>\n",60.03,1,2047276437,0,,-999999,15,50960,t,42547,93507,6/7/2014,16:31:43,,1,Session1,SessionsList,,,,,,,,,,1,1,1,3,,,,406931,,,,3,1,3,Cued4,MiniBlocks2,,,,,9,1,r,-999999,10,540514,r,285,540799,White,Congruent,r,Green,0,,0,13,533517,,0,0,,,,,,,,,,9,1,9,Pictures\green.bmp,6000,16000,Pictures\left.bmp,,,,,,,,,,,,,StimulusPr,Pictures\black.bmp,CuedStim4,Left
POP_2,27039,1,"<?xml version=""1.0""?>\n<Clock xmlns:dt=""urn:schemas-microsoft-com:datatypes""><Description dt:dt=""string"">E-Prime Primary Realtime Clock</Description><StartTime><Timestamp dt:dt=""int"">0</Timestamp><DateUtc dt:dt=""string"">2014-06-07T23:31:43Z</DateUtc></StartTime><FrequencyChanges><FrequencyChange><Frequency dt:dt=""r8"">2793040000</Frequency><Timestamp dt:dt=""r8"">1.06548007237086E+15</Timestamp><Current dt:dt=""r8"">0</Current><DateUtc dt:dt=""string"">2014-06-07T23:31:43Z</DateUtc></FrequencyChange></FrequencyChanges></Clock>\n",60.03,1,2047276437,0,,-999999,15,50960,t,42547,93507,6/7/2014,16:31:43,,1,Session1,SessionsList,,,,,,,,,,1,1,1,3,,,,406931,,,,3,1,3,Cued4,MiniBlocks2,,,,,10,1,r,-999999,15,563519,r,310,563829,White,Congruent,r,Green,0,,0,18,558522,,0,0,,,,,,,,,,10,1,10,Pictures\green.bmp,4000,2000,Pictures\left.bmp,,,,,,,,,,,,,StimulusPr,Pictures\black.bmp,CuedStim4,Left
POP_2,27039,1,"<?xml version=""1.0""?>\n<Clock xmlns:dt=""urn:schemas-microsoft-com:datatypes""><Description dt:dt=""string"">E-Prime Primary Realtime Clock</Description><StartTime><Timestamp dt:dt=""int"">0</Timestamp><DateUtc dt:dt=""string"">2014-06-07T23:31:43Z</DateUtc></StartTime><FrequencyChanges><FrequencyChange><Frequency dt:dt=""r8"">2793040000</Frequency><Timestamp dt:dt=""r8"">1.06548007237086E+15</Timestamp><Current dt:dt=""r8"">0</Current><DateUtc dt:dt=""string"">2014-06-07T23:31:43Z</DateUtc></FrequencyChange></FrequencyChanges></Clock>\n",60.03,1,2047276437,0,,-999999,15,50960,t,42547,93507,6/7/2014,16:31:43,,1,Session1,SessionsList,,,,,,,,,,1,1,1,4,,,,,,,,4,1,4,NonCued4,MiniBlocks2,,,,565851,1,1,r,-999999,7,579511,r,353,579864,Green,Congruent,r,White,0,,0,9,575513,,0,0,,,,,,,,,,,,,Pictures\white.bmp,3000,2000,Pictures\GreenLeft.bmp,,,,,,,,,,1,1,1,StimulusPr,Pictures\black.bmp,NonCuedStim4,Left
POP_2,27039,1,"<?xml version=""1.0""?>\n<Clock xmlns:dt=""urn:schemas-microsoft-com:datatypes""><Description dt:dt=""string"">E-Prime Primary Realtime Clock</Description><StartTime><Timestamp dt:dt=""int"">0</Timestamp><DateUtc dt:dt=""string"">2014-06-07T23:31:43Z</DateUtc></StartTime><FrequencyChanges><FrequencyChange><Frequency dt:dt=""r8"">2793040000</Frequency><Timestamp dt:dt=""r8"">1.06548007237086E+15</Timestamp><Current dt:dt=""r8"">0</Current><DateUtc dt:dt=""string"">2014-06-07T23:31:43Z</DateUtc></FrequencyChange></FrequencyChanges></Clock>\n",60.03,1,2047276437,0,,-999999,15,50960,t,42547,93507,6/7/2014,16:31:43,,1,Session1,SessionsList,,,,,,,,,,1,1,1,4,,,,,,,,4,1,4,NonCued4,MiniBlocks2,,,,565851,2,1,r,-999999,3,588507,r,382,588889,Green,Congruent,r,White,0,,0,5,583509,,0,0,,,,,,,,,,,,,Pictures\white.bmp,4000,2000,Pictures\GreenLeft.bmp,,,,,,,,,,2,1,2,StimulusPr,Pictures\black.bmp,NonCuedStim4,Left
POP_2,27039,1,"<?xml version=""1.0""?>\n<Clock xmlns:dt=""urn:schemas-microsoft-com:datatypes""><Description dt:dt=""string"">E-Prime Primary Realtime Clock</Description><StartTime><Timestamp dt:dt=""int"">0</Timestamp><DateUtc dt:dt=""string"">2014-06-07T23:31:43Z</DateUtc></StartTime><FrequencyChanges><FrequencyChange><Frequency dt:dt=""r8"">2793040000</Frequency><Timestamp dt:dt=""r8"">1.06548007237086E+15</Timestamp><Current dt:dt=""r8"">0</Current><DateUtc dt:dt=""string"">2014-06-07T23:31:43Z</DateUtc></FrequencyChange></FrequencyChanges></Clock>\n",60.03,1,2047276437,0,,-999999,15,50960,t,42547,93507,6/7/2014,16:31:43,,1,Session1,SessionsList,,,,,,,,,,1,1,1,4,,,,,,,,4,1,4,NonCued4,MiniBlocks2,,,,565851,3,1,r,-999999,15,597519,r,381,597900,Red,Incongruent,r,White,0,,0,17,592521,,0,0,,,,,,,,,,,,,Pictures\white.bmp,4000,2000,Pictures\black.bmp,,,,,,,,,,3,1,3,StimulusPr,Pictures\RedRight.bmp,NonCuedStim4,Right
POP_2,27039,1,"<?xml version=""1.0""?>\n<Clock xmlns:dt=""urn:schemas-microsoft-com:datatypes""><Description dt:dt=""string"">E-Prime Primary Realtime Clock</Description><StartTime><Timestamp dt:dt=""int"">0</Timestamp><DateUtc dt:dt=""string"">2014-06-07T23:31:43Z</DateUtc></StartTime><FrequencyChanges><FrequencyChange><Frequency dt:dt=""r8"">2793040000</Frequency><Timestamp dt:dt=""r8"">1.06548007237086E+15</Timestamp><Current dt:dt=""r8"">0</Current><DateUtc dt:dt=""string"">2014-06-07T23:31:43Z</DateUtc></FrequencyChange></FrequencyChanges></Clock>\n",60.03,1,2047276437,0,,-999999,15,50960,t,42547,93507,6/7/2014,16:31:43,,1,Session1,SessionsList,,,,,,,,,,1,1,1,4,,,,,,,,4,1,4,NonCued4,MiniBlocks2,,,,565851,4,1,b,-999999,11,605515,b,445,605960,Green,Congruent,b,White,0,,0,13,601517,,0,0,,,,,,,,,,,,,Pictures\white.bmp,3000,16000,Pictures\black.bmp,,,,,,,,,,4,1,4,StimulusPr,Pictures\GreenRight.bmp,NonCuedStim4,Right
POP_2,27039,1,"<?xml version=""1.0""?>\n<Clock xmlns:dt=""urn:schemas-microsoft-com:datatypes""><Description dt:dt=""string"">E-Prime Primary Realtime Clock</Description><StartTime><Timestamp dt:dt=""int"">0</Timestamp><DateUtc dt:dt=""string"">2014-06-07T23:31:43Z</DateUtc></StartTime><FrequencyChanges><FrequencyChange><Frequency dt:dt=""r8"">2793040000</Frequency><Timestamp dt:dt=""r8"">1.06548007237086E+15</Timestamp><Current dt:dt=""r8"">0</Current><DateUtc dt:dt=""string"">2014-06-07T23:31:43Z</DateUtc></FrequencyChange></FrequencyChanges></Clock>\n",60.03,1,2047276437,0,,-999999,15,50960,t,42547,93507,6/7/2014,16:31:43,,1,Session1,SessionsList,,,,,,,,,,1,1,1,4,,,,,,,,4,1,4,NonCued4,MiniBlocks2,,,,565851,5,1,r,-999999,13,633517,r,435,633952,Green,Congruent,r,White,0,,0,2,623506,,0,0,,,,,,,,,,,,,Pictures\white.bmp,9000,10000,Pictures\GreenLeft.bmp,,,,,,,,,,5,1,5,StimulusPr,Pictures\black.bmp,NonCuedStim4,Left
POP_2,27039,1,"<?xml version=""1.0""?>\n<Clock xmlns:dt=""urn:schemas-microsoft-com:datatypes""><Description dt:dt=""string"">E-Prime Primary Realtime Clock</Description><StartTime><Timestamp dt:dt=""int"">0</Timestamp><DateUtc dt:dt=""string"">2014-06-07T23:31:43Z</DateUtc></StartTime><FrequencyChanges><FrequencyChange><Frequency dt:dt=""r8"">2793040000</Frequency><Timestamp dt:dt=""r8"">1.06548007237086E+15</Timestamp><Current dt:dt=""r8"">0</Current><DateUtc dt:dt=""string"">2014-06-07T23:31:43Z</DateUtc></FrequencyChange></FrequencyChanges></Clock>\n",60.03,1,2047276437,0,,-999999,15,50960,t,42547,93507,6/7/2014,16:31:43,,1,Session1,SessionsList,,,,,,,,,,1,1,1,4,,,,,,,,4,1,4,NonCued4,MiniBlocks2,,,,565851,6,1,b,-999999,5,649509,b,342,649851,Green,Congruent,b,White,0,,0,7,645511,,0,0,,,,,,,,,,,,,Pictures\white.bmp,3000,16000,Pictures\black.bmp,,,,,,,,,,6,1,6,StimulusPr,Pictures\GreenRight.bmp,NonCuedStim4,Right
POP_2,27039,1,"<?xml version=""1.0""?>\n<Clock xmlns:dt=""urn:schemas-microsoft-com:datatypes""><Description dt:dt=""string"">E-Prime Primary Realtime Clock</Description><StartTime><Timestamp dt:dt=""int"">0</Timestamp><DateUtc dt:dt=""string"">2014-06-07T23:31:43Z</DateUtc></StartTime><FrequencyChanges><FrequencyChange><Frequency dt:dt=""r8"">2793040000</Frequency><Timestamp dt:dt=""r8"">1.06548007237086E+15</Timestamp><Current dt:dt=""r8"">0</Current><DateUtc dt:dt=""string"">2014-06-07T23:31:43Z</DateUtc></FrequencyChange></FrequencyChanges></Clock>\n",60.03,1,2047276437,0,,-999999,15,50960,t,42547,93507,6/7/2014,16:31:43,,1,Session1,SessionsList,,,,,,,,,,1,1,1,4,,,,,,,,4,1,4,NonCued4,MiniBlocks2,,,,565851,7,1,b,-999999,11,671515,b,452,671967,Red,Incongruent,b,White,0,,0,13,667517,,0,0,,,,,,,,,,,,,Pictures\white.bmp,3000,16000,Pictures\RedLeft.bmp,,,,,,,,,,7,1,7,StimulusPr,Pictures\black.bmp,NonCuedStim4,Left
POP_2,27039,1,"<?xml version=""1.0""?>\n<Clock xmlns:dt=""urn:schemas-microsoft-com:datatypes""><Description dt:dt=""string"">E-Prime Primary Realtime Clock</Description><StartTime><Timestamp dt:dt=""int"">0</Timestamp><DateUtc dt:dt=""string"">2014-06-07T23:31:43Z</DateUtc></StartTime><FrequencyChanges><FrequencyChange><Frequency dt:dt=""r8"">2793040000</Frequency><Timestamp dt:dt=""r8"">1.06548007237086E+15</Timestamp><Current dt:dt=""r8"">0</Current><DateUtc dt:dt=""string"">2014-06-07T23:31:43Z</DateUtc></FrequencyChange></FrequencyChanges></Clock>\n",60.03,1,2047276437,0,,-999999,15,50960,t,42547,93507,6/7/2014,16:31:43,,1,Session1,SessionsList,,,,,,,,,,1,1,1,4,,,,,,,,4,1,4,NonCued4,MiniBlocks2,,,,565851,8,1,r,-999999,16,693520,r,402,693922,Green,Congruent,r,White,0,,0,2,689506,,0,0,,,,,,,,,,,,,Pictures\white.bmp,3000,2000,Pictures\GreenLeft.bmp,,,,,,,,,,8,1,8,StimulusPr,Pictures\black.bmp,NonCuedStim4,Left
POP_2,27039,1,"<?xml version=""1.0""?>\n<Clock xmlns:dt=""urn:schemas-microsoft-com:datatypes""><Description dt:dt=""string"">E-Prime Primary Realtime Clock</Description><StartTime><Timestamp dt:dt=""int"">0</Timestamp><DateUtc dt:dt=""string"">2014-06-07T23:31:43Z</DateUtc></StartTime><FrequencyChanges><FrequencyChange><Frequency dt:dt=""r8"">2793040000</Frequency><Timestamp dt:dt=""r8"">1.06548007237086E+15</Timestamp><Current dt:dt=""r8"">0</Current><DateUtc dt:dt=""string"">2014-06-07T23:31:43Z</DateUtc></FrequencyChange></FrequencyChanges></Clock>\n",60.03,1,2047276437,0,,-999999,15,50960,t,42547,93507,6/7/2014,16:31:43,,1,Session1,SessionsList,,,,,,,,,,1,1,1,4,,,,,,,,4,1,4,NonCued4,MiniBlocks2,,,,565851,9,1,b,-999999,11,704515,b,395,704910,Green,Congruent,b,White,0,,0,14,697518,,0,0,,,,,,,,,,,,,Pictures\white.bmp,6000,2000,Pictures\black.bmp,,,,,,,,,,9,1,9,StimulusPr,Pictures\GreenRight.bmp,NonCuedStim4,Right
POP_2,27039,1,"<?xml version=""1.0""?>\n<Clock xmlns:dt=""urn:schemas-microsoft-com:datatypes""><Description dt:dt=""string"">E-Prime Primary Realtime Clock</Description><StartTime><Timestamp dt:dt=""int"">0</Timestamp><DateUtc dt:dt=""string"">2014-06-07T23:31:43Z</DateUtc></StartTime><FrequencyChanges><FrequencyChange><Frequency dt:dt=""r8"">2793040000</Frequency><Timestamp dt:dt=""r8"">1.06548007237086E+15</Timestamp><Current dt:dt=""r8"">0</Current><DateUtc dt:dt=""string"">2014-06-07T23:31:43Z</DateUtc></FrequencyChange></FrequencyChanges></Clock>\n",60.03,1,2047276437,0,,-999999,15,50960,t,42547,93507,6/7/2014,16:31:43,,1,Session1,SessionsList,,,,,,,,,,1,1,1,4,,,,,,,,4,1,4,NonCued4,MiniBlocks2,,,,565851,10,1,b,-999999,7,713510,b,349,713859,Green,Congruent,b,White,0,,0,9,708513,,0,0,,,,,,,,,,,,,Pictures\white.bmp,4000,4000,Pictures\black.bmp,,,,,,,,,,10,1,10,StimulusPr,Pictures\GreenRight.bmp,NonCuedStim4,Right
POP_2,27039,1,"<?xml version=""1.0""?>\n<Clock xmlns:dt=""urn:schemas-microsoft-com:datatypes""><Description dt:dt=""string"">E-Prime Primary Realtime Clock</Description><StartTime><Timestamp dt:dt=""int"">0</Timestamp><DateUtc dt:dt=""string"">2014-06-07T23:31:43Z</DateUtc></StartTime><FrequencyChanges><FrequencyChange><Frequency dt:dt=""r8"">2793040000</Frequency><Timestamp dt:dt=""r8"">1.06548007237086E+15</Timestamp><Current dt:dt=""r8"">0</Current><DateUtc dt:dt=""string"">2014-06-07T23:31:43Z</DateUtc></FrequencyChange></FrequencyChanges></Clock>\n",60.03,1,2047276437,0,,-999999,15,50960,t,42547,93507,6/7/2014,16:31:43,,2,Session2,SessionsList,0,,-999999,14,741713,t,32208,773921,717875,2,1,2,1,773930,,,,1,1,1,,,,Cued1,MiniBlocks1,,,,,1,1,r,-999999,19,787940,r,286,788226,White,Congruent,r,Green,0,,0,4,782925,,0,0,1,1,1,,,,,,,,,,Pictures\green.bmp,4000,4000,Pictures\left.bmp,,,,,,,,,,,,,StimulusPr,Pictures\black.bmp,CuedStim1,Left
POP_2,27039,1,"<?xml version=""1.0""?>\n<Clock xmlns:dt=""urn:schemas-microsoft-com:datatypes""><Description dt:dt=""string"">E-Prime Primary Realtime Clock</Description><StartTime><Timestamp dt:dt=""int"">0</Timestamp><DateUtc dt:dt=""string"">2014-06-07T23:31:43Z</DateUtc></StartTime><FrequencyChanges><FrequencyChange><Frequency dt:dt=""r8"">2793040000</Frequency><Timestamp dt:dt=""r8"">1.06548007237086E+15</Timestamp><Current dt:dt=""r8"">0</Current><DateUtc dt:dt=""string"">2014-06-07T23:31:43Z</DateUtc></FrequencyChange></FrequencyChanges></Clock>\n",60.03,1,2047276437,0,,-999999,15,50960,t,42547,93507,6/7/2014,16:31:43,,2,Session2,SessionsList,0,,-999999,14,741713,t,32208,773921,717875,2,1,2,1,773930,,,,1,1,1,,,,Cued1,MiniBlocks1,,,,,2,1,b,-999999,12,800933,b,290,801223,White,Congruent,b,Green,0,,0,16,793937,,0,0,2,1,2,,,,,,,,,,Pictures\green.bmp,6000,2000,Pictures\black.bmp,,,,,,,,,,,,,StimulusPr,Pictures\right.bmp,CuedStim1,Right
POP_2,27039,1,"<?xml version=""1.0""?>\n<Clock xmlns:dt=""urn:schemas-microsoft-com:datatypes""><Description dt:dt=""string"">E-Prime Primary Realtime Clock</Description><StartTime><Timestamp dt:dt=""int"">0</Timestamp><DateUtc dt:dt=""string"">2014-06-07T23:31:43Z</DateUtc></StartTime><FrequencyChanges><FrequencyChange><Frequency dt:dt=""r8"">2793040000</Frequency><Timestamp dt:dt=""r8"">1.06548007237086E+15</Timestamp><Current dt:dt=""r8"">0</Current><DateUtc dt:dt=""string"">2014-06-07T23:31:43Z</DateUtc></FrequencyChange></FrequencyChanges></Clock>\n",60.03,1,2047276437,0,,-999999,15,50960,t,42547,93507,6/7/2014,16:31:43,,2,Session2,SessionsList,0,,-999999,14,741713,t,32208,773921,717875,2,1,2,1,773930,,,,1,1,1,,,,Cued1,MiniBlocks1,,,,,3,1,b,-999999,8,808929,b,349,809278,White,Congruent,b,Green,0,,0,10,804931,,0,0,3,1,3,,,,,,,,,,Pictures\green.bmp,3000,2000,Pictures\black.bmp,,,,,,,,,,,,,StimulusPr,Pictures\right.bmp,CuedStim1,Right
POP_2,27039,1,"<?xml version=""1.0""?>\n<Clock xmlns:dt=""urn:schemas-microsoft-com:datatypes""><Description dt:dt=""string"">E-Prime Primary Realtime Clock</Description><StartTime><Timestamp dt:dt=""int"">0</Timestamp><DateUtc dt:dt=""string"">2014-06-07T23:31:43Z</DateUtc></StartTime><FrequencyChanges><FrequencyChange><Frequency dt:dt=""r8"">2793040000</Frequency><Timestamp dt:dt=""r8"">1.06548007237086E+15</Timestamp><Current dt:dt=""r8"">0</Current><DateUtc dt:dt=""string"">2014-06-07T23:31:43Z</DateUtc></FrequencyChange></FrequencyChanges></Clock>\n",60.03,1,2047276437,0,,-999999,15,50960,t,42547,93507,6/7/2014,16:31:43,,2,Session2,SessionsList,0,,-999999,14,741713,t,32208,773921,717875,2,1,2,1,773930,,,,1,1,1,,,,Cued1,MiniBlocks1,,,,,4,1,b,-999999,4,816925,b,310,817235,White,Incongruent,b,Red,0,,0,6,812927,,0,0,4,1,4,,,,,,,,,,Pictures\red.bmp,3000,16000,Pictures\left.bmp,,,,,,,,,,,,,StimulusPr,Pictures\black.bmp,CuedStim1,Left
POP_2,27039,1,"<?xml version=""1.0""?>\n<Clock xmlns:dt=""urn:schemas-microsoft-com:datatypes""><Description dt:dt=""string"">E-Prime Primary Realtime Clock</Description><StartTime><Timestamp dt:dt=""int"">0</Timestamp><DateUtc dt:dt=""string"">2014-06-07T23:31:43Z</DateUtc></StartTime><FrequencyChanges><FrequencyChange><Frequency dt:dt=""r8"">2793040000</Frequency><Timestamp dt:dt=""r8"">1.06548007237086E+15</Timestamp><Current dt:dt=""r8"">0</Current><DateUtc dt:dt=""string"">2014-06-07T23:31:43Z</DateUtc></FrequencyChange></FrequencyChanges></Clock>\n",60.03,1,2047276437,0,,-999999,15,50960,t,42547,93507,6/7/2014,16:31:43,,2,Session2,SessionsList,0,,-999999,14,741713,t,32208,773921,717875,2,1,2,1,773930,,,,1,1,1,,,,Cued1,MiniBlocks1,,,,,5,1,r,-999999,10,838931,r,359,839290,White,Congruent,r,Green,0,,0,12,834933,,0,0,5,1,5,,,,,,,,,,Pictures\green.bmp,3000,16000,Pictures\left.bmp,,,,,,,,,,,,,StimulusPr,Pictures\black.bmp,CuedStim1,Left
POP_2,27039,1,"<?xml version=""1.0""?>\n<Clock xmlns:dt=""urn:schemas-microsoft-com:datatypes""><Description dt:dt=""string"">E-Prime Primary Realtime Clock</Description><StartTime><Timestamp dt:dt=""int"">0</Timestamp><DateUtc dt:dt=""string"">2014-06-07T23:31:43Z</DateUtc></StartTime><FrequencyChanges><FrequencyChange><Frequency dt:dt=""r8"">2793040000</Frequency><Timestamp dt:dt=""r8"">1.06548007237086E+15</Timestamp><Current dt:dt=""r8"">0</Current><DateUtc dt:dt=""string"">2014-06-07T23:31:43Z</DateUtc></FrequencyChange></FrequencyChanges></Clock>\n",60.03,1,2047276437,0,,-999999,15,50960,t,42547,93507,6/7/2014,16:31:43,,2,Session2,SessionsList,0,,-999999,14,741713,t,32208,773921,717875,2,1,2,1,773930,,,,1,1,1,,,,Cued1,MiniBlocks1,,,,,6,1,r,-999999,12,866933,r,403,867336,White,Congruent,r,Green,0,,0,17,856938,,0,0,6,1,6,,,,,,,,,,Pictures\green.bmp,9000,10000,Pictures\left.bmp,,,,,,,,,,,,,StimulusPr,Pictures\black.bmp,CuedStim1,Left
POP_2,27039,1,"<?xml version=""1.0""?>\n<Clock xmlns:dt=""urn:schemas-microsoft-com:datatypes""><Description dt:dt=""string"">E-Prime Primary Realtime Clock</Description><StartTime><Timestamp dt:dt=""int"">0</Timestamp><DateUtc dt:dt=""string"">2014-06-07T23:31:43Z</DateUtc></StartTime><FrequencyChanges><FrequencyChange><Frequency dt:dt=""r8"">2793040000</Frequency><Timestamp dt:dt=""r8"">1.06548007237086E+15</Timestamp><Current dt:dt=""r8"">0</Current><DateUtc dt:dt=""string"">2014-06-07T23:31:43Z</DateUtc></FrequencyChange></FrequencyChanges></Clock>\n",60.03,1,2047276437,0,,-999999,15,50960,t,42547,93507,6/7/2014,16:31:43,,2,Session2,SessionsList,0,,-999999,14,741713,t,32208,773921,717875,2,1,2,1,773930,,,,1,1,1,,,,Cued1,MiniBlocks1,,,,,7,1,b,-999999,4,882925,b,463,883388,White,Congruent,b,Green,0,,0,6,878927,,0,0,7,1,7,,,,,,,,,,Pictures\green.bmp,3000,16000,Pictures\black.bmp,,,,,,,,,,,,,StimulusPr,Pictures\right.bmp,CuedStim1,Right
POP_2,27039,1,"<?xml version=""1.0""?>\n<Clock xmlns:dt=""urn:schemas-microsoft-com:datatypes""><Description dt:dt=""string"">E-Prime Primary Realtime Clock</Description><StartTime><Timestamp dt:dt=""int"">0</Timestamp><DateUtc dt:dt=""string"">2014-06-07T23:31:43Z</DateUtc></StartTime><FrequencyChanges><FrequencyChange><Frequency dt:dt=""r8"">2793040000</Frequency><Timestamp dt:dt=""r8"">1.06548007237086E+15</Timestamp><Current dt:dt=""r8"">0</Current><DateUtc dt:dt=""string"">2014-06-07T23:31:43Z</DateUtc></FrequencyChange></FrequencyChanges></Clock>\n",60.03,1,2047276437,0,,-999999,15,50960,t,42547,93507,6/7/2014,16:31:43,,2,Session2,SessionsList,0,,-999999,14,741713,t,32208,773921,717875,2,1,2,1,773930,,,,1,1,1,,,,Cued1,MiniBlocks1,,,,,8,1,r,-999999,9,905930,r,453,906383,White,Incongruent,r,Red,0,,0,12,900933,,0,0,8,1,8,,,,,,,,,,Pictures\red.bmp,4000,2000,Pictures\black.bmp,,,,,,,,,,,,,StimulusPr,Pictures\right.bmp,CuedStim1,Right
POP_2,27039,1,"<?xml version=""1.0""?>\n<Clock xmlns:dt=""urn:schemas-microsoft-com:datatypes""><Description dt:dt=""string"">E-Prime Primary Realtime Clock</Description><StartTime><Timestamp dt:dt=""int"">0</Timestamp><DateUtc dt:dt=""string"">2014-06-07T23:31:43Z</DateUtc></StartTime><FrequencyChanges><FrequencyChange><Frequency dt:dt=""r8"">2793040000</Frequency><Timestamp dt:dt=""r8"">1.06548007237086E+15</Timestamp><Current dt:dt=""r8"">0</Current><DateUtc dt:dt=""string"">2014-06-07T23:31:43Z</DateUtc></FrequencyChange></FrequencyChanges></Clock>\n",60.03,1,2047276437,0,,-999999,15,50960,t,42547,93507,6/7/2014,16:31:43,,2,Session2,SessionsList,0,,-999999,14,741713,t,32208,773921,717875,2,1,2,1,773930,,,,1,1,1,,,,Cued1,MiniBlocks1,,,,,9,1,b,-999999,5,914926,b,305,915231,White,Congruent,b,Green,0,,0,7,909928,,0,0,9,1,9,,,,,,,,,,Pictures\green.bmp,4000,2000,Pictures\black.bmp,,,,,,,,,,,,,StimulusPr,Pictures\right.bmp,CuedStim1,Right
POP_2,27039,1,"<?xml version=""1.0""?>\n<Clock xmlns:dt=""urn:schemas-microsoft-com:datatypes""><Description dt:dt=""string"">E-Prime Primary Realtime Clock</Description><StartTime><Timestamp dt:dt=""int"">0</Timestamp><DateUtc dt:dt=""string"">2014-06-07T23:31:43Z</DateUtc></StartTime><FrequencyChanges><FrequencyChange><Frequency dt:dt=""r8"">2793040000</Frequency><Timestamp dt:dt=""r8"">1.06548007237086E+15</Timestamp><Current dt:dt=""r8"">0</Current><DateUtc dt:dt=""string"">2014-06-07T23:31:43Z</DateUtc></FrequencyChange></FrequencyChanges></Clock>\n",60.03,1,2047276437,0,,-999999,15,50960,t,42547,93507,6/7/2014,16:31:43,,2,Session2,SessionsList,0,,-999999,14,741713,t,32208,773921,717875,2,1,2,1,773930,,,,1,1,1,,,,Cued1,MiniBlocks1,,,,,10,1,r,-999999,18,922938,r,305,923243,White,Congruent,r,Green,0,,0,4,918924,,0,0,10,1,10,,,,,,,,,,Pictures\green.bmp,3000,2000,Pictures\left.bmp,,,,,,,,,,,,,StimulusPr,Pictures\black.bmp,CuedStim1,Left
POP_2,27039,1,"<?xml version=""1.0""?>\n<Clock xmlns:dt=""urn:schemas-microsoft-com:datatypes""><Description dt:dt=""string"">E-Prime Primary Realtime Clock</Description><StartTime><Timestamp dt:dt=""int"">0</Timestamp><DateUtc dt:dt=""string"">2014-06-07T23:31:43Z</DateUtc></StartTime><FrequencyChanges><FrequencyChange><Frequency dt:dt=""r8"">2793040000</Frequency><Timestamp dt:dt=""r8"">1.06548007237086E+15</Timestamp><Current dt:dt=""r8"">0</Current><DateUtc dt:dt=""string"">2014-06-07T23:31:43Z</DateUtc></FrequencyChange></FrequencyChanges></Clock>\n",60.03,1,2047276437,0,,-999999,15,50960,t,42547,93507,6/7/2014,16:31:43,,2,Session2,SessionsList,0,,-999999,14,741713,t,32208,773921,717875,2,1,2,2,,,,,2,1,2,,,,NonCued1,MiniBlocks1,925271,,,,1,1,r,-999999,10,939930,r,440,940370,Green,Congruent,r,White,0,,0,12,934932,,0,0,,,,,,,,,,,,,Pictures\white.bmp,4000,2000,Pictures\GreenLeft.bmp,1,1,1,,,,,,,,,,StimulusPr,Pictures\black.bmp,NonCuedStim1,Left
POP_2,27039,1,"<?xml version=""1.0""?>\n<Clock xmlns:dt=""urn:schemas-microsoft-com:datatypes""><Description dt:dt=""string"">E-Prime Primary Realtime Clock</Description><StartTime><Timestamp dt:dt=""int"">0</Timestamp><DateUtc dt:dt=""string"">2014-06-07T23:31:43Z</DateUtc></StartTime><FrequencyChanges><FrequencyChange><Frequency dt:dt=""r8"">2793040000</Frequency><Timestamp dt:dt=""r8"">1.06548007237086E+15</Timestamp><Current dt:dt=""r8"">0</Current><DateUtc dt:dt=""string"">2014-06-07T23:31:43Z</DateUtc></FrequencyChange></FrequencyChanges></Clock>\n",60.03,1,2047276437,0,,-999999,15,50960,t,42547,93507,6/7/2014,16:31:43,,2,Session2,SessionsList,0,,-999999,14,741713,t,32208,773921,717875,2,1,2,2,,,,,2,1,2,,,,NonCued1,MiniBlocks1,925271,,,,2,1,b,-999999,4,950924,b,400,951324,Green,Congruent,b,White,0,,0,8,943928,,0,0,,,,,,,,,,,,,Pictures\white.bmp,6000,16000,Pictures\black.bmp,2,1,2,,,,,,,,,,StimulusPr,Pictures\GreenRight.bmp,NonCuedStim1,Right
POP_2,27039,1,"<?xml version=""1.0""?>\n<Clock xmlns:dt=""urn:schemas-microsoft-com:datatypes""><Description dt:dt=""string"">E-Prime Primary Realtime Clock</Description><StartTime><Timestamp dt:dt=""int"">0</Timestamp><DateUtc dt:dt=""string"">2014-06-07T23:31:43Z</DateUtc></StartTime><FrequencyChanges><FrequencyChange><Frequency dt:dt=""r8"">2793040000</Frequency><Timestamp dt:dt=""r8"">1.06548007237086E+15</Timestamp><Current dt:dt=""r8"">0</Current><DateUtc dt:dt=""string"">2014-06-07T23:31:43Z</DateUtc></FrequencyChange></FrequencyChanges></Clock>\n",60.03,1,2047276437,0,,-999999,15,50960,t,42547,93507,6/7/2014,16:31:43,,2,Session2,SessionsList,0,,-999999,14,741713,t,32208,773921,717875,2,1,2,2,,,,,2,1,2,,,,NonCued1,MiniBlocks1,925271,,,,3,1,r,-999999,8,975928,r,458,976386,Red,Incongruent,r,White,0,,0,12,968932,,0,0,,,,,,,,,,,,,Pictures\white.bmp,6000,10000,Pictures\black.bmp,3,1,3,,,,,,,,,,StimulusPr,Pictures\RedRight.bmp,NonCuedStim1,Right
POP_2,27039,1,"<?xml version=""1.0""?>\n<Clock xmlns:dt=""urn:schemas-microsoft-com:datatypes""><Description dt:dt=""string"">E-Prime Primary Realtime Clock</Description><StartTime><Timestamp dt:dt=""int"">0</Timestamp><DateUtc dt:dt=""string"">2014-06-07T23:31:43Z</DateUtc></StartTime><FrequencyChanges><FrequencyChange><Frequency dt:dt=""r8"">2793040000</Frequency><Timestamp dt:dt=""r8"">1.06548007237086E+15</Timestamp><Current dt:dt=""r8"">0</Current><DateUtc dt:dt=""string"">2014-06-07T23:31:43Z</DateUtc></FrequencyChange></FrequencyChanges></Clock>\n",60.03,1,2047276437,0,,-999999,15,50960,t,42547,93507,6/7/2014,16:31:43,,2,Session2,SessionsList,0,,-999999,14,741713,t,32208,773921,717875,2,1,2,2,,,,,2,1,2,,,,NonCued1,MiniBlocks1,925271,,,,4,1,r,-999999,14,997934,r,489,998423,Green,Congruent,r,White,0,,0,2,987922,,0,0,,,,,,,,,,,,,Pictures\white.bmp,9000,10000,Pictures\GreenLeft.bmp,4,1,4,,,,,,,,,,StimulusPr,Pictures\black.bmp,NonCuedStim1,Left
POP_2,27039,1,"<?xml version=""1.0""?>\n<Clock xmlns:dt=""urn:schemas-microsoft-com:datatypes""><Description dt:dt=""string"">E-Prime Primary Realtime Clock</Description><StartTime><Timestamp dt:dt=""int"">0</Timestamp><DateUtc dt:dt=""string"">2014-06-07T23:31:43Z</DateUtc></StartTime><FrequencyChanges><FrequencyChange><Frequency dt:dt=""r8"">2793040000</Frequency><Timestamp dt:dt=""r8"">1.06548007237086E+15</Timestamp><Current dt:dt=""r8"">0</Current><DateUtc dt:dt=""string"">2014-06-07T23:31:43Z</DateUtc></FrequencyChange></FrequencyChanges></Clock>\n",60.03,1,2047276437,0,,-999999,15,50960,t,42547,93507,6/7/2014,16:31:43,,2,Session2,SessionsList,0,,-999999,14,741713,t,32208,773921,717875,2,1,2,2,,,,,2,1,2,,,,NonCued1,MiniBlocks1,925271,,,,5,1,b,-999999,6,1013926,b,422,1014348,Green,Congruent,b,White,0,,0,8,1009928,,0,0,,,,,,,,,,,,,Pictures\white.bmp,3000,2000,Pictures\black.bmp,5,1,5,,,,,,,,,,StimulusPr,Pictures\GreenRight.bmp,NonCuedStim1,Right
POP_2,27039,1,"<?xml version=""1.0""?>\n<Clock xmlns:dt=""urn:schemas-microsoft-com:datatypes""><Description dt:dt=""string"">E-Prime Primary Realtime Clock</Description><StartTime><Timestamp dt:dt=""int"">0</Timestamp><DateUtc dt:dt=""string"">2014-06-07T23:31:43Z</DateUtc></StartTime><FrequencyChanges><FrequencyChange><Frequency dt:dt=""r8"">2793040000</Frequency><Timestamp dt:dt=""r8"">1.06548007237086E+15</Timestamp><Current dt:dt=""r8"">0</Current><DateUtc dt:dt=""string"">2014-06-07T23:31:43Z</DateUtc></FrequencyChange></FrequencyChanges></Clock>\n",60.03,1,2047276437,0,,-999999,15,50960,t,42547,93507,6/7/2014,16:31:43,,2,Session2,SessionsList,0,,-999999,14,741713,t,32208,773921,717875,2,1,2,2,,,,,2,1,2,,,,NonCued1,MiniBlocks1,925271,,,,6,1,b,-999999,18,1022938,b,528,1023466,Red,Incongruent,b,White,0,,0,4,1017924,,0,0,,,,,,,,,,,,,Pictures\white.bmp,4000,16000,Pictures\RedLeft.bmp,6,1,6,,,,,,,,,,StimulusPr,Pictures\black.bmp,NonCuedStim1,Left
POP_2,27039,1,"<?xml version=""1.0""?>\n<Clock xmlns:dt=""urn:schemas-microsoft-com:datatypes""><Description dt:dt=""string"">E-Prime Primary Realtime Clock</Description><StartTime><Timestamp dt:dt=""int"">0</Timestamp><DateUtc dt:dt=""string"">2014-06-07T23:31:43Z</DateUtc></StartTime><FrequencyChanges><FrequencyChange><Frequency dt:dt=""r8"">2793040000</Frequency><Timestamp dt:dt=""r8"">1.06548007237086E+15</Timestamp><Current dt:dt=""r8"">0</Current><DateUtc dt:dt=""string"">2014-06-07T23:31:43Z</DateUtc></FrequencyChange></FrequencyChanges></Clock>\n",60.03,1,2047276437,0,,-999999,15,50960,t,42547,93507,6/7/2014,16:31:43,,2,Session2,SessionsList,0,,-999999,14,741713,t,32208,773921,717875,2,1,2,2,,,,,2,1,2,,,,NonCued1,MiniBlocks1,925271,,,,7,1,b,-999999,7,1044927,b,404,1045331,Green,Congruent,b,White,0,,0,9,1040929,,0,0,,,,,,,,,,,,,Pictures\white.bmp,3000,4000,Pictures\black.bmp,7,1,7,,,,,,,,,,StimulusPr,Pictures\GreenRight.bmp,NonCuedStim1,Right
POP_2,27039,1,"<?xml version=""1.0""?>\n<Clock xmlns:dt=""urn:schemas-microsoft-com:datatypes""><Description dt:dt=""string"">E-Prime Primary Realtime Clock</Description><StartTime><Timestamp dt:dt=""int"">0</Timestamp><DateUtc dt:dt=""string"">2014-06-07T23:31:43Z</DateUtc></StartTime><FrequencyChanges><FrequencyChange><Frequency dt:dt=""r8"">2793040000</Frequency><Timestamp dt:dt=""r8"">1.06548007237086E+15</Timestamp><Current dt:dt=""r8"">0</Current><DateUtc dt:dt=""string"">2014-06-07T23:31:43Z</DateUtc></FrequencyChange></FrequencyChanges></Clock>\n",60.03,1,2047276437,0,,-999999,15,50960,t,42547,93507,6/7/2014,16:31:43,,2,Session2,SessionsList,0,,-999999,14,741713,t,32208,773921,717875,2,1,2,2,,,,,2,1,2,,,,NonCued1,MiniBlocks1,925271,,,,8,1,b,-999999,19,1054939,b,351,1055290,Green,Congruent,b,White,0,,0,4,1050924,,0,0,,,,,,,,,,,,,Pictures\white.bmp,3000,4000,Pictures\black.bmp,8,1,8,,,,,,,,,,StimulusPr,Pictures\GreenRight.bmp,NonCuedStim1,Right
POP_2,27039,1,"<?xml version=""1.0""?>\n<Clock xmlns:dt=""urn:schemas-microsoft-com:datatypes""><Description dt:dt=""string"">E-Prime Primary Realtime Clock</Description><StartTime><Timestamp dt:dt=""int"">0</Timestamp><DateUtc dt:dt=""string"">2014-06-07T23:31:43Z</DateUtc></StartTime><FrequencyChanges><FrequencyChange><Frequency dt:dt=""r8"">2793040000</Frequency><Timestamp dt:dt=""r8"">1.06548007237086E+15</Timestamp><Current dt:dt=""r8"">0</Current><DateUtc dt:dt=""string"">2014-06-07T23:31:43Z</DateUtc></FrequencyChange></FrequencyChanges></Clock>\n",60.03,1,2047276437,0,,-999999,15,50960,t,42547,93507,6/7/2014,16:31:43,,2,Session2,SessionsList,0,,-999999,14,741713,t,32208,773921,717875,2,1,2,2,,,,,2,1,2,,,,NonCued1,MiniBlocks1,925271,,,,9,1,b,-999999,11,1070931,b,379,1071310,Red,Incongruent,b,White,0,,0,16,1060936,,0,0,,,,,,,,,,,,,Pictures\white.bmp,9000,2000,Pictures\RedLeft.bmp,9,1,9,,,,,,,,,,StimulusPr,Pictures\black.bmp,NonCuedStim1,Left
POP_2,27039,1,"<?xml version=""1.0""?>\n<Clock xmlns:dt=""urn:schemas-microsoft-com:datatypes""><Description dt:dt=""string"">E-Prime Primary Realtime Clock</Description><StartTime><Timestamp dt:dt=""int"">0</Timestamp><DateUtc dt:dt=""string"">2014-06-07T23:31:43Z</DateUtc></StartTime><FrequencyChanges><FrequencyChange><Frequency dt:dt=""r8"">2793040000</Frequency><Timestamp dt:dt=""r8"">1.06548007237086E+15</Timestamp><Current dt:dt=""r8"">0</Current><DateUtc dt:dt=""string"">2014-06-07T23:31:43Z</DateUtc></FrequencyChange></FrequencyChanges></Clock>\n",60.03,1,2047276437,0,,-999999,15,50960,t,42547,93507,6/7/2014,16:31:43,,2,Session2,SessionsList,0,,-999999,14,741713,t,32208,773921,717875,2,1,2,2,,,,,2,1,2,,,,NonCued1,MiniBlocks1,925271,,,,10,1,r,-999999,5,1081925,r,705,1082630,Green,Congruent,r,White,0,,0,9,1074929,,0,0,,,,,,,,,,,,,Pictures\white.bmp,6000,2000,Pictures\GreenLeft.bmp,10,1,10,,,,,,,,,,StimulusPr,Pictures\black.bmp,NonCuedStim1,Left
POP_2,27039,1,"<?xml version=""1.0""?>\n<Clock xmlns:dt=""urn:schemas-microsoft-com:datatypes""><Description dt:dt=""string"">E-Prime Primary Realtime Clock</Description><StartTime><Timestamp dt:dt=""int"">0</Timestamp><DateUtc dt:dt=""string"">2014-06-07T23:31:43Z</DateUtc></StartTime><FrequencyChanges><FrequencyChange><Frequency dt:dt=""r8"">2793040000</Frequency><Timestamp dt:dt=""r8"">1.06548007237086E+15</Timestamp><Current dt:dt=""r8"">0</Current><DateUtc dt:dt=""string"">2014-06-07T23:31:43Z</DateUtc></FrequencyChange></FrequencyChanges></Clock>\n",60.03,1,2047276437,0,,-999999,15,50960,t,42547,93507,6/7/2014,16:31:43,,2,Session2,SessionsList,0,,-999999,14,741713,t,32208,773921,717875,2,1,2,3,,,,,3,1,3,,,,NonCued2,MiniBlocks1,,1084657,,,1,1,b,-999999,10,1104930,b,374,1105304,Green,Congruent,b,White,0,,0,15,1094935,,0,0,,,,,,,,,,,,,Pictures\white.bmp,9000,10000,Pictures\black.bmp,,,,1,1,1,,,,,,,StimulusPr,Pictures\GreenRight.bmp,NonCuedStim2,Right
POP_2,27039,1,"<?xml version=""1.0""?>\n<Clock xmlns:dt=""urn:schemas-microsoft-com:datatypes""><Description dt:dt=""string"">E-Prime Primary Realtime Clock</Description><StartTime><Timestamp dt:dt=""int"">0</Timestamp><DateUtc dt:dt=""string"">2014-06-07T23:31:43Z</DateUtc></StartTime><FrequencyChanges><FrequencyChange><Frequency dt:dt=""r8"">2793040000</Frequency><Timestamp dt:dt=""r8"">1.06548007237086E+15</Timestamp><Current dt:dt=""r8"">0</Current><DateUtc dt:dt=""string"">2014-06-07T23:31:43Z</DateUtc></FrequencyChange></FrequencyChanges></Clock>\n",60.03,1,2047276437,0,,-999999,15,50960,t,42547,93507,6/7/2014,16:31:43,,2,Session2,SessionsList,0,,-999999,14,741713,t,32208,773921,717875,2,1,2,3,,,,,3,1,3,,,,NonCued2,MiniBlocks1,,1084657,,,2,1,r,-999999,3,1120922,r,519,1121441,Green,Congruent,r,White,0,,0,4,1116924,,0,0,,,,,,,,,,,,,Pictures\white.bmp,3000,2000,Pictures\GreenLeft.bmp,,,,2,1,2,,,,,,,StimulusPr,Pictures\black.bmp,NonCuedStim2,Left
POP_2,27039,1,"<?xml version=""1.0""?>\n<Clock xmlns:dt=""urn:schemas-microsoft-com:datatypes""><Description dt:dt=""string"">E-Prime Primary Realtime Clock</Description><StartTime><Timestamp dt:dt=""int"">0</Timestamp><DateUtc dt:dt=""string"">2014-06-07T23:31:43Z</DateUtc></StartTime><FrequencyChanges><FrequencyChange><Frequency dt:dt=""r8"">2793040000</Frequency><Timestamp dt:dt=""r8"">1.06548007237086E+15</Timestamp><Current dt:dt=""r8"">0</Current><DateUtc dt:dt=""string"">2014-06-07T23:31:43Z</DateUtc></FrequencyChange></FrequencyChanges></Clock>\n",60.03,1,2047276437,0,,-999999,15,50960,t,42547,93507,6/7/2014,16:31:43,,2,Session2,SessionsList,0,,-999999,14,741713,t,32208,773921,717875,2,1,2,3,,,,,3,1,3,,,,NonCued2,MiniBlocks1,,1084657,,,3,1,r,-999999,16,1128935,r,391,1129326,Red,Incongruent,r,White,0,,0,17,1124937,,0,0,,,,,,,,,,,,,Pictures\white.bmp,3000,2000,Pictures\black.bmp,,,,3,1,3,,,,,,,StimulusPr,Pictures\RedRight.bmp,NonCuedStim2,Right
POP_2,27039,1,"<?xml version=""1.0""?>\n<Clock xmlns:dt=""urn:schemas-microsoft-com:datatypes""><Description dt:dt=""string"">E-Prime Primary Realtime Clock</Description><StartTime><Timestamp dt:dt=""int"">0</Timestamp><DateUtc dt:dt=""string"">2014-06-07T23:31:43Z</DateUtc></StartTime><FrequencyChanges><FrequencyChange><Frequency dt:dt=""r8"">2793040000</Frequency><Timestamp dt:dt=""r8"">1.06548007237086E+15</Timestamp><Current dt:dt=""r8"">0</Current><DateUtc dt:dt=""string"">2014-06-07T23:31:43Z</DateUtc></FrequencyChange></FrequencyChanges></Clock>\n",60.03,1,2047276437,0,,-999999,15,50960,t,42547,93507,6/7/2014,16:31:43,,2,Session2,SessionsList,0,,-999999,14,741713,t,32208,773921,717875,2,1,2,3,,,,,3,1,3,,,,NonCued2,MiniBlocks1,,1084657,,,4,1,r,-999999,10,1137930,r,605,1138535,Green,Congruent,r,White,0,,0,14,1132933,,0,0,,,,,,,,,,,,,Pictures\white.bmp,4000,16000,Pictures\GreenLeft.bmp,,,,4,1,4,,,,,,,StimulusPr,Pictures\black.bmp,NonCuedStim2,Left
POP_2,27039,1,"<?xml version=""1.0""?>\n<Clock xmlns:dt=""urn:schemas-microsoft-com:datatypes""><Description dt:dt=""string"">E-Prime Primary Realtime Clock</Description><StartTime><Timestamp dt:dt=""int"">0</Timestamp><DateUtc dt:dt=""string"">2014-06-07T23:31:43Z</DateUtc></StartTime><FrequencyChanges><FrequencyChange><Frequency dt:dt=""r8"">2793040000</Frequency><Timestamp dt:dt=""r8"">1.06548007237086E+15</Timestamp><Current dt:dt=""r8"">0</Current><DateUtc dt:dt=""string"">2014-06-07T23:31:43Z</DateUtc></FrequencyChange></FrequencyChanges></Clock>\n",60.03,1,2047276437,0,,-999999,15,50960,t,42547,93507,6/7/2014,16:31:43,,2,Session2,SessionsList,0,,-999999,14,741713,t,32208,773921,717875,2,1,2,3,,,,,3,1,3,,,,NonCued2,MiniBlocks1,,1084657,,,5,1,r,-999999,15,1162934,r,424,1163358,Green,Congruent,r,White,0,,0,3,1155922,,0,0,,,,,,,,,,,,,Pictures\white.bmp,6000,4000,Pictures\GreenLeft.bmp,,,,5,1,5,,,,,,,StimulusPr,Pictures\black.bmp,NonCuedStim2,Left
POP_2,27039,1,"<?xml version=""1.0""?>\n<Clock xmlns:dt=""urn:schemas-microsoft-com:datatypes""><Description dt:dt=""string"">E-Prime Primary Realtime Clock</Description><StartTime><Timestamp dt:dt=""int"">0</Timestamp><DateUtc dt:dt=""string"">2014-06-07T23:31:43Z</DateUtc></StartTime><FrequencyChanges><FrequencyChange><Frequency dt:dt=""r8"">2793040000</Frequency><Timestamp dt:dt=""r8"">1.06548007237086E+15</Timestamp><Current dt:dt=""r8"">0</Current><DateUtc dt:dt=""string"">2014-06-07T23:31:43Z</DateUtc></FrequencyChange></FrequencyChanges></Clock>\n",60.03,1,2047276437,0,,-999999,15,50960,t,42547,93507,6/7/2014,16:31:43,,2,Session2,SessionsList,0,,-999999,14,741713,t,32208,773921,717875,2,1,2,3,,,,,3,1,3,,,,NonCued2,MiniBlocks1,,1084657,,,6,1,b,-999999,10,1172929,b,583,1173512,Red,Incongruent,b,White,0,,0,12,1168931,,0,0,,,,,,,,,,,,,Pictures\white.bmp,3000,4000,Pictures\RedLeft.bmp,,,,6,1,6,,,,,,,StimulusPr,Pictures\black.bmp,NonCuedStim2,Left
POP_2,27039,1,"<?xml version=""1.0""?>\n<Clock xmlns:dt=""urn:schemas-microsoft-com:datatypes""><Description dt:dt=""string"">E-Prime Primary Realtime Clock</Description><StartTime><Timestamp dt:dt=""int"">0</Timestamp><DateUtc dt:dt=""string"">2014-06-07T23:31:43Z</DateUtc></StartTime><FrequencyChanges><FrequencyChange><Frequency dt:dt=""r8"">2793040000</Frequency><Timestamp dt:dt=""r8"">1.06548007237086E+15</Timestamp><Current dt:dt=""r8"">0</Current><DateUtc dt:dt=""string"">2014-06-07T23:31:43Z</DateUtc></FrequencyChange></FrequencyChanges></Clock>\n",60.03,1,2047276437,0,,-999999,15,50960,t,42547,93507,6/7/2014,16:31:43,,2,Session2,SessionsList,0,,-999999,14,741713,t,32208,773921,717875,2,1,2,3,,,,,3,1,3,,,,NonCued2,MiniBlocks1,,1084657,,,7,1,b,-999999,5,1183924,b,549,1184473,Green,Congruent,b,White,0,,0,7,1178926,,0,0,,,,,,,,,,,,,Pictures\white.bmp,4000,16000,Pictures\black.bmp,,,,7,1,7,,,,,,,StimulusPr,Pictures\GreenRight.bmp,NonCuedStim2,Right
POP_2,27039,1,"<?xml version=""1.0""?>\n<Clock xmlns:dt=""urn:schemas-microsoft-com:datatypes""><Description dt:dt=""string"">E-Prime Primary Realtime Clock</Description><StartTime><Timestamp dt:dt=""int"">0</Timestamp><DateUtc dt:dt=""string"">2014-06-07T23:31:43Z</DateUtc></StartTime><FrequencyChanges><FrequencyChange><Frequency dt:dt=""r8"">2793040000</Frequency><Timestamp dt:dt=""r8"">1.06548007237086E+15</Timestamp><Current dt:dt=""r8"">0</Current><DateUtc dt:dt=""string"">2014-06-07T23:31:43Z</DateUtc></FrequencyChange></FrequencyChanges></Clock>\n",60.03,1,2047276437,0,,-999999,15,50960,t,42547,93507,6/7/2014,16:31:43,,2,Session2,SessionsList,0,,-999999,14,741713,t,32208,773921,717875,2,1,2,3,,,,,3,1,3,,,,NonCued2,MiniBlocks1,,1084657,,,8,1,r,-999999,7,1211926,r,399,1212325,Green,Congruent,r,White,0,,0,12,1201931,,0,0,,,,,,,,,,,,,Pictures\white.bmp,9000,2000,Pictures\GreenLeft.bmp,,,,8,1,8,,,,,,,StimulusPr,Pictures\black.bmp,NonCuedStim2,Left
POP_2,27039,1,"<?xml version=""1.0""?>\n<Clock xmlns:dt=""urn:schemas-microsoft-com:datatypes""><Description dt:dt=""string"">E-Prime Primary Realtime Clock</Description><StartTime><Timestamp dt:dt=""int"">0</Timestamp><DateUtc dt:dt=""string"">2014-06-07T23:31:43Z</DateUtc></StartTime><FrequencyChanges><FrequencyChange><Frequency dt:dt=""r8"">2793040000</Frequency><Timestamp dt:dt=""r8"">1.06548007237086E+15</Timestamp><Current dt:dt=""r8"">0</Current><DateUtc dt:dt=""string"">2014-06-07T23:31:43Z</DateUtc></FrequencyChange></FrequencyChanges></Clock>\n",60.03,1,2047276437,0,,-999999,15,50960,t,42547,93507,6/7/2014,16:31:43,,2,Session2,SessionsList,0,,-999999,14,741713,t,32208,773921,717875,2,1,2,3,,,,,3,1,3,,,,NonCued2,MiniBlocks1,,1084657,,,9,1,b,-999999,3,1219922,b,366,1220288,Green,Congruent,b,White,0,,0,5,1215924,,0,0,,,,,,,,,,,,,Pictures\white.bmp,3000,10000,Pictures\black.bmp,,,,9,1,9,,,,,,,StimulusPr,Pictures\GreenRight.bmp,NonCuedStim2,Right
POP_2,27039,1,"<?xml version=""1.0""?>\n<Clock xmlns:dt=""urn:schemas-microsoft-com:datatypes""><Description dt:dt=""string"">E-Prime Primary Realtime Clock</Description><StartTime><Timestamp dt:dt=""int"">0</Timestamp><DateUtc dt:dt=""string"">2014-06-07T23:31:43Z</DateUtc></StartTime><FrequencyChanges><FrequencyChange><Frequency dt:dt=""r8"">2793040000</Frequency><Timestamp dt:dt=""r8"">1.06548007237086E+15</Timestamp><Current dt:dt=""r8"">0</Current><DateUtc dt:dt=""string"">2014-06-07T23:31:43Z</DateUtc></FrequencyChange></FrequencyChanges></Clock>\n",60.03,1,2047276437,0,,-999999,15,50960,t,42547,93507,6/7/2014,16:31:43,,2,Session2,SessionsList,0,,-999999,14,741713,t,32208,773921,717875,2,1,2,3,,,,,3,1,3,,,,NonCued2,MiniBlocks1,,1084657,,,10,1,b,-999999,8,1235931,b,381,1236312,Green,Congruent,b,White,0,,0,14,1231933,,0,0,,,,,,,,,,,,,Pictures\white.bmp,3000,2000,Pictures\black.bmp,,,,10,1,10,,,,,,,StimulusPr,Pictures\GreenRight.bmp,NonCuedStim2,Right
POP_2,27039,1,"<?xml version=""1.0""?>\n<Clock xmlns:dt=""urn:schemas-microsoft-com:datatypes""><Description dt:dt=""string"">E-Prime Primary Realtime Clock</Description><StartTime><Timestamp dt:dt=""int"">0</Timestamp><DateUtc dt:dt=""string"">2014-06-07T23:31:43Z</DateUtc></StartTime><FrequencyChanges><FrequencyChange><Frequency dt:dt=""r8"">2793040000</Frequency><Timestamp dt:dt=""r8"">1.06548007237086E+15</Timestamp><Current dt:dt=""r8"">0</Current><DateUtc dt:dt=""string"">2014-06-07T23:31:43Z</DateUtc></FrequencyChange></FrequencyChanges></Clock>\n",60.03,1,2047276437,0,,-999999,15,50960,t,42547,93507,6/7/2014,16:31:43,,2,Session2,SessionsList,0,,-999999,14,741713,t,32208,773921,717875,2,1,2,4,,1238330,,,4,1,4,,,,Cued2,MiniBlocks1,,,,,1,1,b,-999999,15,1254938,b,345,1255283,White,Congruent,b,Green,0,,0,2,1247925,,0,0,,,,1,1,1,,,,,,,Pictures\green.bmp,6000,4000,Pictures\black.bmp,,,,,,,,,,,,,StimulusPr,Pictures\right.bmp,CuedStim2,Right
POP_2,27039,1,"<?xml version=""1.0""?>\n<Clock xmlns:dt=""urn:schemas-microsoft-com:datatypes""><Description dt:dt=""string"">E-Prime Primary Realtime Clock</Description><StartTime><Timestamp dt:dt=""int"">0</Timestamp><DateUtc dt:dt=""string"">2014-06-07T23:31:43Z</DateUtc></StartTime><FrequencyChanges><FrequencyChange><Frequency dt:dt=""r8"">2793040000</Frequency><Timestamp dt:dt=""r8"">1.06548007237086E+15</Timestamp><Current dt:dt=""r8"">0</Current><DateUtc dt:dt=""string"">2014-06-07T23:31:43Z</DateUtc></FrequencyChange></FrequencyChanges></Clock>\n",60.03,1,2047276437,0,,-999999,15,50960,t,42547,93507,6/7/2014,16:31:43,,2,Session2,SessionsList,0,,-999999,14,741713,t,32208,773921,717875,2,1,2,4,,1238330,,,4,1,4,,,,Cued2,MiniBlocks1,,,,,2,1,b,-999999,11,1270930,b,369,1271299,White,Congruent,b,Green,0,,0,12,1260935,,0,0,,,,2,1,2,,,,,,,Pictures\green.bmp,9000,10000,Pictures\black.bmp,,,,,,,,,,,,,StimulusPr,Pictures\right.bmp,CuedStim2,Right
POP_2,27039,1,"<?xml version=""1.0""?>\n<Clock xmlns:dt=""urn:schemas-microsoft-com:datatypes""><Description dt:dt=""string"">E-Prime Primary Realtime Clock</Description><StartTime><Timestamp dt:dt=""int"">0</Timestamp><DateUtc dt:dt=""string"">2014-06-07T23:31:43Z</DateUtc></StartTime><FrequencyChanges><FrequencyChange><Frequency dt:dt=""r8"">2793040000</Frequency><Timestamp dt:dt=""r8"">1.06548007237086E+15</Timestamp><Current dt:dt=""r8"">0</Current><DateUtc dt:dt=""string"">2014-06-07T23:31:43Z</DateUtc></FrequencyChange></FrequencyChanges></Clock>\n",60.03,1,2047276437,0,,-999999,15,50960,t,42547,93507,6/7/2014,16:31:43,,2,Session2,SessionsList,0,,-999999,14,741713,t,32208,773921,717875,2,1,2,4,,1238330,,,4,1,4,,,,Cued2,MiniBlocks1,,,,,3,1,r,-999999,3,1286922,r,463,1287385,White,Incongruent,r,Red,0,,0,5,1282924,,0,0,,,,3,1,3,,,,,,,Pictures\red.bmp,3000,2000,Pictures\black.bmp,,,,,,,,,,,,,StimulusPr,Pictures\right.bmp,CuedStim2,Right
POP_2,27039,1,"<?xml version=""1.0""?>\n<Clock xmlns:dt=""urn:schemas-microsoft-com:datatypes""><Description dt:dt=""string"">E-Prime Primary Realtime Clock</Description><StartTime><Timestamp dt:dt=""int"">0</Timestamp><DateUtc dt:dt=""string"">2014-06-07T23:31:43Z</DateUtc></StartTime><FrequencyChanges><FrequencyChange><Frequency dt:dt=""r8"">2793040000</Frequency><Timestamp dt:dt=""r8"">1.06548007237086E+15</Timestamp><Current dt:dt=""r8"">0</Current><DateUtc dt:dt=""string"">2014-06-07T23:31:43Z</DateUtc></FrequencyChange></FrequencyChanges></Clock>\n",60.03,1,2047276437,0,,-999999,15,50960,t,42547,93507,6/7/2014,16:31:43,,2,Session2,SessionsList,0,,-999999,14,741713,t,32208,773921,717875,2,1,2,4,,1238330,,,4,1,4,,,,Cued2,MiniBlocks1,,,,,4,1,r,-999999,14,1297933,r,364,1298297,White,Congruent,r,Green,0,,0,2,1290921,,0,0,,,,4,1,4,,,,,,,Pictures\green.bmp,6000,16000,Pictures\left.bmp,,,,,,,,,,,,,StimulusPr,Pictures\black.bmp,CuedStim2,Left
POP_2,27039,1,"<?xml version=""1.0""?>\n<Clock xmlns:dt=""urn:schemas-microsoft-com:datatypes""><Description dt:dt=""string"">E-Prime Primary Realtime Clock</Description><StartTime><Timestamp dt:dt=""int"">0</Timestamp><DateUtc dt:dt=""string"">2014-06-07T23:31:43Z</DateUtc></StartTime><FrequencyChanges><FrequencyChange><Frequency dt:dt=""r8"">2793040000</Frequency><Timestamp dt:dt=""r8"">1.06548007237086E+15</Timestamp><Current dt:dt=""r8"">0</Current><DateUtc dt:dt=""string"">2014-06-07T23:31:43Z</DateUtc></FrequencyChange></FrequencyChanges></Clock>\n",60.03,1,2047276437,0,,-999999,15,50960,t,42547,93507,6/7/2014,16:31:43,,2,Session2,SessionsList,0,,-999999,14,741713,t,32208,773921,717875,2,1,2,4,,1238330,,,4,1,4,,,,Cued2,MiniBlocks1,,,,,5,1,b,-999999,17,1319939,b,392,1320331,White,Congruent,b,Green,0,,0,5,1315924,,0,0,,,,5,1,5,,,,,,,Pictures\green.bmp,3000,2000,Pictures\black.bmp,,,,,,,,,,,,,StimulusPr,Pictures\right.bmp,CuedStim2,Right
POP_2,27039,1,"<?xml version=""1.0""?>\n<Clock xmlns:dt=""urn:schemas-microsoft-com:datatypes""><Description dt:dt=""string"">E-Prime Primary Realtime Clock</Description><StartTime><Timestamp dt:dt=""int"">0</Timestamp><DateUtc dt:dt=""string"">2014-06-07T23:31:43Z</DateUtc></StartTime><FrequencyChanges><FrequencyChange><Frequency dt:dt=""r8"">2793040000</Frequency><Timestamp dt:dt=""r8"">1.06548007237086E+15</Timestamp><Current dt:dt=""r8"">0</Current><DateUtc dt:dt=""string"">2014-06-07T23:31:43Z</DateUtc></FrequencyChange></FrequencyChanges></Clock>\n",60.03,1,2047276437,0,,-999999,15,50960,t,42547,93507,6/7/2014,16:31:43,,2,Session2,SessionsList,0,,-999999,14,741713,t,32208,773921,717875,2,1,2,4,,1238330,,,4,1,4,,,,Cued2,MiniBlocks1,,,,,6,1,r,-999999,13,1327935,r,370,1328305,White,Congruent,r,Green,0,,0,15,1323937,,0,0,,,,6,1,6,,,,,,,Pictures\green.bmp,3000,2000,Pictures\left.bmp,,,,,,,,,,,,,StimulusPr,Pictures\black.bmp,CuedStim2,Left
POP_2,27039,1,"<?xml version=""1.0""?>\n<Clock xmlns:dt=""urn:schemas-microsoft-com:datatypes""><Description dt:dt=""string"">E-Prime Primary Realtime Clock</Description><StartTime><Timestamp dt:dt=""int"">0</Timestamp><DateUtc dt:dt=""string"">2014-06-07T23:31:43Z</DateUtc></StartTime><FrequencyChanges><FrequencyChange><Frequency dt:dt=""r8"">2793040000</Frequency><Timestamp dt:dt=""r8"">1.06548007237086E+15</Timestamp><Current dt:dt=""r8"">0</Current><DateUtc dt:dt=""string"">2014-06-07T23:31:43Z</DateUtc></FrequencyChange></FrequencyChanges></Clock>\n",60.03,1,2047276437,0,,-999999,15,50960,t,42547,93507,6/7/2014,16:31:43,,2,Session2,SessionsList,0,,-999999,14,741713,t,32208,773921,717875,2,1,2,4,,1238330,,,4,1,4,,,,Cued2,MiniBlocks1,,,,,7,0,b,-999999,7,1338929,r,403,1339332,White,Incongruent,b,Red,0,,0,11,1331933,,0,0,,,,7,1,7,,,,,,,Pictures\red.bmp,6000,4000,Pictures\left.bmp,,,,,,,,,,,,,StimulusPr,Pictures\black.bmp,CuedStim2,Left
POP_2,27039,1,"<?xml version=""1.0""?>\n<Clock xmlns:dt=""urn:schemas-microsoft-com:datatypes""><Description dt:dt=""string"">E-Prime Primary Realtime Clock</Description><StartTime><Timestamp dt:dt=""int"">0</Timestamp><DateUtc dt:dt=""string"">2014-06-07T23:31:43Z</DateUtc></StartTime><FrequencyChanges><FrequencyChange><Frequency dt:dt=""r8"">2793040000</Frequency><Timestamp dt:dt=""r8"">1.06548007237086E+15</Timestamp><Current dt:dt=""r8"">0</Current><DateUtc dt:dt=""string"">2014-06-07T23:31:43Z</DateUtc></FrequencyChange></FrequencyChanges></Clock>\n",60.03,1,2047276437,0,,-999999,15,50960,t,42547,93507,6/7/2014,16:31:43,,2,Session2,SessionsList,0,,-999999,14,741713,t,32208,773921,717875,2,1,2,4,,1238330,,,4,1,4,,,,Cued2,MiniBlocks1,,,,,8,1,b,-999999,18,1349940,b,592,1350532,White,Congruent,b,Green,0,,0,4,1344926,,0,0,,,,8,1,8,,,,,,,Pictures\green.bmp,4000,4000,Pictures\black.bmp,,,,,,,,,,,,,StimulusPr,Pictures\right.bmp,CuedStim2,Right
POP_2,27039,1,"<?xml version=""1.0""?>\n<Clock xmlns:dt=""urn:schemas-microsoft-com:datatypes""><Description dt:dt=""string"">E-Prime Primary Realtime Clock</Description><StartTime><Timestamp dt:dt=""int"">0</Timestamp><DateUtc dt:dt=""string"">2014-06-07T23:31:43Z</DateUtc></StartTime><FrequencyChanges><FrequencyChange><Frequency dt:dt=""r8"">2793040000</Frequency><Timestamp dt:dt=""r8"">1.06548007237086E+15</Timestamp><Current dt:dt=""r8"">0</Current><DateUtc dt:dt=""string"">2014-06-07T23:31:43Z</DateUtc></FrequencyChange></FrequencyChanges></Clock>\n",60.03,1,2047276437,0,,-999999,15,50960,t,42547,93507,6/7/2014,16:31:43,,2,Session2,SessionsList,0,,-999999,14,741713,t,32208,773921,717875,2,1,2,4,,1238330,,,4,1,4,,,,Cued2,MiniBlocks1,,,,,9,1,b,-999999,14,1365932,b,397,1366329,White,Incongruent,b,Red,0,,0,15,1355937,,0,0,,,,9,1,9,,,,,,,Pictures\red.bmp,9000,10000,Pictures\left.bmp,,,,,,,,,,,,,StimulusPr,Pictures\black.bmp,CuedStim2,Left
POP_2,27039,1,"<?xml version=""1.0""?>\n<Clock xmlns:dt=""urn:schemas-microsoft-com:datatypes""><Description dt:dt=""string"">E-Prime Primary Realtime Clock</Description><StartTime><Timestamp dt:dt=""int"">0</Timestamp><DateUtc dt:dt=""string"">2014-06-07T23:31:43Z</DateUtc></StartTime><FrequencyChanges><FrequencyChange><Frequency dt:dt=""r8"">2793040000</Frequency><Timestamp dt:dt=""r8"">1.06548007237086E+15</Timestamp><Current dt:dt=""r8"">0</Current><DateUtc dt:dt=""string"">2014-06-07T23:31:43Z</DateUtc></FrequencyChange></FrequencyChanges></Clock>\n",60.03,1,2047276437,0,,-999999,15,50960,t,42547,93507,6/7/2014,16:31:43,,2,Session2,SessionsList,0,,-999999,14,741713,t,32208,773921,717875,2,1,2,4,,1238330,,,4,1,4,,,,Cued2,MiniBlocks1,,,,,10,1,r,-999999,3,1387921,r,686,1388607,White,Congruent,r,Green,0,,0,8,1377926,,0,0,,,,10,1,10,,,,,,,Pictures\green.bmp,9000,10000,Pictures\left.bmp,,,,,,,,,,,,,StimulusPr,Pictures\black.bmp,CuedStim2,Left
