ExperimentName,Subject,Session,Clock.Information,Display.RefreshRate,Group,RandomSeed,Session1Onset.ACC,Session1Onset.CRESP,Session1Onset.DurationError,Session1Onset.OnsetDelay,Session1Onset.OnsetTime,Session1Onset.RESP,Session1Onset.RT,Session1Onset.RTTime,SessionDate,SessionTime,SessionTimeUtc,Block,Procedure[Block],Running[Block],Session2Onset.ACC,Session2Onset.CRESP,Session2Onset.DurationError,Session2Onset.OnsetDelay,Session2Onset.OnsetTime,Session2Onset.RESP,Session2Onset.RT,Session2Onset.RTTime,SessionBreak.OnsetTime,SessionsList,SessionsList.Cycle,SessionsList.Sample,Trial,CuedPrompt1.OnsetTime,CuedPrompt2.OnsetTime,CuedPrompt3.OnsetTime,CuedPrompt4.OnsetTime,MiniBlocks1,MiniBlocks1.Cycle,MiniBlocks1.Sample,MiniBlocks2,MiniBlocks2.Cycle,MiniBlocks2.Sample,Procedure[Trial],Running[Trial],UncuedPrompt1.OnsetTime,UncuedPrompt2.OnsetTime,UncuedPrompt3.OnsetTime,UncuedPrompt4.OnsetTime,SubTrial,Arrow1.ACC,Arrow1.CRESP,Arrow1.DurationError,Arrow1.OnsetDelay,Arrow1.OnsetTime,Arrow1.RESP,Arrow1.RT,Arrow1.RTTime,ArrowColor,Congruence,CorrectResp,Cue,Cue.ACC,Cue.CRESP,Cue.DurationError,Cue.OnsetDelay,Cue.OnsetTime,Cue.RESP,Cue.RT,Cue.RTTime,CuedStim1,CuedStim1.Cycle,CuedStim1.Sample,CuedStim2,CuedStim2.Cycle,CuedStim2.Sample,CuedStim3,CuedStim3.Cycle,CuedStim3.Sample,CuedStim4,CuedStim4.Cycle,CuedStim4.Sample,CueImage,JitterCue,JitterTrial,LeftImage,NonCuedStim1,NonCuedStim1.Cycle,NonCuedStim1.Sample,NonCuedStim2,NonCuedStim2.Cycle,NonCuedStim2.Sample,NonCuedStim3,NonCuedStim3.Cycle,NonCuedStim3.Sample,NonCuedStim4,NonCuedStim4.Cycle,NonCuedStim4.Sample,Procedure[SubTrial],RightImage,Running[SubTrial],Stimulus
POP_2,16059,1,"<?xml version=""1.0""?>\n<Clock xmlns:dt=""urn:schemas-microsoft-com:datatypes""><Description dt:dt=""string"">E-Prime Primary Realtime Clock</Description><StartTime><Timestamp dt:dt=""int"">0</Timestamp><DateUtc dt:dt=""string"">2014-05-14T22:07:37Z</DateUtc></StartTime><FrequencyChanges><FrequencyChange><Frequency dt:dt=""r8"">2793030000</Frequency><Timestamp dt:dt=""r8"">1.72701197054844E+15</Timestamp><Current dt:dt=""r8"">0</Current><DateUtc dt:dt=""string"">2014-05-14T22:07:37Z</DateUtc></FrequencyChange></FrequencyChanges></Clock>\n",60.03,1,1853972574,0,,-999999,12,90533,t,48892,139425,5/14/2014,15:07:37,,1,Session1,SessionsList,,,,,,,,,,1,1,1,1,139426,,,,1,1,1,,,,Cued1,MiniBlocks1,,,,,1,1,r,-999999,18,153452,r,556,154008,White,Congruent,r,Green,0,,0,4,148438,,0,0,1,1,1,,,,,,,,,,Pictures\green.bmp,4000,4000,Pictures\left.bmp,,,,,,,,,,,,,StimulusPr,Pictures\black.bmp,CuedStim1,Left
POP_2,16059,1,"<?xml version=""1.0""?>\n<Clock xmlns:dt=""urn:schemas-microsoft-com:datatypes""><Description dt:dt=""string"">E-Prime Primary Realtime Clock</Description><StartTime><Timestamp dt:dt=""int"">0</Timestamp><DateUtc dt:dt=""string"">2014-05-14T22:07:37Z</DateUtc></StartTime><FrequencyChanges><FrequencyChange><Frequency dt:dt=""r8"">2793030000</Frequency><Timestamp dt:dt=""r8"">1.72701197054844E+15</Timestamp><Current dt:dt=""r8"">0</Current><DateUtc dt:dt=""string"">2014-05-14T22:07:37Z</DateUtc></FrequencyChange></FrequencyChanges></Clock>\n",60.03,1,1853972574,0,,-999999,12,90533,t,48892,139425,5/14/2014,15:07:37,,1,Session1,SessionsList,,,,,,,,,,1,1,1,1,139426,,,,1,1,1,,,,Cued1,MiniBlocks1,,,,,2,1,b,-999999,11,166445,b,544,166989,White,Congruent,b,Green,0,,0,9,159432,,0,0,2,1,2,,,,,,,,,,Pictures\green.bmp,6000,2000,Pictures\black.bmp,,,,,,,,,,,,,StimulusPr,Pictures\right.bmp,CuedStim1,Right
POP_2,16059,1,"<?xml version=""1.0""?>\n<Clock xmlns:dt=""urn:schemas-microsoft-com:datatypes""><Description dt:dt=""string"">E-Prime Primary Realtime Clock</Description><StartTime><Timestamp dt:dt=""int"">0</Timestamp><DateUtc dt:dt=""string"">2014-05-14T22:07:37Z</DateUtc></StartTime><FrequencyChanges><FrequencyChange><Frequency dt:dt=""r8"">2793030000</Frequency><Timestamp dt:dt=""r8"">1.72701197054844E+15</Timestamp><Current dt:dt=""r8"">0</Current><DateUtc dt:dt=""string"">2014-05-14T22:07:37Z</DateUtc></FrequencyChange></FrequencyChanges></Clock>\n",60.03,1,1853972574,0,,-999999,12,90533,t,48892,139425,5/14/2014,15:07:37,,1,Session1,SessionsList,,,,,,,,,,1,1,1,1,139426,,,,1,1,1,,,,Cued1,MiniBlocks1,,,,,3,1,b,-999999,15,174441,b,410,174851,White,Congruent,b,Green,0,,0,9,170443,,0,0,3,1,3,,,,,,,,,,Pictures\green.bmp,3000,2000,Pictures\black.bmp,,,,,,,,,,,,,StimulusPr,Pictures\right.bmp,CuedStim1,Right
POP_2,16059,1,"<?xml version=""1.0""?>\n<Clock xmlns:dt=""urn:schemas-microsoft-com:datatypes""><Description dt:dt=""string"">E-Prime Primary Realtime Clock</Description><StartTime><Timestamp dt:dt=""int"">0</Timestamp><DateUtc dt:dt=""string"">2014-05-14T22:07:37Z</DateUtc></StartTime><FrequencyChanges><FrequencyChange><Frequency dt:dt=""r8"">2793030000</Frequency><Timestamp dt:dt=""r8"">1.72701197054844E+15</Timestamp><Current dt:dt=""r8"">0</Current><DateUtc dt:dt=""string"">2014-05-14T22:07:37Z</DateUtc></FrequencyChange></FrequencyChanges></Clock>\n",60.03,1,1853972574,0,,-999999,12,90533,t,48892,139425,5/14/2014,15:07:37,,1,Session1,SessionsList,,,,,,,,,,1,1,1,1,139426,,,,1,1,1,,,,Cued1,MiniBlocks1,,,,,4,1,b,-999999,3,182437,b,675,183112,White,Incongruent,b,Red,0,,0,12,178439,,0,0,4,1,4,,,,,,,,,,Pictures\red.bmp,3000,16000,Pictures\left.bmp,,,,,,,,,,,,,StimulusPr,Pictures\black.bmp,CuedStim1,Left
POP_2,16059,1,"<?xml version=""1.0""?>\n<Clock xmlns:dt=""urn:schemas-microsoft-com:datatypes""><Description dt:dt=""string"">E-Prime Primary Realtime Clock</Description><StartTime><Timestamp dt:dt=""int"">0</Timestamp><DateUtc dt:dt=""string"">2014-05-14T22:07:37Z</DateUtc></StartTime><FrequencyChanges><FrequencyChange><Frequency dt:dt=""r8"">2793030000</Frequency><Timestamp dt:dt=""r8"">1.72701197054844E+15</Timestamp><Current dt:dt=""r8"">0</Current><DateUtc dt:dt=""string"">2014-05-14T22:07:37Z</DateUtc></FrequencyChange></FrequencyChanges></Clock>\n",60.03,1,1853972574,0,,-999999,12,90533,t,48892,139425,5/14/2014,15:07:37,,1,Session1,SessionsList,,,,,,,,,,1,1,1,1,139426,,,,1,1,1,,,,Cued1,MiniBlocks1,,,,,5,1,r,-999999,3,204426,r,705,205131,White,Congruent,r,Green,0,,0,12,200445,,0,0,5,1,5,,,,,,,,,,Pictures\green.bmp,3000,16000,Pictures\left.bmp,,,,,,,,,,,,,StimulusPr,Pictures\black.bmp,CuedStim1,Left
POP_2,16059,1,"<?xml version=""1.0""?>\n<Clock xmlns:dt=""urn:schemas-microsoft-com:datatypes""><Description dt:dt=""string"">E-Prime Primary Realtime Clock</Description><StartTime><Timestamp dt:dt=""int"">0</Timestamp><DateUtc dt:dt=""string"">2014-05-14T22:07:37Z</DateUtc></StartTime><FrequencyChanges><FrequencyChange><Frequency dt:dt=""r8"">2793030000</Frequency><Timestamp dt:dt=""r8"">1.72701197054844E+15</Timestamp><Current dt:dt=""r8"">0</Current><DateUtc dt:dt=""string"">2014-05-14T22:07:37Z</DateUtc></FrequencyChange></FrequencyChanges></Clock>\n",60.03,1,1853972574,0,,-999999,12,90533,t,48892,139425,5/14/2014,15:07:37,,1,Session1,SessionsList,,,,,,,,,,1,1,1,1,139426,,,,1,1,1,,,,Cued1,MiniBlocks1,,,,,6,1,r,-999999,12,232446,r,542,232988,White,Congruent,r,Green,0,,0,17,222451,,0,0,6,1,6,,,,,,,,,,Pictures\green.bmp,9000,10000,Pictures\left.bmp,,,,,,,,,,,,,StimulusPr,Pictures\black.bmp,CuedStim1,Left
POP_2,16059,1,"<?xml version=""1.0""?>\n<Clock xmlns:dt=""urn:schemas-microsoft-com:datatypes""><Description dt:dt=""string"">E-Prime Primary Realtime Clock</Description><StartTime><Timestamp dt:dt=""int"">0</Timestamp><DateUtc dt:dt=""string"">2014-05-14T22:07:37Z</DateUtc></StartTime><FrequencyChanges><FrequencyChange><Frequency dt:dt=""r8"">2793030000</Frequency><Timestamp dt:dt=""r8"">1.72701197054844E+15</Timestamp><Current dt:dt=""r8"">0</Current><DateUtc dt:dt=""string"">2014-05-14T22:07:37Z</DateUtc></FrequencyChange></FrequencyChanges></Clock>\n",60.03,1,1853972574,0,,-999999,12,90533,t,48892,139425,5/14/2014,15:07:37,,1,Session1,SessionsList,,,,,,,,,,1,1,1,1,139426,,,,1,1,1,,,,Cued1,MiniBlocks1,,,,,7,1,b,-999999,5,248438,b,516,248954,White,Congruent,b,Green,0,,0,6,244440,,0,0,7,1,7,,,,,,,,,,Pictures\green.bmp,3000,16000,Pictures\black.bmp,,,,,,,,,,,,,StimulusPr,Pictures\right.bmp,CuedStim1,Right
POP_2,16059,1,"<?xml version=""1.0""?>\n<Clock xmlns:dt=""urn:schemas-microsoft-com:datatypes""><Description dt:dt=""string"">E-Prime Primary Realtime Clock</Description><StartTime><Timestamp dt:dt=""int"">0</Timestamp><DateUtc dt:dt=""string"">2014-05-14T22:07:37Z</DateUtc></StartTime><FrequencyChanges><FrequencyChange><Frequency dt:dt=""r8"">2793030000</Frequency><Timestamp dt:dt=""r8"">1.72701197054844E+15</Timestamp><Current dt:dt=""r8"">0</Current><DateUtc dt:dt=""string"">2014-05-14T22:07:37Z</DateUtc></FrequencyChange></FrequencyChanges></Clock>\n",60.03,1,1853972574,0,,-999999,12,90533,t,48892,139425,5/14/2014,15:07:37,,1,Session1,SessionsList,,,,,,,,,,1,1,1,1,139426,,,,1,1,1,,,,Cued1,MiniBlocks1,,,,,8,1,r,-999999,10,271443,r,743,272186,White,Incongruent,r,Red,0,,0,6,266429,,0,0,8,1,8,,,,,,,,,,Pictures\red.bmp,4000,2000,Pictures\black.bmp,,,,,,,,,,,,,StimulusPr,Pictures\right.bmp,CuedStim1,Right
POP_2,16059,1,"<?xml version=""1.0""?>\n<Clock xmlns:dt=""urn:schemas-microsoft-com:datatypes""><Description dt:dt=""string"">E-Prime Primary Realtime Clock</Description><StartTime><Timestamp dt:dt=""int"">0</Timestamp><DateUtc dt:dt=""string"">2014-05-14T22:07:37Z</DateUtc></StartTime><FrequencyChanges><FrequencyChange><Frequency dt:dt=""r8"">2793030000</Frequency><Timestamp dt:dt=""r8"">1.72701197054844E+15</Timestamp><Current dt:dt=""r8"">0</Current><DateUtc dt:dt=""string"">2014-05-14T22:07:37Z</DateUtc></FrequencyChange></FrequencyChanges></Clock>\n",60.03,1,1853972574,0,,-999999,12,90533,t,48892,139425,5/14/2014,15:07:37,,1,Session1,SessionsList,,,,,,,,,,1,1,1,1,139426,,,,1,1,1,,,,Cued1,MiniBlocks1,,,,,9,1,b,-999999,18,280438,b,503,280941,White,Congruent,b,Green,0,,0,8,275441,,0,0,9,1,9,,,,,,,,,,Pictures\green.bmp,4000,2000,Pictures\black.bmp,,,,,,,,,,,,,StimulusPr,Pictures\right.bmp,CuedStim1,Right
POP_2,16059,1,"<?xml version=""1.0""?>\n<Clock xmlns:dt=""urn:schemas-microsoft-com:datatypes""><Description dt:dt=""string"">E-Prime Primary Realtime Clock</Description><StartTime><Timestamp dt:dt=""int"">0</Timestamp><DateUtc dt:dt=""string"">2014-05-14T22:07:37Z</DateUtc></StartTime><FrequencyChanges><FrequencyChange><Frequency dt:dt=""r8"">2793030000</Frequency><Timestamp dt:dt=""r8"">1.72701197054844E+15</Timestamp><Current dt:dt=""r8"">0</Current><DateUtc dt:dt=""string"">2014-05-14T22:07:37Z</DateUtc></FrequencyChange></FrequencyChanges></Clock>\n",60.03,1,1853972574,0,,-999999,12,90533,t,48892,139425,5/14/2014,15:07:37,,1,Session1,SessionsList,,,,,,,,,,1,1,1,1,139426,,,,1,1,1,,,,Cued1,MiniBlocks1,,,,,10,1,r,-999999,11,288434,r,386,288820,White,Congruent,r,Green,0,,0,3,284436,,0,0,10,1,10,,,,,,,,,,Pictures\green.bmp,3000,2000,Pictures\left.bmp,,,,,,,,,,,,,StimulusPr,Pictures\black.bmp,CuedStim1,Left
POP_2,16059,1,"<?xml version=""1.0""?>\n<Clock xmlns:dt=""urn:schemas-microsoft-com:datatypes""><Description dt:dt=""string"">E-Prime Primary Realtime Clock</Description><StartTime><Timestamp dt:dt=""int"">0</Timestamp><DateUtc dt:dt=""string"">2014-05-14T22:07:37Z</DateUtc></StartTime><FrequencyChanges><FrequencyChange><Frequency dt:dt=""r8"">2793030000</Frequency><Timestamp dt:dt=""r8"">1.72701197054844E+15</Timestamp><Current dt:dt=""r8"">0</Current><DateUtc dt:dt=""string"">2014-05-14T22:07:37Z</DateUtc></FrequencyChange></FrequencyChanges></Clock>\n",60.03,1,1853972574,0,,-999999,12,90533,t,48892,139425,5/14/2014,15:07:37,,1,Session1,SessionsList,,,,,,,,,,1,1,1,2,,,,,2,1,2,,,,NonCued1,MiniBlocks1,290850,,,,1,1,r,-999999,9,305443,r,645,306088,Green,Congruent,r,White,0,,0,5,300428,,0,0,,,,,,,,,,,,,Pictures\white.bmp,4000,2000,Pictures\GreenLeft.bmp,1,1,1,,,,,,,,,,StimulusPr,Pictures\black.bmp,NonCuedStim1,Left
POP_2,16059,1,"<?xml version=""1.0""?>\n<Clock xmlns:dt=""urn:schemas-microsoft-com:datatypes""><Description dt:dt=""string"">E-Prime Primary Realtime Clock</Description><StartTime><Timestamp dt:dt=""int"">0</Timestamp><DateUtc dt:dt=""string"">2014-05-14T22:07:37Z</DateUtc></StartTime><FrequencyChanges><FrequencyChange><Frequency dt:dt=""r8"">2793030000</Frequency><Timestamp dt:dt=""r8"">1.72701197054844E+15</Timestamp><Current dt:dt=""r8"">0</Current><DateUtc dt:dt=""string"">2014-05-14T22:07:37Z</DateUtc></FrequencyChange></FrequencyChanges></Clock>\n",60.03,1,1853972574,0,,-999999,12,90533,t,48892,139425,5/14/2014,15:07:37,,1,Session1,SessionsList,,,,,,,,,,1,1,1,2,,,,,2,1,2,,,,NonCued1,MiniBlocks1,290850,,,,2,1,b,-999999,3,316437,b,770,317207,Green,Congruent,b,White,0,,0,7,309441,,0,0,,,,,,,,,,,,,Pictures\white.bmp,6000,16000,Pictures\black.bmp,2,1,2,,,,,,,,,,StimulusPr,Pictures\GreenRight.bmp,NonCuedStim1,Right
POP_2,16059,1,"<?xml version=""1.0""?>\n<Clock xmlns:dt=""urn:schemas-microsoft-com:datatypes""><Description dt:dt=""string"">E-Prime Primary Realtime Clock</Description><StartTime><Timestamp dt:dt=""int"">0</Timestamp><DateUtc dt:dt=""string"">2014-05-14T22:07:37Z</DateUtc></StartTime><FrequencyChanges><FrequencyChange><Frequency dt:dt=""r8"">2793030000</Frequency><Timestamp dt:dt=""r8"">1.72701197054844E+15</Timestamp><Current dt:dt=""r8"">0</Current><DateUtc dt:dt=""string"">2014-05-14T22:07:37Z</DateUtc></FrequencyChange></FrequencyChanges></Clock>\n",60.03,1,1853972574,0,,-999999,12,90533,t,48892,139425,5/14/2014,15:07:37,,1,Session1,SessionsList,,,,,,,,,,1,1,1,2,,,,,2,1,2,,,,NonCued1,MiniBlocks1,290850,,,,3,1,r,-999999,2,341425,r,699,342124,Red,Incongruent,r,White,0,,0,5,334428,,0,0,,,,,,,,,,,,,Pictures\white.bmp,6000,10000,Pictures\black.bmp,3,1,3,,,,,,,,,,StimulusPr,Pictures\RedRight.bmp,NonCuedStim1,Right
POP_2,16059,1,"<?xml version=""1.0""?>\n<Clock xmlns:dt=""urn:schemas-microsoft-com:datatypes""><Description dt:dt=""string"">E-Prime Primary Realtime Clock</Description><StartTime><Timestamp dt:dt=""int"">0</Timestamp><DateUtc dt:dt=""string"">2014-05-14T22:07:37Z</DateUtc></StartTime><FrequencyChanges><FrequencyChange><Frequency dt:dt=""r8"">2793030000</Frequency><Timestamp dt:dt=""r8"">1.72701197054844E+15</Timestamp><Current dt:dt=""r8"">0</Current><DateUtc dt:dt=""string"">2014-05-14T22:07:37Z</DateUtc></FrequencyChange></FrequencyChanges></Clock>\n",60.03,1,1853972574,0,,-999999,12,90533,t,48892,139425,5/14/2014,15:07:37,,1,Session1,SessionsList,,,,,,,,,,1,1,1,2,,,,,2,1,2,,,,NonCued1,MiniBlocks1,290850,,,,4,1,r,-999999,14,363447,r,631,364078,Green,Congruent,r,White,0,,0,2,353435,,0,0,,,,,,,,,,,,,Pictures\white.bmp,9000,10000,Pictures\GreenLeft.bmp,4,1,4,,,,,,,,,,StimulusPr,Pictures\black.bmp,NonCuedStim1,Left
POP_2,16059,1,"<?xml version=""1.0""?>\n<Clock xmlns:dt=""urn:schemas-microsoft-com:datatypes""><Description dt:dt=""string"">E-Prime Primary Realtime Clock</Description><StartTime><Timestamp dt:dt=""int"">0</Timestamp><DateUtc dt:dt=""string"">2014-05-14T22:07:37Z</DateUtc></StartTime><FrequencyChanges><FrequencyChange><Frequency dt:dt=""r8"">2793030000</Frequency><Timestamp dt:dt=""r8"">1.72701197054844E+15</Timestamp><Current dt:dt=""r8"">0</Current><DateUtc dt:dt=""string"">2014-05-14T22:07:37Z</DateUtc></FrequencyChange></FrequencyChanges></Clock>\n",60.03,1,1853972574,0,,-999999,12,90533,t,48892,139425,5/14/2014,15:07:37,,1,Session1,SessionsList,,,,,,,,,,1,1,1,2,,,,,2,1,2,,,,NonCued1,MiniBlocks1,290850,,,,5,1,b,-999999,7,379422,b,793,380215,Green,Congruent,b,White,0,,0,8,375441,,0,0,,,,,,,,,,,,,Pictures\white.bmp,3000,2000,Pictures\black.bmp,5,1,5,,,,,,,,,,StimulusPr,Pictures\GreenRight.bmp,NonCuedStim1,Right
POP_2,16059,1,"<?xml version=""1.0""?>\n<Clock xmlns:dt=""urn:schemas-microsoft-com:datatypes""><Description dt:dt=""string"">E-Prime Primary Realtime Clock</Description><StartTime><Timestamp dt:dt=""int"">0</Timestamp><DateUtc dt:dt=""string"">2014-05-14T22:07:37Z</DateUtc></StartTime><FrequencyChanges><FrequencyChange><Frequency dt:dt=""r8"">2793030000</Frequency><Timestamp dt:dt=""r8"">1.72701197054844E+15</Timestamp><Current dt:dt=""r8"">0</Current><DateUtc dt:dt=""string"">2014-05-14T22:07:37Z</DateUtc></FrequencyChange></FrequencyChanges></Clock>\n",60.03,1,1853972574,0,,-999999,12,90533,t,48892,139425,5/14/2014,15:07:37,,1,Session1,SessionsList,,,,,,,,,,1,1,1,2,,,,,2,1,2,,,,NonCued1,MiniBlocks1,290850,,,,6,1,b,-999999,11,388434,b,620,389054,Red,Incongruent,b,White,0,,0,14,383437,,0,0,,,,,,,,,,,,,Pictures\white.bmp,4000,16000,Pictures\RedLeft.bmp,6,1,6,,,,,,,,,,StimulusPr,Pictures\black.bmp,NonCuedStim1,Left
POP_2,16059,1,"<?xml version=""1.0""?>\n<Clock xmlns:dt=""urn:schemas-microsoft-com:datatypes""><Description dt:dt=""string"">E-Prime Primary Realtime Clock</Description><StartTime><Timestamp dt:dt=""int"">0</Timestamp><DateUtc dt:dt=""string"">2014-05-14T22:07:37Z</DateUtc></StartTime><FrequencyChanges><FrequencyChange><Frequency dt:dt=""r8"">2793030000</Frequency><Timestamp dt:dt=""r8"">1.72701197054844E+15</Timestamp><Current dt:dt=""r8"">0</Current><DateUtc dt:dt=""string"">2014-05-14T22:07:37Z</DateUtc></FrequencyChange></FrequencyChanges></Clock>\n",60.03,1,1853972574,0,,-999999,12,90533,t,48892,139425,5/14/2014,15:07:37,,1,Session1,SessionsList,,,,,,,,,,1,1,1,2,,,,,2,1,2,,,,NonCued1,MiniBlocks1,290850,,,,7,1,b,-999999,12,410440,b,592,411032,Green,Congruent,b,White,0,,0,14,406442,,0,0,,,,,,,,,,,,,Pictures\white.bmp,3000,4000,Pictures\black.bmp,7,1,7,,,,,,,,,,StimulusPr,Pictures\GreenRight.bmp,NonCuedStim1,Right
POP_2,16059,1,"<?xml version=""1.0""?>\n<Clock xmlns:dt=""urn:schemas-microsoft-com:datatypes""><Description dt:dt=""string"">E-Prime Primary Realtime Clock</Description><StartTime><Timestamp dt:dt=""int"">0</Timestamp><DateUtc dt:dt=""string"">2014-05-14T22:07:37Z</DateUtc></StartTime><FrequencyChanges><FrequencyChange><Frequency dt:dt=""r8"">2793030000</Frequency><Timestamp dt:dt=""r8"">1.72701197054844E+15</Timestamp><Current dt:dt=""r8"">0</Current><DateUtc dt:dt=""string"">2014-05-14T22:07:37Z</DateUtc></FrequencyChange></FrequencyChanges></Clock>\n",60.03,1,1853972574,0,,-999999,12,90533,t,48892,139425,5/14/2014,15:07:37,,1,Session1,SessionsList,,,,,,,,,,1,1,1,2,,,,,2,1,2,,,,NonCued1,MiniBlocks1,290850,,,,8,1,b,-999999,12,420435,b,466,420901,Green,Congruent,b,White,0,,0,8,416437,,0,0,,,,,,,,,,,,,Pictures\white.bmp,3000,4000,Pictures\black.bmp,8,1,8,,,,,,,,,,StimulusPr,Pictures\GreenRight.bmp,NonCuedStim1,Right
POP_2,16059,1,"<?xml version=""1.0""?>\n<Clock xmlns:dt=""urn:schemas-microsoft-com:datatypes""><Description dt:dt=""string"">E-Prime Primary Realtime Clock</Description><StartTime><Timestamp dt:dt=""int"">0</Timestamp><DateUtc dt:dt=""string"">2014-05-14T22:07:37Z</DateUtc></StartTime><FrequencyChanges><FrequencyChange><Frequency dt:dt=""r8"">2793030000</Frequency><Timestamp dt:dt=""r8"">1.72701197054844E+15</Timestamp><Current dt:dt=""r8"">0</Current><DateUtc dt:dt=""string"">2014-05-14T22:07:37Z</DateUtc></FrequencyChange></FrequencyChanges></Clock>\n",60.03,1,1853972574,0,,-999999,12,90533,t,48892,139425,5/14/2014,15:07:37,,1,Session1,SessionsList,,,,,,,,,,1,1,1,2,,,,,2,1,2,,,,NonCued1,MiniBlocks1,290850,,,,9,1,b,-999999,10,436427,b,646,437073,Red,Incongruent,b,White,0,,0,13,426432,,0,0,,,,,,,,,,,,,Pictures\white.bmp,9000,2000,Pictures\RedLeft.bmp,9,1,9,,,,,,,,,,StimulusPr,Pictures\black.bmp,NonCuedStim1,Left
POP_2,16059,1,"<?xml version=""1.0""?>\n<Clock xmlns:dt=""urn:schemas-microsoft-com:datatypes""><Description dt:dt=""string"">E-Prime Primary Realtime Clock</Description><StartTime><Timestamp dt:dt=""int"">0</Timestamp><DateUtc dt:dt=""string"">2014-05-14T22:07:37Z</DateUtc></StartTime><FrequencyChanges><FrequencyChange><Frequency dt:dt=""r8"">2793030000</Frequency><Timestamp dt:dt=""r8"">1.72701197054844E+15</Timestamp><Current dt:dt=""r8"">0</Current><DateUtc dt:dt=""string"">2014-05-14T22:07:37Z</DateUtc></FrequencyChange></FrequencyChanges></Clock>\n",60.03,1,1853972574,0,,-999999,12,90533,t,48892,139425,5/14/2014,15:07:37,,1,Session1,SessionsList,,,,,,,,,,1,1,1,2,,,,,2,1,2,,,,NonCued1,MiniBlocks1,290850,,,,10,1,r,-999999,11,447438,r,737,448175,Green,Congruent,r,White,0,,0,8,440442,,0,0,,,,,,,,,,,,,Pictures\white.bmp,6000,2000,Pictures\GreenLeft.bmp,10,1,10,,,,,,,,,,StimulusPr,Pictures\black.bmp,NonCuedStim1,Left
POP_2,16059,1,"<?xml version=""1.0""?>\n<Clock xmlns:dt=""urn:schemas-microsoft-com:datatypes""><Description dt:dt=""string"">E-Prime Primary Realtime Clock</Description><StartTime><Timestamp dt:dt=""int"">0</Timestamp><DateUtc dt:dt=""string"">2014-05-14T22:07:37Z</DateUtc></StartTime><FrequencyChanges><FrequencyChange><Frequency dt:dt=""r8"">2793030000</Frequency><Timestamp dt:dt=""r8"">1.72701197054844E+15</Timestamp><Current dt:dt=""r8"">0</Current><DateUtc dt:dt=""string"">2014-05-14T22:07:37Z</DateUtc></FrequencyChange></FrequencyChanges></Clock>\n",60.03,1,1853972574,0,,-999999,12,90533,t,48892,139425,5/14/2014,15:07:37,,1,Session1,SessionsList,,,,,,,,,,1,1,1,3,,,,,3,1,3,,,,NonCued2,MiniBlocks1,,450204,,,1,1,b,-999999,6,470427,b,573,471000,Green,Congruent,b,White,0,,0,16,460449,,0,0,,,,,,,,,,,,,Pictures\white.bmp,9000,10000,Pictures\black.bmp,,,,1,1,1,,,,,,,StimulusPr,Pictures\GreenRight.bmp,NonCuedStim2,Right
POP_2,16059,1,"<?xml version=""1.0""?>\n<Clock xmlns:dt=""urn:schemas-microsoft-com:datatypes""><Description dt:dt=""string"">E-Prime Primary Realtime Clock</Description><StartTime><Timestamp dt:dt=""int"">0</Timestamp><DateUtc dt:dt=""string"">2014-05-14T22:07:37Z</DateUtc></StartTime><FrequencyChanges><FrequencyChange><Frequency dt:dt=""r8"">2793030000</Frequency><Timestamp dt:dt=""r8"">1.72701197054844E+15</Timestamp><Current dt:dt=""r8"">0</Current><DateUtc dt:dt=""string"">2014-05-14T22:07:37Z</DateUtc></FrequencyChange></FrequencyChanges></Clock>\n",60.03,1,1853972574,0,,-999999,12,90533,t,48892,139425,5/14/2014,15:07:37,,1,Session1,SessionsList,,,,,,,,,,1,1,1,3,,,,,3,1,3,,,,NonCued2,MiniBlocks1,,450204,,,2,1,r,-999999,18,486452,r,617,487069,Green,Congruent,r,White,0,,0,15,482438,,0,0,,,,,,,,,,,,,Pictures\white.bmp,3000,2000,Pictures\GreenLeft.bmp,,,,2,1,2,,,,,,,StimulusPr,Pictures\black.bmp,NonCuedStim2,Left
POP_2,16059,1,"<?xml version=""1.0""?>\n<Clock xmlns:dt=""urn:schemas-microsoft-com:datatypes""><Description dt:dt=""string"">E-Prime Primary Realtime Clock</Description><StartTime><Timestamp dt:dt=""int"">0</Timestamp><DateUtc dt:dt=""string"">2014-05-14T22:07:37Z</DateUtc></StartTime><FrequencyChanges><FrequencyChange><Frequency dt:dt=""r8"">2793030000</Frequency><Timestamp dt:dt=""r8"">1.72701197054844E+15</Timestamp><Current dt:dt=""r8"">0</Current><DateUtc dt:dt=""string"">2014-05-14T22:07:37Z</DateUtc></FrequencyChange></FrequencyChanges></Clock>\n",60.03,1,1853972574,0,,-999999,12,90533,t,48892,139425,5/14/2014,15:07:37,,1,Session1,SessionsList,,,,,,,,,,1,1,1,3,,,,,3,1,3,,,,NonCued2,MiniBlocks1,,450204,,,3,0,r,-999999,3,494432,b,482,494914,Red,Incongruent,r,White,0,,0,8,490434,,0,0,,,,,,,,,,,,,Pictures\white.bmp,3000,2000,Pictures\black.bmp,,,,3,1,3,,,,,,,StimulusPr,Pictures\RedRight.bmp,NonCuedStim2,Right
POP_2,16059,1,"<?xml version=""1.0""?>\n<Clock xmlns:dt=""urn:schemas-microsoft-com:datatypes""><Description dt:dt=""string"">E-Prime Primary Realtime Clock</Description><StartTime><Timestamp dt:dt=""int"">0</Timestamp><DateUtc dt:dt=""string"">2014-05-14T22:07:37Z</DateUtc></StartTime><FrequencyChanges><FrequencyChange><Frequency dt:dt=""r8"">2793030000</Frequency><Timestamp dt:dt=""r8"">1.72701197054844E+15</Timestamp><Current dt:dt=""r8"">0</Current><DateUtc dt:dt=""string"">2014-05-14T22:07:37Z</DateUtc></FrequencyChange></FrequencyChanges></Clock>\n",60.03,1,1853972574,0,,-999999,12,90533,t,48892,139425,5/14/2014,15:07:37,,1,Session1,SessionsList,,,,,,,,,,1,1,1,3,,,,,3,1,3,,,,NonCued2,MiniBlocks1,,450204,,,4,1,r,-999999,10,503444,r,541,503985,Green,Congruent,r,White,0,,0,12,498446,,0,0,,,,,,,,,,,,,Pictures\white.bmp,4000,16000,Pictures\GreenLeft.bmp,,,,4,1,4,,,,,,,StimulusPr,Pictures\black.bmp,NonCuedStim2,Left
POP_2,16059,1,"<?xml version=""1.0""?>\n<Clock xmlns:dt=""urn:schemas-microsoft-com:datatypes""><Description dt:dt=""string"">E-Prime Primary Realtime Clock</Description><StartTime><Timestamp dt:dt=""int"">0</Timestamp><DateUtc dt:dt=""string"">2014-05-14T22:07:37Z</DateUtc></StartTime><FrequencyChanges><FrequencyChange><Frequency dt:dt=""r8"">2793030000</Frequency><Timestamp dt:dt=""r8"">1.72701197054844E+15</Timestamp><Current dt:dt=""r8"">0</Current><DateUtc dt:dt=""string"">2014-05-14T22:07:37Z</DateUtc></FrequencyChange></FrequencyChanges></Clock>\n",60.03,1,1853972574,0,,-999999,12,90533,t,48892,139425,5/14/2014,15:07:37,,1,Session1,SessionsList,,,,,,,,,,1,1,1,3,,,,,3,1,3,,,,NonCued2,MiniBlocks1,,450204,,,5,1,r,-999999,11,528431,r,494,528925,Green,Congruent,r,White,0,,0,15,521435,,0,0,,,,,,,,,,,,,Pictures\white.bmp,6000,4000,Pictures\GreenLeft.bmp,,,,5,1,5,,,,,,,StimulusPr,Pictures\black.bmp,NonCuedStim2,Left
POP_2,16059,1,"<?xml version=""1.0""?>\n<Clock xmlns:dt=""urn:schemas-microsoft-com:datatypes""><Description dt:dt=""string"">E-Prime Primary Realtime Clock</Description><StartTime><Timestamp dt:dt=""int"">0</Timestamp><DateUtc dt:dt=""string"">2014-05-14T22:07:37Z</DateUtc></StartTime><FrequencyChanges><FrequencyChange><Frequency dt:dt=""r8"">2793030000</Frequency><Timestamp dt:dt=""r8"">1.72701197054844E+15</Timestamp><Current dt:dt=""r8"">0</Current><DateUtc dt:dt=""string"">2014-05-14T22:07:37Z</DateUtc></FrequencyChange></FrequencyChanges></Clock>\n",60.03,1,1853972574,0,,-999999,12,90533,t,48892,139425,5/14/2014,15:07:37,,1,Session1,SessionsList,,,,,,,,,,1,1,1,3,,,,,3,1,3,,,,NonCued2,MiniBlocks1,,450204,,,6,1,b,-999999,10,538443,b,539,538982,Red,Incongruent,b,White,0,,0,12,534445,,0,0,,,,,,,,,,,,,Pictures\white.bmp,3000,4000,Pictures\RedLeft.bmp,,,,6,1,6,,,,,,,StimulusPr,Pictures\black.bmp,NonCuedStim2,Left
POP_2,16059,1,"<?xml version=""1.0""?>\n<Clock xmlns:dt=""urn:schemas-microsoft-com:datatypes""><Description dt:dt=""string"">E-Prime Primary Realtime Clock</Description><StartTime><Timestamp dt:dt=""int"">0</Timestamp><DateUtc dt:dt=""string"">2014-05-14T22:07:37Z</DateUtc></StartTime><FrequencyChanges><FrequencyChange><Frequency dt:dt=""r8"">2793030000</Frequency><Timestamp dt:dt=""r8"">1.72701197054844E+15</Timestamp><Current dt:dt=""r8"">0</Current><DateUtc dt:dt=""string"">2014-05-14T22:07:37Z</DateUtc></FrequencyChange></FrequencyChanges></Clock>\n",60.03,1,1853972574,0,,-999999,12,90533,t,48892,139425,5/14/2014,15:07:37,,1,Session1,SessionsList,,,,,,,,,,1,1,1,3,,,,,3,1,3,,,,NonCued2,MiniBlocks1,,450204,,,7,1,b,-999999,4,549437,b,487,549924,Green,Congruent,b,White,0,,0,3,544423,,0,0,,,,,,,,,,,,,Pictures\white.bmp,4000,16000,Pictures\black.bmp,,,,7,1,7,,,,,,,StimulusPr,Pictures\GreenRight.bmp,NonCuedStim2,Right
POP_2,16059,1,"<?xml version=""1.0""?>\n<Clock xmlns:dt=""urn:schemas-microsoft-com:datatypes""><Description dt:dt=""string"">E-Prime Primary Realtime Clock</Description><StartTime><Timestamp dt:dt=""int"">0</Timestamp><DateUtc dt:dt=""string"">2014-05-14T22:07:37Z</DateUtc></StartTime><FrequencyChanges><FrequencyChange><Frequency dt:dt=""r8"">2793030000</Frequency><Timestamp dt:dt=""r8"">1.72701197054844E+15</Timestamp><Current dt:dt=""r8"">0</Current><DateUtc dt:dt=""string"">2014-05-14T22:07:37Z</DateUtc></FrequencyChange></FrequencyChanges></Clock>\n",60.03,1,1853972574,0,,-999999,12,90533,t,48892,139425,5/14/2014,15:07:37,,1,Session1,SessionsList,,,,,,,,,,1,1,1,3,,,,,3,1,3,,,,NonCued2,MiniBlocks1,,450204,,,8,1,r,-999999,8,577423,r,801,578224,Green,Congruent,r,White,0,,0,11,567428,,0,0,,,,,,,,,,,,,Pictures\white.bmp,9000,2000,Pictures\GreenLeft.bmp,,,,8,1,8,,,,,,,StimulusPr,Pictures\black.bmp,NonCuedStim2,Left
POP_2,16059,1,"<?xml version=""1.0""?>\n<Clock xmlns:dt=""urn:schemas-microsoft-com:datatypes""><Description dt:dt=""string"">E-Prime Primary Realtime Clock</Description><StartTime><Timestamp dt:dt=""int"">0</Timestamp><DateUtc dt:dt=""string"">2014-05-14T22:07:37Z</DateUtc></StartTime><FrequencyChanges><FrequencyChange><Frequency dt:dt=""r8"">2793030000</Frequency><Timestamp dt:dt=""r8"">1.72701197054844E+15</Timestamp><Current dt:dt=""r8"">0</Current><DateUtc dt:dt=""string"">2014-05-14T22:07:37Z</DateUtc></FrequencyChange></FrequencyChanges></Clock>\n",60.03,1,1853972574,0,,-999999,12,90533,t,48892,139425,5/14/2014,15:07:37,,1,Session1,SessionsList,,,,,,,,,,1,1,1,3,,,,,3,1,3,,,,NonCued2,MiniBlocks1,,450204,,,9,1,b,-999999,19,585453,b,760,586213,Green,Congruent,b,White,0,,0,4,581438,,0,0,,,,,,,,,,,,,Pictures\white.bmp,3000,10000,Pictures\black.bmp,,,,9,1,9,,,,,,,StimulusPr,Pictures\GreenRight.bmp,NonCuedStim2,Right
POP_2,16059,1,"<?xml version=""1.0""?>\n<Clock xmlns:dt=""urn:schemas-microsoft-com:datatypes""><Description dt:dt=""string"">E-Prime Primary Realtime Clock</Description><StartTime><Timestamp dt:dt=""int"">0</Timestamp><DateUtc dt:dt=""string"">2014-05-14T22:07:37Z</DateUtc></StartTime><FrequencyChanges><FrequencyChange><Frequency dt:dt=""r8"">2793030000</Frequency><Timestamp dt:dt=""r8"">1.72701197054844E+15</Timestamp><Current dt:dt=""r8"">0</Current><DateUtc dt:dt=""string"">2014-05-14T22:07:37Z</DateUtc></FrequencyChange></FrequencyChanges></Clock>\n",60.03,1,1853972574,0,,-999999,12,90533,t,48892,139425,5/14/2014,15:07:37,,1,Session1,SessionsList,,,,,,,,,,1,1,1,3,,,,,3,1,3,,,,NonCued2,MiniBlocks1,,450204,,,10,1,b,-999999,16,601445,b,598,602043,Green,Congruent,b,White,0,,0,9,597430,,0,0,,,,,,,,,,,,,Pictures\white.bmp,3000,2000,Pictures\black.bmp,,,,10,1,10,,,,,,,StimulusPr,Pictures\GreenRight.bmp,NonCuedStim2,Right
POP_2,16059,1,"<?xml version=""1.0""?>\n<Clock xmlns:dt=""urn:schemas-microsoft-com:datatypes""><Description dt:dt=""string"">E-Prime Primary Realtime Clock</Description><StartTime><Timestamp dt:dt=""int"">0</Timestamp><DateUtc dt:dt=""string"">2014-05-14T22:07:37Z</DateUtc></StartTime><FrequencyChanges><FrequencyChange><Frequency dt:dt=""r8"">2793030000</Frequency><Timestamp dt:dt=""r8"">1.72701197054844E+15</Timestamp><Current dt:dt=""r8"">0</Current><DateUtc dt:dt=""string"">2014-05-14T22:07:37Z</DateUtc></FrequencyChange></FrequencyChanges></Clock>\n",60.03,1,1853972574,0,,-999999,12,90533,t,48892,139425,5/14/2014,15:07:37,,1,Session1,SessionsList,,,,,,,,,,1,1,1,4,,604060,,,4,1,4,,,,Cued2,MiniBlocks1,,,,,1,1,b,-999999,13,621435,b,876,622311,White,Congruent,b,Green,0,,0,16,614438,,0,0,,,,1,1,1,,,,,,,Pictures\green.bmp,6000,4000,Pictures\black.bmp,,,,,,,,,,,,,StimulusPr,Pictures\right.bmp,CuedStim2,Right
POP_2,16059,1,"<?xml version=""1.0""?>\n<Clock xmlns:dt=""urn:schemas-microsoft-com:datatypes""><Description dt:dt=""string"">E-Prime Primary Realtime Clock</Description><StartTime><Timestamp dt:dt=""int"">0</Timestamp><DateUtc dt:dt=""string"">2014-05-14T22:07:37Z</DateUtc></StartTime><FrequencyChanges><FrequencyChange><Frequency dt:dt=""r8"">2793030000</Frequency><Timestamp dt:dt=""r8"">1.72701197054844E+15</Timestamp><Current dt:dt=""r8"">0</Current><DateUtc dt:dt=""string"">2014-05-14T22:07:37Z</DateUtc></FrequencyChange></FrequencyChanges></Clock>\n",60.03,1,1853972574,0,,-999999,12,90533,t,48892,139425,5/14/2014,15:07:37,,1,Session1,SessionsList,,,,,,,,,,1,1,1,4,,604060,,,4,1,4,,,,Cued2,MiniBlocks1,,,,,2,1,b,-999999,5,637427,b,1204,638631,White,Congruent,b,Green,0,,0,14,627448,,0,0,,,,2,1,2,,,,,,,Pictures\green.bmp,9000,10000,Pictures\black.bmp,,,,,,,,,,,,,StimulusPr,Pictures\right.bmp,CuedStim2,Right
POP_2,16059,1,"<?xml version=""1.0""?>\n<Clock xmlns:dt=""urn:schemas-microsoft-com:datatypes""><Description dt:dt=""string"">E-Prime Primary Realtime Clock</Description><StartTime><Timestamp dt:dt=""int"">0</Timestamp><DateUtc dt:dt=""string"">2014-05-14T22:07:37Z</DateUtc></StartTime><FrequencyChanges><FrequencyChange><Frequency dt:dt=""r8"">2793030000</Frequency><Timestamp dt:dt=""r8"">1.72701197054844E+15</Timestamp><Current dt:dt=""r8"">0</Current><DateUtc dt:dt=""string"">2014-05-14T22:07:37Z</DateUtc></FrequencyChange></FrequencyChanges></Clock>\n",60.03,1,1853972574,0,,-999999,12,90533,t,48892,139425,5/14/2014,15:07:37,,1,Session1,SessionsList,,,,,,,,,,1,1,1,4,,604060,,,4,1,4,,,,Cued2,MiniBlocks1,,,,,3,1,r,-999999,13,654435,r,701,655136,White,Incongruent,r,Red,0,,0,14,650437,,0,0,,,,3,1,3,,,,,,,Pictures\red.bmp,3000,2000,Pictures\black.bmp,,,,,,,,,,,,,StimulusPr,Pictures\right.bmp,CuedStim2,Right
POP_2,16059,1,"<?xml version=""1.0""?>\n<Clock xmlns:dt=""urn:schemas-microsoft-com:datatypes""><Description dt:dt=""string"">E-Prime Primary Realtime Clock</Description><StartTime><Timestamp dt:dt=""int"">0</Timestamp><DateUtc dt:dt=""string"">2014-05-14T22:07:37Z</DateUtc></StartTime><FrequencyChanges><FrequencyChange><Frequency dt:dt=""r8"">2793030000</Frequency><Timestamp dt:dt=""r8"">1.72701197054844E+15</Timestamp><Current dt:dt=""r8"">0</Current><DateUtc dt:dt=""string"">2014-05-14T22:07:37Z</DateUtc></FrequencyChange></FrequencyChanges></Clock>\n",60.03,1,1853972574,0,,-999999,12,90533,t,48892,139425,5/14/2014,15:07:37,,1,Session1,SessionsList,,,,,,,,,,1,1,1,4,,604060,,,4,1,4,,,,Cued2,MiniBlocks1,,,,,4,1,r,-999999,12,665446,r,1248,666694,White,Congruent,r,Green,0,,0,16,658450,,0,0,,,,4,1,4,,,,,,,Pictures\green.bmp,6000,16000,Pictures\left.bmp,,,,,,,,,,,,,StimulusPr,Pictures\black.bmp,CuedStim2,Left
POP_2,16059,1,"<?xml version=""1.0""?>\n<Clock xmlns:dt=""urn:schemas-microsoft-com:datatypes""><Description dt:dt=""string"">E-Prime Primary Realtime Clock</Description><StartTime><Timestamp dt:dt=""int"">0</Timestamp><DateUtc dt:dt=""string"">2014-05-14T22:07:37Z</DateUtc></StartTime><FrequencyChanges><FrequencyChange><Frequency dt:dt=""r8"">2793030000</Frequency><Timestamp dt:dt=""r8"">1.72701197054844E+15</Timestamp><Current dt:dt=""r8"">0</Current><DateUtc dt:dt=""string"">2014-05-14T22:07:37Z</DateUtc></FrequencyChange></FrequencyChanges></Clock>\n",60.03,1,1853972574,0,,-999999,12,90533,t,48892,139425,5/14/2014,15:07:37,,1,Session1,SessionsList,,,,,,,,,,1,1,1,4,,604060,,,4,1,4,,,,Cued2,MiniBlocks1,,,,,5,1,b,-999999,17,688451,b,957,689408,White,Congruent,b,Green,0,,0,3,684437,,0,0,,,,5,1,5,,,,,,,Pictures\green.bmp,3000,2000,Pictures\black.bmp,,,,,,,,,,,,,StimulusPr,Pictures\right.bmp,CuedStim2,Right
POP_2,16059,1,"<?xml version=""1.0""?>\n<Clock xmlns:dt=""urn:schemas-microsoft-com:datatypes""><Description dt:dt=""string"">E-Prime Primary Realtime Clock</Description><StartTime><Timestamp dt:dt=""int"">0</Timestamp><DateUtc dt:dt=""string"">2014-05-14T22:07:37Z</DateUtc></StartTime><FrequencyChanges><FrequencyChange><Frequency dt:dt=""r8"">2793030000</Frequency><Timestamp dt:dt=""r8"">1.72701197054844E+15</Timestamp><Current dt:dt=""r8"">0</Current><DateUtc dt:dt=""string"">2014-05-14T22:07:37Z</DateUtc></FrequencyChange></FrequencyChanges></Clock>\n",60.03,1,1853972574,0,,-999999,12,90533,t,48892,139425,5/14/2014,15:07:37,,1,Session1,SessionsList,,,,,,,,,,1,1,1,4,,604060,,,4,1,4,,,,Cued2,MiniBlocks1,,,,,6,1,r,-999999,15,697447,r,434,697881,White,Congruent,r,Green,0,,0,15,693449,,0,0,,,,6,1,6,,,,,,,Pictures\green.bmp,3000,2000,Pictures\left.bmp,,,,,,,,,,,,,StimulusPr,Pictures\black.bmp,CuedStim2,Left
POP_2,16059,1,"<?xml version=""1.0""?>\n<Clock xmlns:dt=""urn:schemas-microsoft-com:datatypes""><Description dt:dt=""string"">E-Prime Primary Realtime Clock</Description><StartTime><Timestamp dt:dt=""int"">0</Timestamp><DateUtc dt:dt=""string"">2014-05-14T22:07:37Z</DateUtc></StartTime><FrequencyChanges><FrequencyChange><Frequency dt:dt=""r8"">2793030000</Frequency><Timestamp dt:dt=""r8"">1.72701197054844E+15</Timestamp><Current dt:dt=""r8"">0</Current><DateUtc dt:dt=""string"">2014-05-14T22:07:37Z</DateUtc></FrequencyChange></FrequencyChanges></Clock>\n",60.03,1,1853972574,0,,-999999,12,90533,t,48892,139425,5/14/2014,15:07:37,,1,Session1,SessionsList,,,,,,,,,,1,1,1,4,,604060,,,4,1,4,,,,Cued2,MiniBlocks1,,,,,7,1,b,-999999,7,708441,b,612,709053,White,Incongruent,b,Red,0,,0,11,701445,,0,0,,,,7,1,7,,,,,,,Pictures\red.bmp,6000,4000,Pictures\left.bmp,,,,,,,,,,,,,StimulusPr,Pictures\black.bmp,CuedStim2,Left
POP_2,16059,1,"<?xml version=""1.0""?>\n<Clock xmlns:dt=""urn:schemas-microsoft-com:datatypes""><Description dt:dt=""string"">E-Prime Primary Realtime Clock</Description><StartTime><Timestamp dt:dt=""int"">0</Timestamp><DateUtc dt:dt=""string"">2014-05-14T22:07:37Z</DateUtc></StartTime><FrequencyChanges><FrequencyChange><Frequency dt:dt=""r8"">2793030000</Frequency><Timestamp dt:dt=""r8"">1.72701197054844E+15</Timestamp><Current dt:dt=""r8"">0</Current><DateUtc dt:dt=""string"">2014-05-14T22:07:37Z</DateUtc></FrequencyChange></FrequencyChanges></Clock>\n",60.03,1,1853972574,0,,-999999,12,90533,t,48892,139425,5/14/2014,15:07:37,,1,Session1,SessionsList,,,,,,,,,,1,1,1,4,,604060,,,4,1,4,,,,Cued2,MiniBlocks1,,,,,8,1,b,-999999,20,719453,b,498,719951,White,Congruent,b,Green,0,,0,16,714438,,0,0,,,,8,1,8,,,,,,,Pictures\green.bmp,4000,4000,Pictures\black.bmp,,,,,,,,,,,,,StimulusPr,Pictures\right.bmp,CuedStim2,Right
POP_2,16059,1,"<?xml version=""1.0""?>\n<Clock xmlns:dt=""urn:schemas-microsoft-com:datatypes""><Description dt:dt=""string"">E-Prime Primary Realtime Clock</Description><StartTime><Timestamp dt:dt=""int"">0</Timestamp><DateUtc dt:dt=""string"">2014-05-14T22:07:37Z</DateUtc></StartTime><FrequencyChanges><FrequencyChange><Frequency dt:dt=""r8"">2793030000</Frequency><Timestamp dt:dt=""r8"">1.72701197054844E+15</Timestamp><Current dt:dt=""r8"">0</Current><DateUtc dt:dt=""string"">2014-05-14T22:07:37Z</DateUtc></FrequencyChange></FrequencyChanges></Clock>\n",60.03,1,1853972574,0,,-999999,12,90533,t,48892,139425,5/14/2014,15:07:37,,1,Session1,SessionsList,,,,,,,,,,1,1,1,4,,604060,,,4,1,4,,,,Cued2,MiniBlocks1,,,,,9,1,b,-999999,6,735428,b,620,736048,White,Incongruent,b,Red,0,,0,5,725433,,0,0,,,,9,1,9,,,,,,,Pictures\red.bmp,9000,10000,Pictures\left.bmp,,,,,,,,,,,,,StimulusPr,Pictures\black.bmp,CuedStim2,Left
POP_2,16059,1,"<?xml version=""1.0""?>\n<Clock xmlns:dt=""urn:schemas-microsoft-com:datatypes""><Description dt:dt=""string"">E-Prime Primary Realtime Clock</Description><StartTime><Timestamp dt:dt=""int"">0</Timestamp><DateUtc dt:dt=""string"">2014-05-14T22:07:37Z</DateUtc></StartTime><FrequencyChanges><FrequencyChange><Frequency dt:dt=""r8"">2793030000</Frequency><Timestamp dt:dt=""r8"">1.72701197054844E+15</Timestamp><Current dt:dt=""r8"">0</Current><DateUtc dt:dt=""string"">2014-05-14T22:07:37Z</DateUtc></FrequencyChange></FrequencyChanges></Clock>\n",60.03,1,1853972574,0,,-999999,12,90533,t,48892,139425,5/14/2014,15:07:37,,1,Session1,SessionsList,,,,,,,,,,1,1,1,4,,604060,,,4,1,4,,,,Cued2,MiniBlocks1,,,,,10,1,r,-999999,16,757450,r,697,758147,White,Congruent,r,Green,0,,0,17,747439,,0,0,,,,10,1,10,,,,,,,Pictures\green.bmp,9000,10000,Pictures\left.bmp,,,,,,,,,,,,,StimulusPr,Pictures\black.bmp,CuedStim2,Left
POP_2,16059,1,"<?xml version=""1.0""?>\n<Clock xmlns:dt=""urn:schemas-microsoft-com:datatypes""><Description dt:dt=""string"">E-Prime Primary Realtime Clock</Description><StartTime><Timestamp dt:dt=""int"">0</Timestamp><DateUtc dt:dt=""string"">2014-05-14T22:07:37Z</DateUtc></StartTime><FrequencyChanges><FrequencyChange><Frequency dt:dt=""r8"">2793030000</Frequency><Timestamp dt:dt=""r8"">1.72701197054844E+15</Timestamp><Current dt:dt=""r8"">0</Current><DateUtc dt:dt=""string"">2014-05-14T22:07:37Z</DateUtc></FrequencyChange></FrequencyChanges></Clock>\n",60.03,1,1853972574,0,,-999999,12,90533,t,48892,139425,5/14/2014,15:07:37,,2,Session2,SessionsList,0,,-999999,11,788168,t,34388,822556,768162,2,1,2,1,,,,,,,,1,1,1,NonCued3,MiniBlocks2,,,822568,,1,1,b,-999999,4,842541,b,740,843281,Green,Congruent,b,White,0,,0,6,832546,,0,0,,,,,,,,,,,,,Pictures\white.bmp,9000,10000,Pictures\black.bmp,,,,,,,1,1,1,,,,StimulusPr,Pictures\GreenRight.bmp,NonCuedStim3,Right
POP_2,16059,1,"<?xml version=""1.0""?>\n<Clock xmlns:dt=""urn:schemas-microsoft-com:datatypes""><Description dt:dt=""string"">E-Prime Primary Realtime Clock</Description><StartTime><Timestamp dt:dt=""int"">0</Timestamp><DateUtc dt:dt=""string"">2014-05-14T22:07:37Z</DateUtc></StartTime><FrequencyChanges><FrequencyChange><Frequency dt:dt=""r8"">2793030000</Frequency><Timestamp dt:dt=""r8"">1.72701197054844E+15</Timestamp><Current dt:dt=""r8"">0</Current><DateUtc dt:dt=""string"">2014-05-14T22:07:37Z</DateUtc></FrequencyChange></FrequencyChanges></Clock>\n",60.03,1,1853972574,0,,-999999,12,90533,t,48892,139425,5/14/2014,15:07:37,,2,Session2,SessionsList,0,,-999999,11,788168,t,34388,822556,768162,2,1,2,1,,,,,,,,1,1,1,NonCued3,MiniBlocks2,,,822568,,2,1,r,-999999,7,864563,r,869,865432,Red,Incongruent,r,White,0,,0,12,854568,,0,0,,,,,,,,,,,,,Pictures\white.bmp,9000,10000,Pictures\black.bmp,,,,,,,2,1,2,,,,StimulusPr,Pictures\RedRight.bmp,NonCuedStim3,Right
POP_2,16059,1,"<?xml version=""1.0""?>\n<Clock xmlns:dt=""urn:schemas-microsoft-com:datatypes""><Description dt:dt=""string"">E-Prime Primary Realtime Clock</Description><StartTime><Timestamp dt:dt=""int"">0</Timestamp><DateUtc dt:dt=""string"">2014-05-14T22:07:37Z</DateUtc></StartTime><FrequencyChanges><FrequencyChange><Frequency dt:dt=""r8"">2793030000</Frequency><Timestamp dt:dt=""r8"">1.72701197054844E+15</Timestamp><Current dt:dt=""r8"">0</Current><DateUtc dt:dt=""string"">2014-05-14T22:07:37Z</DateUtc></FrequencyChange></FrequencyChanges></Clock>\n",60.03,1,1853972574,0,,-999999,12,90533,t,48892,139425,5/14/2014,15:07:37,,2,Session2,SessionsList,0,,-999999,11,788168,t,34388,822556,768162,2,1,2,1,,,,,,,,1,1,1,NonCued3,MiniBlocks2,,,822568,,3,1,r,-999999,8,881555,r,726,882281,Green,Congruent,r,White,0,,0,17,876574,,0,0,,,,,,,,,,,,,Pictures\white.bmp,4000,4000,Pictures\GreenLeft.bmp,,,,,,,3,1,3,,,,StimulusPr,Pictures\black.bmp,NonCuedStim3,Left
POP_2,16059,1,"<?xml version=""1.0""?>\n<Clock xmlns:dt=""urn:schemas-microsoft-com:datatypes""><Description dt:dt=""string"">E-Prime Primary Realtime Clock</Description><StartTime><Timestamp dt:dt=""int"">0</Timestamp><DateUtc dt:dt=""string"">2014-05-14T22:07:37Z</DateUtc></StartTime><FrequencyChanges><FrequencyChange><Frequency dt:dt=""r8"">2793030000</Frequency><Timestamp dt:dt=""r8"">1.72701197054844E+15</Timestamp><Current dt:dt=""r8"">0</Current><DateUtc dt:dt=""string"">2014-05-14T22:07:37Z</DateUtc></FrequencyChange></FrequencyChanges></Clock>\n",60.03,1,1853972574,0,,-999999,12,90533,t,48892,139425,5/14/2014,15:07:37,,2,Session2,SessionsList,0,,-999999,11,788168,t,34388,822556,768162,2,1,2,1,,,,,,,,1,1,1,NonCued3,MiniBlocks2,,,822568,,4,1,b,-999999,18,894565,b,749,895314,Red,Incongruent,b,White,0,,0,12,887569,,0,0,,,,,,,,,,,,,Pictures\white.bmp,6000,4000,Pictures\RedLeft.bmp,,,,,,,4,1,4,,,,StimulusPr,Pictures\black.bmp,NonCuedStim3,Left
POP_2,16059,1,"<?xml version=""1.0""?>\n<Clock xmlns:dt=""urn:schemas-microsoft-com:datatypes""><Description dt:dt=""string"">E-Prime Primary Realtime Clock</Description><StartTime><Timestamp dt:dt=""int"">0</Timestamp><DateUtc dt:dt=""string"">2014-05-14T22:07:37Z</DateUtc></StartTime><FrequencyChanges><FrequencyChange><Frequency dt:dt=""r8"">2793030000</Frequency><Timestamp dt:dt=""r8"">1.72701197054844E+15</Timestamp><Current dt:dt=""r8"">0</Current><DateUtc dt:dt=""string"">2014-05-14T22:07:37Z</DateUtc></FrequencyChange></FrequencyChanges></Clock>\n",60.03,1,1853972574,0,,-999999,12,90533,t,48892,139425,5/14/2014,15:07:37,,2,Session2,SessionsList,0,,-999999,11,788168,t,34388,822556,768162,2,1,2,1,,,,,,,,1,1,1,NonCued3,MiniBlocks2,,,822568,,5,1,b,-999999,4,904560,b,558,905118,Green,Congruent,b,White,0,,0,6,900545,,0,0,,,,,,,,,,,,,Pictures\white.bmp,3000,2000,Pictures\black.bmp,,,,,,,5,1,5,,,,StimulusPr,Pictures\GreenRight.bmp,NonCuedStim3,Right
POP_2,16059,1,"<?xml version=""1.0""?>\n<Clock xmlns:dt=""urn:schemas-microsoft-com:datatypes""><Description dt:dt=""string"">E-Prime Primary Realtime Clock</Description><StartTime><Timestamp dt:dt=""int"">0</Timestamp><DateUtc dt:dt=""string"">2014-05-14T22:07:37Z</DateUtc></StartTime><FrequencyChanges><FrequencyChange><Frequency dt:dt=""r8"">2793030000</Frequency><Timestamp dt:dt=""r8"">1.72701197054844E+15</Timestamp><Current dt:dt=""r8"">0</Current><DateUtc dt:dt=""string"">2014-05-14T22:07:37Z</DateUtc></FrequencyChange></FrequencyChanges></Clock>\n",60.03,1,1853972574,0,,-999999,12,90533,t,48892,139425,5/14/2014,15:07:37,,2,Session2,SessionsList,0,,-999999,11,788168,t,34388,822556,768162,2,1,2,1,,,,,,,,1,1,1,NonCued3,MiniBlocks2,,,822568,,6,1,r,-999999,5,912556,r,604,913160,Green,Congruent,r,White,0,,0,2,908559,,0,0,,,,,,,,,,,,,Pictures\white.bmp,3000,2000,Pictures\GreenLeft.bmp,,,,,,,6,1,6,,,,StimulusPr,Pictures\black.bmp,NonCuedStim3,Left
POP_2,16059,1,"<?xml version=""1.0""?>\n<Clock xmlns:dt=""urn:schemas-microsoft-com:datatypes""><Description dt:dt=""string"">E-Prime Primary Realtime Clock</Description><StartTime><Timestamp dt:dt=""int"">0</Timestamp><DateUtc dt:dt=""string"">2014-05-14T22:07:37Z</DateUtc></StartTime><FrequencyChanges><FrequencyChange><Frequency dt:dt=""r8"">2793030000</Frequency><Timestamp dt:dt=""r8"">1.72701197054844E+15</Timestamp><Current dt:dt=""r8"">0</Current><DateUtc dt:dt=""string"">2014-05-14T22:07:37Z</DateUtc></FrequencyChange></FrequencyChanges></Clock>\n",60.03,1,1853972574,0,,-999999,12,90533,t,48892,139425,5/14/2014,15:07:37,,2,Session2,SessionsList,0,,-999999,11,788168,t,34388,822556,768162,2,1,2,1,,,,,,,,1,1,1,NonCued3,MiniBlocks2,,,822568,,7,1,b,-999999,4,923551,b,574,924125,Green,Congruent,b,White,0,,0,14,916571,,0,0,,,,,,,,,,,,,Pictures\white.bmp,6000,16000,Pictures\black.bmp,,,,,,,7,1,7,,,,StimulusPr,Pictures\GreenRight.bmp,NonCuedStim3,Right
POP_2,16059,1,"<?xml version=""1.0""?>\n<Clock xmlns:dt=""urn:schemas-microsoft-com:datatypes""><Description dt:dt=""string"">E-Prime Primary Realtime Clock</Description><StartTime><Timestamp dt:dt=""int"">0</Timestamp><DateUtc dt:dt=""string"">2014-05-14T22:07:37Z</DateUtc></StartTime><FrequencyChanges><FrequencyChange><Frequency dt:dt=""r8"">2793030000</Frequency><Timestamp dt:dt=""r8"">1.72701197054844E+15</Timestamp><Current dt:dt=""r8"">0</Current><DateUtc dt:dt=""string"">2014-05-14T22:07:37Z</DateUtc></FrequencyChange></FrequencyChanges></Clock>\n",60.03,1,1853972574,0,,-999999,12,90533,t,48892,139425,5/14/2014,15:07:37,,2,Session2,SessionsList,0,,-999999,11,788168,t,34388,822556,768162,2,1,2,1,,,,,,,,1,1,1,NonCued3,MiniBlocks2,,,822568,,8,1,r,-999999,13,945556,r,738,946294,Red,Incongruent,r,White,0,,0,11,941558,,0,0,,,,,,,,,,,,,Pictures\white.bmp,3000,2000,Pictures\black.bmp,,,,,,,8,1,8,,,,StimulusPr,Pictures\RedRight.bmp,NonCuedStim3,Right
POP_2,16059,1,"<?xml version=""1.0""?>\n<Clock xmlns:dt=""urn:schemas-microsoft-com:datatypes""><Description dt:dt=""string"">E-Prime Primary Realtime Clock</Description><StartTime><Timestamp dt:dt=""int"">0</Timestamp><DateUtc dt:dt=""string"">2014-05-14T22:07:37Z</DateUtc></StartTime><FrequencyChanges><FrequencyChange><Frequency dt:dt=""r8"">2793030000</Frequency><Timestamp dt:dt=""r8"">1.72701197054844E+15</Timestamp><Current dt:dt=""r8"">0</Current><DateUtc dt:dt=""string"">2014-05-14T22:07:37Z</DateUtc></FrequencyChange></FrequencyChanges></Clock>\n",60.03,1,1853972574,0,,-999999,12,90533,t,48892,139425,5/14/2014,15:07:37,,2,Session2,SessionsList,0,,-999999,11,788168,t,34388,822556,768162,2,1,2,1,,,,,,,,1,1,1,NonCued3,MiniBlocks2,,,822568,,9,1,r,-999999,10,959566,r,776,960342,Green,Congruent,r,White,0,,0,15,949571,,0,0,,,,,,,,,,,,,Pictures\white.bmp,9000,10000,Pictures\GreenLeft.bmp,,,,,,,9,1,9,,,,StimulusPr,Pictures\black.bmp,NonCuedStim3,Left
POP_2,16059,1,"<?xml version=""1.0""?>\n<Clock xmlns:dt=""urn:schemas-microsoft-com:datatypes""><Description dt:dt=""string"">E-Prime Primary Realtime Clock</Description><StartTime><Timestamp dt:dt=""int"">0</Timestamp><DateUtc dt:dt=""string"">2014-05-14T22:07:37Z</DateUtc></StartTime><FrequencyChanges><FrequencyChange><Frequency dt:dt=""r8"">2793030000</Frequency><Timestamp dt:dt=""r8"">1.72701197054844E+15</Timestamp><Current dt:dt=""r8"">0</Current><DateUtc dt:dt=""string"">2014-05-14T22:07:37Z</DateUtc></FrequencyChange></FrequencyChanges></Clock>\n",60.03,1,1853972574,0,,-999999,12,90533,t,48892,139425,5/14/2014,15:07:37,,2,Session2,SessionsList,0,,-999999,11,788168,t,34388,822556,768162,2,1,2,1,,,,,,,,1,1,1,NonCued3,MiniBlocks2,,,822568,,10,1,r,-999999,16,978573,r,732,979305,Green,Congruent,r,White,0,,0,3,971560,,0,0,,,,,,,,,,,,,Pictures\white.bmp,6000,4000,Pictures\GreenLeft.bmp,,,,,,,10,1,10,,,,StimulusPr,Pictures\black.bmp,NonCuedStim3,Left
POP_2,16059,1,"<?xml version=""1.0""?>\n<Clock xmlns:dt=""urn:schemas-microsoft-com:datatypes""><Description dt:dt=""string"">E-Prime Primary Realtime Clock</Description><StartTime><Timestamp dt:dt=""int"">0</Timestamp><DateUtc dt:dt=""string"">2014-05-14T22:07:37Z</DateUtc></StartTime><FrequencyChanges><FrequencyChange><Frequency dt:dt=""r8"">2793030000</Frequency><Timestamp dt:dt=""r8"">1.72701197054844E+15</Timestamp><Current dt:dt=""r8"">0</Current><DateUtc dt:dt=""string"">2014-05-14T22:07:37Z</DateUtc></FrequencyChange></FrequencyChanges></Clock>\n",60.03,1,1853972574,0,,-999999,12,90533,t,48892,139425,5/14/2014,15:07:37,,2,Session2,SessionsList,0,,-999999,11,788168,t,34388,822556,768162,2,1,2,2,,,983321,,,,,2,1,2,Cued3,MiniBlocks2,,,,,1,1,b,-999999,17,997564,b,417,997981,White,Congruent,b,Green,0,,0,9,993566,,0,0,,,,,,,1,1,1,,,,Pictures\green.bmp,3000,2000,Pictures\black.bmp,,,,,,,,,,,,,StimulusPr,Pictures\right.bmp,CuedStim3,Right
POP_2,16059,1,"<?xml version=""1.0""?>\n<Clock xmlns:dt=""urn:schemas-microsoft-com:datatypes""><Description dt:dt=""string"">E-Prime Primary Realtime Clock</Description><StartTime><Timestamp dt:dt=""int"">0</Timestamp><DateUtc dt:dt=""string"">2014-05-14T22:07:37Z</DateUtc></StartTime><FrequencyChanges><FrequencyChange><Frequency dt:dt=""r8"">2793030000</Frequency><Timestamp dt:dt=""r8"">1.72701197054844E+15</Timestamp><Current dt:dt=""r8"">0</Current><DateUtc dt:dt=""string"">2014-05-14T22:07:37Z</DateUtc></FrequencyChange></FrequencyChanges></Clock>\n",60.03,1,1853972574,0,,-999999,12,90533,t,48892,139425,5/14/2014,15:07:37,,2,Session2,SessionsList,0,,-999999,11,788168,t,34388,822556,768162,2,1,2,2,,,983321,,,,,2,1,2,Cued3,MiniBlocks2,,,,,2,1,b,-999999,3,1005560,b,483,1006043,White,Congruent,b,Green,0,,0,5,1001562,,0,0,,,,,,,2,1,2,,,,Pictures\green.bmp,3000,10000,Pictures\black.bmp,,,,,,,,,,,,,StimulusPr,Pictures\right.bmp,CuedStim3,Right
POP_2,16059,1,"<?xml version=""1.0""?>\n<Clock xmlns:dt=""urn:schemas-microsoft-com:datatypes""><Description dt:dt=""string"">E-Prime Primary Realtime Clock</Description><StartTime><Timestamp dt:dt=""int"">0</Timestamp><DateUtc dt:dt=""string"">2014-05-14T22:07:37Z</DateUtc></StartTime><FrequencyChanges><FrequencyChange><Frequency dt:dt=""r8"">2793030000</Frequency><Timestamp dt:dt=""r8"">1.72701197054844E+15</Timestamp><Current dt:dt=""r8"">0</Current><DateUtc dt:dt=""string"">2014-05-14T22:07:37Z</DateUtc></FrequencyChange></FrequencyChanges></Clock>\n",60.03,1,1853972574,0,,-999999,12,90533,t,48892,139425,5/14/2014,15:07:37,,2,Session2,SessionsList,0,,-999999,11,788168,t,34388,822556,768162,2,1,2,2,,,983321,,,,,2,1,2,Cued3,MiniBlocks2,,,,,3,1,r,-999999,11,1027565,r,688,1028253,White,Congruent,r,Green,0,,0,9,1017554,,0,0,,,,,,,3,1,3,,,,Pictures\green.bmp,9000,2000,Pictures\left.bmp,,,,,,,,,,,,,StimulusPr,Pictures\black.bmp,CuedStim3,Left
POP_2,16059,1,"<?xml version=""1.0""?>\n<Clock xmlns:dt=""urn:schemas-microsoft-com:datatypes""><Description dt:dt=""string"">E-Prime Primary Realtime Clock</Description><StartTime><Timestamp dt:dt=""int"">0</Timestamp><DateUtc dt:dt=""string"">2014-05-14T22:07:37Z</DateUtc></StartTime><FrequencyChanges><FrequencyChange><Frequency dt:dt=""r8"">2793030000</Frequency><Timestamp dt:dt=""r8"">1.72701197054844E+15</Timestamp><Current dt:dt=""r8"">0</Current><DateUtc dt:dt=""string"">2014-05-14T22:07:37Z</DateUtc></FrequencyChange></FrequencyChanges></Clock>\n",60.03,1,1853972574,0,,-999999,12,90533,t,48892,139425,5/14/2014,15:07:37,,2,Session2,SessionsList,0,,-999999,11,788168,t,34388,822556,768162,2,1,2,2,,,983321,,,,,2,1,2,Cued3,MiniBlocks2,,,,,4,1,r,-999999,14,1036561,r,601,1037162,White,Congruent,r,Green,0,,0,7,1031547,,0,0,,,,,,,4,1,4,,,,Pictures\green.bmp,4000,16000,Pictures\left.bmp,,,,,,,,,,,,,StimulusPr,Pictures\black.bmp,CuedStim3,Left
POP_2,16059,1,"<?xml version=""1.0""?>\n<Clock xmlns:dt=""urn:schemas-microsoft-com:datatypes""><Description dt:dt=""string"">E-Prime Primary Realtime Clock</Description><StartTime><Timestamp dt:dt=""int"">0</Timestamp><DateUtc dt:dt=""string"">2014-05-14T22:07:37Z</DateUtc></StartTime><FrequencyChanges><FrequencyChange><Frequency dt:dt=""r8"">2793030000</Frequency><Timestamp dt:dt=""r8"">1.72701197054844E+15</Timestamp><Current dt:dt=""r8"">0</Current><DateUtc dt:dt=""string"">2014-05-14T22:07:37Z</DateUtc></FrequencyChange></FrequencyChanges></Clock>\n",60.03,1,1853972574,0,,-999999,12,90533,t,48892,139425,5/14/2014,15:07:37,,2,Session2,SessionsList,0,,-999999,11,788168,t,34388,822556,768162,2,1,2,2,,,983321,,,,,2,1,2,Cued3,MiniBlocks2,,,,,5,0,r,-999999,12,1058567,b,2287,1060854,White,Incongruent,r,Red,0,,0,2,1054552,,0,0,,,,,,,5,1,5,,,,Pictures\red.bmp,3000,4000,Pictures\black.bmp,,,,,,,,,,,,,StimulusPr,Pictures\right.bmp,CuedStim3,Right
POP_2,16059,1,"<?xml version=""1.0""?>\n<Clock xmlns:dt=""urn:schemas-microsoft-com:datatypes""><Description dt:dt=""string"">E-Prime Primary Realtime Clock</Description><StartTime><Timestamp dt:dt=""int"">0</Timestamp><DateUtc dt:dt=""string"">2014-05-14T22:07:37Z</DateUtc></StartTime><FrequencyChanges><FrequencyChange><Frequency dt:dt=""r8"">2793030000</Frequency><Timestamp dt:dt=""r8"">1.72701197054844E+15</Timestamp><Current dt:dt=""r8"">0</Current><DateUtc dt:dt=""string"">2014-05-14T22:07:37Z</DateUtc></FrequencyChange></FrequencyChanges></Clock>\n",60.03,1,1853972574,0,,-999999,12,90533,t,48892,139425,5/14/2014,15:07:37,,2,Session2,SessionsList,0,,-999999,11,788168,t,34388,822556,768162,2,1,2,2,,,983321,,,,,2,1,2,Cued3,MiniBlocks2,,,,,6,1,b,-999999,12,1073559,b,599,1074158,White,Congruent,b,Green,0,,0,8,1066546,,0,0,,,,,,,6,1,6,,,,Pictures\green.bmp,6000,4000,Pictures\black.bmp,,,,,,,,,,,,,StimulusPr,Pictures\right.bmp,CuedStim3,Right
POP_2,16059,1,"<?xml version=""1.0""?>\n<Clock xmlns:dt=""urn:schemas-microsoft-com:datatypes""><Description dt:dt=""string"">E-Prime Primary Realtime Clock</Description><StartTime><Timestamp dt:dt=""int"">0</Timestamp><DateUtc dt:dt=""string"">2014-05-14T22:07:37Z</DateUtc></StartTime><FrequencyChanges><FrequencyChange><Frequency dt:dt=""r8"">2793030000</Frequency><Timestamp dt:dt=""r8"">1.72701197054844E+15</Timestamp><Current dt:dt=""r8"">0</Current><DateUtc dt:dt=""string"">2014-05-14T22:07:37Z</DateUtc></FrequencyChange></FrequencyChanges></Clock>\n",60.03,1,1853972574,0,,-999999,12,90533,t,48892,139425,5/14/2014,15:07:37,,2,Session2,SessionsList,0,,-999999,11,788168,t,34388,822556,768162,2,1,2,2,,,983321,,,,,2,1,2,Cued3,MiniBlocks2,,,,,7,1,r,-999999,13,1084570,r,509,1085079,White,Congruent,r,Green,0,,0,16,1079573,,0,0,,,,,,,7,1,7,,,,Pictures\green.bmp,4000,16000,Pictures\left.bmp,,,,,,,,,,,,,StimulusPr,Pictures\black.bmp,CuedStim3,Left
POP_2,16059,1,"<?xml version=""1.0""?>\n<Clock xmlns:dt=""urn:schemas-microsoft-com:datatypes""><Description dt:dt=""string"">E-Prime Primary Realtime Clock</Description><StartTime><Timestamp dt:dt=""int"">0</Timestamp><DateUtc dt:dt=""string"">2014-05-14T22:07:37Z</DateUtc></StartTime><FrequencyChanges><FrequencyChange><Frequency dt:dt=""r8"">2793030000</Frequency><Timestamp dt:dt=""r8"">1.72701197054844E+15</Timestamp><Current dt:dt=""r8"">0</Current><DateUtc dt:dt=""string"">2014-05-14T22:07:37Z</DateUtc></FrequencyChange></FrequencyChanges></Clock>\n",60.03,1,1853972574,0,,-999999,12,90533,t,48892,139425,5/14/2014,15:07:37,,2,Session2,SessionsList,0,,-999999,11,788168,t,34388,822556,768162,2,1,2,2,,,983321,,,,,2,1,2,Cued3,MiniBlocks2,,,,,8,0,b,-999999,3,1106543,r,496,1107039,White,Incongruent,b,Red,0,,0,5,1102561,,0,0,,,,,,,8,1,8,,,,Pictures\red.bmp,3000,2000,Pictures\left.bmp,,,,,,,,,,,,,StimulusPr,Pictures\black.bmp,CuedStim3,Left
POP_2,16059,1,"<?xml version=""1.0""?>\n<Clock xmlns:dt=""urn:schemas-microsoft-com:datatypes""><Description dt:dt=""string"">E-Prime Primary Realtime Clock</Description><StartTime><Timestamp dt:dt=""int"">0</Timestamp><DateUtc dt:dt=""string"">2014-05-14T22:07:37Z</DateUtc></StartTime><FrequencyChanges><FrequencyChange><Frequency dt:dt=""r8"">2793030000</Frequency><Timestamp dt:dt=""r8"">1.72701197054844E+15</Timestamp><Current dt:dt=""r8"">0</Current><DateUtc dt:dt=""string"">2014-05-14T22:07:37Z</DateUtc></FrequencyChange></FrequencyChanges></Clock>\n",60.03,1,1853972574,0,,-999999,12,90533,t,48892,139425,5/14/2014,15:07:37,,2,Session2,SessionsList,0,,-999999,11,788168,t,34388,822556,768162,2,1,2,2,,,983321,,,,,2,1,2,Cued3,MiniBlocks2,,,,,9,1,r,-999999,7,1114555,r,751,1115306,White,Congruent,r,Green,0,,0,17,1110557,,0,0,,,,,,,9,1,9,,,,Pictures\green.bmp,3000,2000,Pictures\left.bmp,,,,,,,,,,,,,StimulusPr,Pictures\black.bmp,CuedStim3,Left
POP_2,16059,1,"<?xml version=""1.0""?>\n<Clock xmlns:dt=""urn:schemas-microsoft-com:datatypes""><Description dt:dt=""string"">E-Prime Primary Realtime Clock</Description><StartTime><Timestamp dt:dt=""int"">0</Timestamp><DateUtc dt:dt=""string"">2014-05-14T22:07:37Z</DateUtc></StartTime><FrequencyChanges><FrequencyChange><Frequency dt:dt=""r8"">2793030000</Frequency><Timestamp dt:dt=""r8"">1.72701197054844E+15</Timestamp><Current dt:dt=""r8"">0</Current><DateUtc dt:dt=""string"">2014-05-14T22:07:37Z</DateUtc></FrequencyChange></FrequencyChanges></Clock>\n",60.03,1,1853972574,0,,-999999,12,90533,t,48892,139425,5/14/2014,15:07:37,,2,Session2,SessionsList,0,,-999999,11,788168,t,34388,822556,768162,2,1,2,2,,,983321,,,,,2,1,2,Cued3,MiniBlocks2,,,,,10,1,b,-999999,9,1128565,b,440,1129005,White,Congruent,b,Green,0,,0,9,1118553,,0,0,,,,,,,10,1,10,,,,Pictures\green.bmp,9000,10000,Pictures\black.bmp,,,,,,,,,,,,,StimulusPr,Pictures\right.bmp,CuedStim3,Right
POP_2,16059,1,"<?xml version=""1.0""?>\n<Clock xmlns:dt=""urn:schemas-microsoft-com:datatypes""><Description dt:dt=""string"">E-Prime Primary Realtime Clock</Description><StartTime><Timestamp dt:dt=""int"">0</Timestamp><DateUtc dt:dt=""string"">2014-05-14T22:07:37Z</DateUtc></StartTime><FrequencyChanges><FrequencyChange><Frequency dt:dt=""r8"">2793030000</Frequency><Timestamp dt:dt=""r8"">1.72701197054844E+15</Timestamp><Current dt:dt=""r8"">0</Current><DateUtc dt:dt=""string"">2014-05-14T22:07:37Z</DateUtc></FrequencyChange></FrequencyChanges></Clock>\n",60.03,1,1853972574,0,,-999999,12,90533,t,48892,139425,5/14/2014,15:07:37,,2,Session2,SessionsList,0,,-999999,11,788168,t,34388,822556,768162,2,1,2,3,,,,1139026,,,,3,1,3,Cued4,MiniBlocks2,,,,,1,1,b,-999999,11,1155568,b,597,1156165,White,Congruent,b,Green,0,,0,17,1148555,,0,0,,,,,,,,,,1,1,1,Pictures\green.bmp,6000,2000,Pictures\black.bmp,,,,,,,,,,,,,StimulusPr,Pictures\right.bmp,CuedStim4,Right
POP_2,16059,1,"<?xml version=""1.0""?>\n<Clock xmlns:dt=""urn:schemas-microsoft-com:datatypes""><Description dt:dt=""string"">E-Prime Primary Realtime Clock</Description><StartTime><Timestamp dt:dt=""int"">0</Timestamp><DateUtc dt:dt=""string"">2014-05-14T22:07:37Z</DateUtc></StartTime><FrequencyChanges><FrequencyChange><Frequency dt:dt=""r8"">2793030000</Frequency><Timestamp dt:dt=""r8"">1.72701197054844E+15</Timestamp><Current dt:dt=""r8"">0</Current><DateUtc dt:dt=""string"">2014-05-14T22:07:37Z</DateUtc></FrequencyChange></FrequencyChanges></Clock>\n",60.03,1,1853972574,0,,-999999,12,90533,t,48892,139425,5/14/2014,15:07:37,,2,Session2,SessionsList,0,,-999999,11,788168,t,34388,822556,768162,2,1,2,3,,,,1139026,,,,3,1,3,Cued4,MiniBlocks2,,,,,2,1,r,-999999,14,1169561,r,945,1170506,White,Incongruent,r,Red,0,,0,9,1159566,,0,0,,,,,,,,,,2,1,2,Pictures\red.bmp,9000,2000,Pictures\black.bmp,,,,,,,,,,,,,StimulusPr,Pictures\right.bmp,CuedStim4,Right
POP_2,16059,1,"<?xml version=""1.0""?>\n<Clock xmlns:dt=""urn:schemas-microsoft-com:datatypes""><Description dt:dt=""string"">E-Prime Primary Realtime Clock</Description><StartTime><Timestamp dt:dt=""int"">0</Timestamp><DateUtc dt:dt=""string"">2014-05-14T22:07:37Z</DateUtc></StartTime><FrequencyChanges><FrequencyChange><Frequency dt:dt=""r8"">2793030000</Frequency><Timestamp dt:dt=""r8"">1.72701197054844E+15</Timestamp><Current dt:dt=""r8"">0</Current><DateUtc dt:dt=""string"">2014-05-14T22:07:37Z</DateUtc></FrequencyChange></FrequencyChanges></Clock>\n",60.03,1,1853972574,0,,-999999,12,90533,t,48892,139425,5/14/2014,15:07:37,,2,Session2,SessionsList,0,,-999999,11,788168,t,34388,822556,768162,2,1,2,3,,,,1139026,,,,3,1,3,Cued4,MiniBlocks2,,,,,3,1,b,-999999,17,1177574,b,387,1177961,White,Congruent,b,Green,0,,0,12,1173559,,0,0,,,,,,,,,,3,1,3,Pictures\green.bmp,3000,4000,Pictures\black.bmp,,,,,,,,,,,,,StimulusPr,Pictures\right.bmp,CuedStim4,Right
POP_2,16059,1,"<?xml version=""1.0""?>\n<Clock xmlns:dt=""urn:schemas-microsoft-com:datatypes""><Description dt:dt=""string"">E-Prime Primary Realtime Clock</Description><StartTime><Timestamp dt:dt=""int"">0</Timestamp><DateUtc dt:dt=""string"">2014-05-14T22:07:37Z</DateUtc></StartTime><FrequencyChanges><FrequencyChange><Frequency dt:dt=""r8"">2793030000</Frequency><Timestamp dt:dt=""r8"">1.72701197054844E+15</Timestamp><Current dt:dt=""r8"">0</Current><DateUtc dt:dt=""string"">2014-05-14T22:07:37Z</DateUtc></FrequencyChange></FrequencyChanges></Clock>\n",60.03,1,1853972574,0,,-999999,12,90533,t,48892,139425,5/14/2014,15:07:37,,2,Session2,SessionsList,0,,-999999,11,788168,t,34388,822556,768162,2,1,2,3,,,,1139026,,,,3,1,3,Cued4,MiniBlocks2,,,,,4,1,r,-999999,13,1187569,r,398,1187967,White,Congruent,r,Green,0,,0,15,1183571,,0,0,,,,,,,,,,4,1,4,Pictures\green.bmp,3000,4000,Pictures\left.bmp,,,,,,,,,,,,,StimulusPr,Pictures\black.bmp,CuedStim4,Left
POP_2,16059,1,"<?xml version=""1.0""?>\n<Clock xmlns:dt=""urn:schemas-microsoft-com:datatypes""><Description dt:dt=""string"">E-Prime Primary Realtime Clock</Description><StartTime><Timestamp dt:dt=""int"">0</Timestamp><DateUtc dt:dt=""string"">2014-05-14T22:07:37Z</DateUtc></StartTime><FrequencyChanges><FrequencyChange><Frequency dt:dt=""r8"">2793030000</Frequency><Timestamp dt:dt=""r8"">1.72701197054844E+15</Timestamp><Current dt:dt=""r8"">0</Current><DateUtc dt:dt=""string"">2014-05-14T22:07:37Z</DateUtc></FrequencyChange></FrequencyChanges></Clock>\n",60.03,1,1853972574,0,,-999999,12,90533,t,48892,139425,5/14/2014,15:07:37,,2,Session2,SessionsList,0,,-999999,11,788168,t,34388,822556,768162,2,1,2,3,,,,1139026,,,,3,1,3,Cued4,MiniBlocks2,,,,,5,1,b,-999999,16,1198563,b,754,1199317,White,Incongruent,b,Red,0,,0,12,1193566,,0,0,,,,,,,,,,5,1,5,Pictures\red.bmp,4000,16000,Pictures\left.bmp,,,,,,,,,,,,,StimulusPr,Pictures\black.bmp,CuedStim4,Left
POP_2,16059,1,"<?xml version=""1.0""?>\n<Clock xmlns:dt=""urn:schemas-microsoft-com:datatypes""><Description dt:dt=""string"">E-Prime Primary Realtime Clock</Description><StartTime><Timestamp dt:dt=""int"">0</Timestamp><DateUtc dt:dt=""string"">2014-05-14T22:07:37Z</DateUtc></StartTime><FrequencyChanges><FrequencyChange><Frequency dt:dt=""r8"">2793030000</Frequency><Timestamp dt:dt=""r8"">1.72701197054844E+15</Timestamp><Current dt:dt=""r8"">0</Current><DateUtc dt:dt=""string"">2014-05-14T22:07:37Z</DateUtc></FrequencyChange></FrequencyChanges></Clock>\n",60.03,1,1853972574,0,,-999999,12,90533,t,48892,139425,5/14/2014,15:07:37,,2,Session2,SessionsList,0,,-999999,11,788168,t,34388,822556,768162,2,1,2,3,,,,1139026,,,,3,1,3,Cued4,MiniBlocks2,,,,,6,1,b,-999999,5,1220552,b,911,1221463,White,Congruent,b,Green,0,,0,15,1216571,,0,0,,,,,,,,,,6,1,6,Pictures\green.bmp,3000,2000,Pictures\black.bmp,,,,,,,,,,,,,StimulusPr,Pictures\right.bmp,CuedStim4,Right
POP_2,16059,1,"<?xml version=""1.0""?>\n<Clock xmlns:dt=""urn:schemas-microsoft-com:datatypes""><Description dt:dt=""string"">E-Prime Primary Realtime Clock</Description><StartTime><Timestamp dt:dt=""int"">0</Timestamp><DateUtc dt:dt=""string"">2014-05-14T22:07:37Z</DateUtc></StartTime><FrequencyChanges><FrequencyChange><Frequency dt:dt=""r8"">2793030000</Frequency><Timestamp dt:dt=""r8"">1.72701197054844E+15</Timestamp><Current dt:dt=""r8"">0</Current><DateUtc dt:dt=""string"">2014-05-14T22:07:37Z</DateUtc></FrequencyChange></FrequencyChanges></Clock>\n",60.03,1,1853972574,0,,-999999,12,90533,t,48892,139425,5/14/2014,15:07:37,,2,Session2,SessionsList,0,,-999999,11,788168,t,34388,822556,768162,2,1,2,3,,,,1139026,,,,3,1,3,Cued4,MiniBlocks2,,,,,7,1,b,-999999,5,1234562,b,627,1235189,White,Congruent,b,Green,0,,0,10,1224567,,0,0,,,,,,,,,,7,1,7,Pictures\green.bmp,9000,10000,Pictures\black.bmp,,,,,,,,,,,,,StimulusPr,Pictures\right.bmp,CuedStim4,Right
POP_2,16059,1,"<?xml version=""1.0""?>\n<Clock xmlns:dt=""urn:schemas-microsoft-com:datatypes""><Description dt:dt=""string"">E-Prime Primary Realtime Clock</Description><StartTime><Timestamp dt:dt=""int"">0</Timestamp><DateUtc dt:dt=""string"">2014-05-14T22:07:37Z</DateUtc></StartTime><FrequencyChanges><FrequencyChange><Frequency dt:dt=""r8"">2793030000</Frequency><Timestamp dt:dt=""r8"">1.72701197054844E+15</Timestamp><Current dt:dt=""r8"">0</Current><DateUtc dt:dt=""string"">2014-05-14T22:07:37Z</DateUtc></FrequencyChange></FrequencyChanges></Clock>\n",60.03,1,1853972574,0,,-999999,12,90533,t,48892,139425,5/14/2014,15:07:37,,2,Session2,SessionsList,0,,-999999,11,788168,t,34388,822556,768162,2,1,2,3,,,,1139026,,,,3,1,3,Cued4,MiniBlocks2,,,,,8,1,b,-999999,12,1253569,b,663,1254232,White,Incongruent,b,Red,0,,0,14,1246556,,0,0,,,,,,,,,,8,1,8,Pictures\red.bmp,6000,10000,Pictures\left.bmp,,,,,,,,,,,,,StimulusPr,Pictures\black.bmp,CuedStim4,Left
POP_2,16059,1,"<?xml version=""1.0""?>\n<Clock xmlns:dt=""urn:schemas-microsoft-com:datatypes""><Description dt:dt=""string"">E-Prime Primary Realtime Clock</Description><StartTime><Timestamp dt:dt=""int"">0</Timestamp><DateUtc dt:dt=""string"">2014-05-14T22:07:37Z</DateUtc></StartTime><FrequencyChanges><FrequencyChange><Frequency dt:dt=""r8"">2793030000</Frequency><Timestamp dt:dt=""r8"">1.72701197054844E+15</Timestamp><Current dt:dt=""r8"">0</Current><DateUtc dt:dt=""string"">2014-05-14T22:07:37Z</DateUtc></FrequencyChange></FrequencyChanges></Clock>\n",60.03,1,1853972574,0,,-999999,12,90533,t,48892,139425,5/14/2014,15:07:37,,2,Session2,SessionsList,0,,-999999,11,788168,t,34388,822556,768162,2,1,2,3,,,,1139026,,,,3,1,3,Cued4,MiniBlocks2,,,,,9,1,r,-999999,13,1272560,r,1682,1274242,White,Congruent,r,Green,0,,0,7,1265563,,0,0,,,,,,,,,,9,1,9,Pictures\green.bmp,6000,16000,Pictures\left.bmp,,,,,,,,,,,,,StimulusPr,Pictures\black.bmp,CuedStim4,Left
POP_2,16059,1,"<?xml version=""1.0""?>\n<Clock xmlns:dt=""urn:schemas-microsoft-com:datatypes""><Description dt:dt=""string"">E-Prime Primary Realtime Clock</Description><StartTime><Timestamp dt:dt=""int"">0</Timestamp><DateUtc dt:dt=""string"">2014-05-14T22:07:37Z</DateUtc></StartTime><FrequencyChanges><FrequencyChange><Frequency dt:dt=""r8"">2793030000</Frequency><Timestamp dt:dt=""r8"">1.72701197054844E+15</Timestamp><Current dt:dt=""r8"">0</Current><DateUtc dt:dt=""string"">2014-05-14T22:07:37Z</DateUtc></FrequencyChange></FrequencyChanges></Clock>\n",60.03,1,1853972574,0,,-999999,12,90533,t,48892,139425,5/14/2014,15:07:37,,2,Session2,SessionsList,0,,-999999,11,788168,t,34388,822556,768162,2,1,2,3,,,,1139026,,,,3,1,3,Cued4,MiniBlocks2,,,,,10,1,r,-999999,17,1296564,r,2140,1298704,White,Congruent,r,Green,0,,0,9,1291550,,0,0,,,,,,,,,,10,1,10,Pictures\green.bmp,4000,2000,Pictures\left.bmp,,,,,,,,,,,,,StimulusPr,Pictures\black.bmp,CuedStim4,Left
POP_2,16059,1,"<?xml version=""1.0""?>\n<Clock xmlns:dt=""urn:schemas-microsoft-com:datatypes""><Description dt:dt=""string"">E-Prime Primary Realtime Clock</Description><StartTime><Timestamp dt:dt=""int"">0</Timestamp><DateUtc dt:dt=""string"">2014-05-14T22:07:37Z</DateUtc></StartTime><FrequencyChanges><FrequencyChange><Frequency dt:dt=""r8"">2793030000</Frequency><Timestamp dt:dt=""r8"">1.72701197054844E+15</Timestamp><Current dt:dt=""r8"">0</Current><DateUtc dt:dt=""string"">2014-05-14T22:07:37Z</DateUtc></FrequencyChange></FrequencyChanges></Clock>\n",60.03,1,1853972574,0,,-999999,12,90533,t,48892,139425,5/14/2014,15:07:37,,2,Session2,SessionsList,0,,-999999,11,788168,t,34388,822556,768162,2,1,2,4,,,,,,,,4,1,4,NonCued4,MiniBlocks2,,,,1300729,1,1,r,-999999,6,1314555,r,1587,1316142,Green,Congruent,r,White,0,,0,7,1310557,,0,0,,,,,,,,,,,,,Pictures\white.bmp,3000,2000,Pictures\GreenLeft.bmp,,,,,,,,,,1,1,1,StimulusPr,Pictures\black.bmp,NonCuedStim4,Left
POP_2,16059,1,"<?xml version=""1.0""?>\n<Clock xmlns:dt=""urn:schemas-microsoft-com:datatypes""><Description dt:dt=""string"">E-Prime Primary Realtime Clock</Description><StartTime><Timestamp dt:dt=""int"">0</Timestamp><DateUtc dt:dt=""string"">2014-05-14T22:07:37Z</DateUtc></StartTime><FrequencyChanges><FrequencyChange><Frequency dt:dt=""r8"">2793030000</Frequency><Timestamp dt:dt=""r8"">1.72701197054844E+15</Timestamp><Current dt:dt=""r8"">0</Current><DateUtc dt:dt=""string"">2014-05-14T22:07:37Z</DateUtc></FrequencyChange></FrequencyChanges></Clock>\n",60.03,1,1853972574,0,,-999999,12,90533,t,48892,139425,5/14/2014,15:07:37,,2,Session2,SessionsList,0,,-999999,11,788168,t,34388,822556,768162,2,1,2,4,,,,,,,,4,1,4,NonCued4,MiniBlocks2,,,,1300729,2,1,r,-999999,10,1324567,r,1022,1325589,Green,Congruent,r,White,0,,0,13,1319570,,0,0,,,,,,,,,,,,,Pictures\white.bmp,4000,2000,Pictures\GreenLeft.bmp,,,,,,,,,,2,1,2,StimulusPr,Pictures\black.bmp,NonCuedStim4,Left
POP_2,16059,1,"<?xml version=""1.0""?>\n<Clock xmlns:dt=""urn:schemas-microsoft-com:datatypes""><Description dt:dt=""string"">E-Prime Primary Realtime Clock</Description><StartTime><Timestamp dt:dt=""int"">0</Timestamp><DateUtc dt:dt=""string"">2014-05-14T22:07:37Z</DateUtc></StartTime><FrequencyChanges><FrequencyChange><Frequency dt:dt=""r8"">2793030000</Frequency><Timestamp dt:dt=""r8"">1.72701197054844E+15</Timestamp><Current dt:dt=""r8"">0</Current><DateUtc dt:dt=""string"">2014-05-14T22:07:37Z</DateUtc></FrequencyChange></FrequencyChanges></Clock>\n",60.03,1,1853972574,0,,-999999,12,90533,t,48892,139425,5/14/2014,15:07:37,,2,Session2,SessionsList,0,,-999999,11,788168,t,34388,822556,768162,2,1,2,4,,,,,,,,4,1,4,NonCued4,MiniBlocks2,,,,1300729,3,1,r,-999999,5,1334562,r,761,1335323,Red,Incongruent,r,White,0,,0,8,1329565,,0,0,,,,,,,,,,,,,Pictures\white.bmp,4000,2000,Pictures\black.bmp,,,,,,,,,,3,1,3,StimulusPr,Pictures\RedRight.bmp,NonCuedStim4,Right
POP_2,16059,1,"<?xml version=""1.0""?>\n<Clock xmlns:dt=""urn:schemas-microsoft-com:datatypes""><Description dt:dt=""string"">E-Prime Primary Realtime Clock</Description><StartTime><Timestamp dt:dt=""int"">0</Timestamp><DateUtc dt:dt=""string"">2014-05-14T22:07:37Z</DateUtc></StartTime><FrequencyChanges><FrequencyChange><Frequency dt:dt=""r8"">2793030000</Frequency><Timestamp dt:dt=""r8"">1.72701197054844E+15</Timestamp><Current dt:dt=""r8"">0</Current><DateUtc dt:dt=""string"">2014-05-14T22:07:37Z</DateUtc></FrequencyChange></FrequencyChanges></Clock>\n",60.03,1,1853972574,0,,-999999,12,90533,t,48892,139425,5/14/2014,15:07:37,,2,Session2,SessionsList,0,,-999999,11,788168,t,34388,822556,768162,2,1,2,4,,,,,,,,4,1,4,NonCued4,MiniBlocks2,,,,1300729,4,1,b,-999999,11,1342558,b,1147,1343705,Green,Congruent,b,White,0,,0,3,1338560,,0,0,,,,,,,,,,,,,Pictures\white.bmp,3000,16000,Pictures\black.bmp,,,,,,,,,,4,1,4,StimulusPr,Pictures\GreenRight.bmp,NonCuedStim4,Right
POP_2,16059,1,"<?xml version=""1.0""?>\n<Clock xmlns:dt=""urn:schemas-microsoft-com:datatypes""><Description dt:dt=""string"">E-Prime Primary Realtime Clock</Description><StartTime><Timestamp dt:dt=""int"">0</Timestamp><DateUtc dt:dt=""string"">2014-05-14T22:07:37Z</DateUtc></StartTime><FrequencyChanges><FrequencyChange><Frequency dt:dt=""r8"">2793030000</Frequency><Timestamp dt:dt=""r8"">1.72701197054844E+15</Timestamp><Current dt:dt=""r8"">0</Current><DateUtc dt:dt=""string"">2014-05-14T22:07:37Z</DateUtc></FrequencyChange></FrequencyChanges></Clock>\n",60.03,1,1853972574,0,,-999999,12,90533,t,48892,139425,5/14/2014,15:07:37,,2,Session2,SessionsList,0,,-999999,11,788168,t,34388,822556,768162,2,1,2,4,,,,,,,,4,1,4,NonCued4,MiniBlocks2,,,,1300729,5,1,r,-999999,3,1371560,r,722,1372282,Green,Congruent,r,White,0,,0,9,1361565,,0,0,,,,,,,,,,,,,Pictures\white.bmp,9000,10000,Pictures\GreenLeft.bmp,,,,,,,,,,5,1,5,StimulusPr,Pictures\black.bmp,NonCuedStim4,Left
POP_2,16059,1,"<?xml version=""1.0""?>\n<Clock xmlns:dt=""urn:schemas-microsoft-com:datatypes""><Description dt:dt=""string"">E-Prime Primary Realtime Clock</Description><StartTime><Timestamp dt:dt=""int"">0</Timestamp><DateUtc dt:dt=""string"">2014-05-14T22:07:37Z</DateUtc></StartTime><FrequencyChanges><FrequencyChange><Frequency dt:dt=""r8"">2793030000</Frequency><Timestamp dt:dt=""r8"">1.72701197054844E+15</Timestamp><Current dt:dt=""r8"">0</Current><DateUtc dt:dt=""string"">2014-05-14T22:07:37Z</DateUtc></FrequencyChange></FrequencyChanges></Clock>\n",60.03,1,1853972574,0,,-999999,12,90533,t,48892,139425,5/14/2014,15:07:37,,2,Session2,SessionsList,0,,-999999,11,788168,t,34388,822556,768162,2,1,2,4,,,,,,,,4,1,4,NonCued4,MiniBlocks2,,,,1300729,6,1,b,-999999,13,1387569,b,521,1388090,Green,Congruent,b,White,0,,0,15,1383571,,0,0,,,,,,,,,,,,,Pictures\white.bmp,3000,16000,Pictures\black.bmp,,,,,,,,,,6,1,6,StimulusPr,Pictures\GreenRight.bmp,NonCuedStim4,Right
POP_2,16059,1,"<?xml version=""1.0""?>\n<Clock xmlns:dt=""urn:schemas-microsoft-com:datatypes""><Description dt:dt=""string"">E-Prime Primary Realtime Clock</Description><StartTime><Timestamp dt:dt=""int"">0</Timestamp><DateUtc dt:dt=""string"">2014-05-14T22:07:37Z</DateUtc></StartTime><FrequencyChanges><FrequencyChange><Frequency dt:dt=""r8"">2793030000</Frequency><Timestamp dt:dt=""r8"">1.72701197054844E+15</Timestamp><Current dt:dt=""r8"">0</Current><DateUtc dt:dt=""string"">2014-05-14T22:07:37Z</DateUtc></FrequencyChange></FrequencyChanges></Clock>\n",60.03,1,1853972574,0,,-999999,12,90533,t,48892,139425,5/14/2014,15:07:37,,2,Session2,SessionsList,0,,-999999,11,788168,t,34388,822556,768162,2,1,2,4,,,,,,,,4,1,4,NonCued4,MiniBlocks2,,,,1300729,7,1,b,-999999,18,1409575,b,635,1410210,Red,Incongruent,b,White,0,,0,3,1405560,,0,0,,,,,,,,,,,,,Pictures\white.bmp,3000,16000,Pictures\RedLeft.bmp,,,,,,,,,,7,1,7,StimulusPr,Pictures\black.bmp,NonCuedStim4,Left
POP_2,16059,1,"<?xml version=""1.0""?>\n<Clock xmlns:dt=""urn:schemas-microsoft-com:datatypes""><Description dt:dt=""string"">E-Prime Primary Realtime Clock</Description><StartTime><Timestamp dt:dt=""int"">0</Timestamp><DateUtc dt:dt=""string"">2014-05-14T22:07:37Z</DateUtc></StartTime><FrequencyChanges><FrequencyChange><Frequency dt:dt=""r8"">2793030000</Frequency><Timestamp dt:dt=""r8"">1.72701197054844E+15</Timestamp><Current dt:dt=""r8"">0</Current><DateUtc dt:dt=""string"">2014-05-14T22:07:37Z</DateUtc></FrequencyChange></FrequencyChanges></Clock>\n",60.03,1,1853972574,0,,-999999,12,90533,t,48892,139425,5/14/2014,15:07:37,,2,Session2,SessionsList,0,,-999999,11,788168,t,34388,822556,768162,2,1,2,4,,,,,,,,4,1,4,NonCued4,MiniBlocks2,,,,1300729,8,1,r,-999999,9,1431547,r,558,1432105,Green,Congruent,r,White,0,,0,12,1427566,,0,0,,,,,,,,,,,,,Pictures\white.bmp,3000,2000,Pictures\GreenLeft.bmp,,,,,,,,,,8,1,8,StimulusPr,Pictures\black.bmp,NonCuedStim4,Left
POP_2,16059,1,"<?xml version=""1.0""?>\n<Clock xmlns:dt=""urn:schemas-microsoft-com:datatypes""><Description dt:dt=""string"">E-Prime Primary Realtime Clock</Description><StartTime><Timestamp dt:dt=""int"">0</Timestamp><DateUtc dt:dt=""string"">2014-05-14T22:07:37Z</DateUtc></StartTime><FrequencyChanges><FrequencyChange><Frequency dt:dt=""r8"">2793030000</Frequency><Timestamp dt:dt=""r8"">1.72701197054844E+15</Timestamp><Current dt:dt=""r8"">0</Current><DateUtc dt:dt=""string"">2014-05-14T22:07:37Z</DateUtc></FrequencyChange></FrequencyChanges></Clock>\n",60.03,1,1853972574,0,,-999999,12,90533,t,48892,139425,5/14/2014,15:07:37,,2,Session2,SessionsList,0,,-999999,11,788168,t,34388,822556,768162,2,1,2,4,,,,,,,,4,1,4,NonCued4,MiniBlocks2,,,,1300729,9,1,b,-999999,3,1442542,b,530,1443072,Green,Congruent,b,White,0,,0,1,1435545,,0,0,,,,,,,,,,,,,Pictures\white.bmp,6000,2000,Pictures\black.bmp,,,,,,,,,,9,1,9,StimulusPr,Pictures\GreenRight.bmp,NonCuedStim4,Right
POP_2,16059,1,"<?xml version=""1.0""?>\n<Clock xmlns:dt=""urn:schemas-microsoft-com:datatypes""><Description dt:dt=""string"">E-Prime Primary Realtime Clock</Description><StartTime><Timestamp dt:dt=""int"">0</Timestamp><DateUtc dt:dt=""string"">2014-05-14T22:07:37Z</DateUtc></StartTime><FrequencyChanges><FrequencyChange><Frequency dt:dt=""r8"">2793030000</Frequency><Timestamp dt:dt=""r8"">1.72701197054844E+15</Timestamp><Current dt:dt=""r8"">0</Current><DateUtc dt:dt=""string"">2014-05-14T22:07:37Z</DateUtc></FrequencyChange></FrequencyChanges></Clock>\n",60.03,1,1853972574,0,,-999999,12,90533,t,48892,139425,5/14/2014,15:07:37,,2,Session2,SessionsList,0,,-999999,11,788168,t,34388,822556,768162,2,1,2,4,,,,,,,,4,1,4,NonCued4,MiniBlocks2,,,,1300729,10,1,b,-999999,13,1451570,b,1352,1452922,Green,Congruent,b,White,0,,0,9,1446556,,0,0,,,,,,,,,,,,,Pictures\white.bmp,4000,4000,Pictures\black.bmp,,,,,,,,,,10,1,10,StimulusPr,Pictures\GreenRight.bmp,NonCuedStim4,Right
