ExperimentName,Subject,Session,Clock.Information,Display.RefreshRate,Group,RandomSeed,Session1Onset.ACC,Session1Onset.CRESP,Session1Onset.DurationError,Session1Onset.OnsetDelay,Session1Onset.OnsetTime,Session1Onset.RESP,Session1Onset.RT,Session1Onset.RTTime,SessionDate,SessionTime,SessionTimeUtc,Block,Procedure[Block],Running[Block],Session2Onset.ACC,Session2Onset.CRESP,Session2Onset.DurationError,Session2Onset.OnsetDelay,Session2Onset.OnsetTime,Session2Onset.RESP,Session2Onset.RT,Session2Onset.RTTime,SessionBreak.OnsetTime,SessionsList,SessionsList.Cycle,SessionsList.Sample,Trial,CuedPrompt1.OnsetTime,CuedPrompt2.OnsetTime,CuedPrompt3.OnsetTime,CuedPrompt4.OnsetTime,MiniBlocks1,MiniBlocks1.Cycle,MiniBlocks1.Sample,MiniBlocks2,MiniBlocks2.Cycle,MiniBlocks2.Sample,Procedure[Trial],Running[Trial],UncuedPrompt1.OnsetTime,UncuedPrompt2.OnsetTime,UncuedPrompt3.OnsetTime,UncuedPrompt4.OnsetTime,SubTrial,Arrow1.ACC,Arrow1.CRESP,Arrow1.DurationError,Arrow1.OnsetDelay,Arrow1.OnsetTime,Arrow1.RESP,Arrow1.RT,Arrow1.RTTime,ArrowColor,Congruence,CorrectResp,Cue,Cue.ACC,Cue.CRESP,Cue.DurationError,Cue.OnsetDelay,Cue.OnsetTime,Cue.RESP,Cue.RT,Cue.RTTime,CuedStim1,CuedStim1.Cycle,CuedStim1.Sample,CuedStim2,CuedStim2.Cycle,CuedStim2.Sample,CuedStim3,CuedStim3.Cycle,CuedStim3.Sample,CuedStim4,CuedStim4.Cycle,CuedStim4.Sample,CueImage,JitterCue,JitterTrial,LeftImage,NonCuedStim1,NonCuedStim1.Cycle,NonCuedStim1.Sample,NonCuedStim2,NonCuedStim2.Cycle,NonCuedStim2.Sample,NonCuedStim3,NonCuedStim3.Cycle,NonCuedStim3.Sample,NonCuedStim4,NonCuedStim4.Cycle,NonCuedStim4.Sample,Procedure[SubTrial],RightImage,Running[SubTrial],Stimulus
POP_2,27015,1,"<?xml version=""1.0""?>\n<Clock xmlns:dt=""urn:schemas-microsoft-com:datatypes""><Description dt:dt=""string"">E-Prime Primary Realtime Clock</Description><StartTime><Timestamp dt:dt=""int"">0</Timestamp><DateUtc dt:dt=""string"">2014-04-30T22:14:17Z</DateUtc></StartTime><FrequencyChanges><FrequencyChange><Frequency dt:dt=""r8"">2793020000</Frequency><Timestamp dt:dt=""r8"">290587019932384</Timestamp><Current dt:dt=""r8"">0</Current><DateUtc dt:dt=""string"">2014-04-30T22:14:17Z</DateUtc></FrequencyChange></FrequencyChanges></Clock>\n",60.03,1,-1342417046,0,,-999999,4,21666,t,108613,130279,4/30/2014,15:14:17,,1,Session1,SessionsList,,,,,,,,,,1,1,1,1,,,,,,,,1,1,1,NonCued3,MiniBlocks2,,,130295,,1,1,b,-999999,17,150286,b,359,150645,Green,Congruent,b,White,0,,0,11,140290,,0,0,,,,,,,,,,,,,Pictures\white.bmp,9000,10000,Pictures\black.bmp,,,,,,,1,1,1,,,,StimulusPr,Pictures\GreenRight.bmp,NonCuedStim3,Right
POP_2,27015,1,"<?xml version=""1.0""?>\n<Clock xmlns:dt=""urn:schemas-microsoft-com:datatypes""><Description dt:dt=""string"">E-Prime Primary Realtime Clock</Description><StartTime><Timestamp dt:dt=""int"">0</Timestamp><DateUtc dt:dt=""string"">2014-04-30T22:14:17Z</DateUtc></StartTime><FrequencyChanges><FrequencyChange><Frequency dt:dt=""r8"">2793020000</Frequency><Timestamp dt:dt=""r8"">290587019932384</Timestamp><Current dt:dt=""r8"">0</Current><DateUtc dt:dt=""string"">2014-04-30T22:14:17Z</DateUtc></FrequencyChange></FrequencyChanges></Clock>\n",60.03,1,-1342417046,0,,-999999,4,21666,t,108613,130279,4/30/2014,15:14:17,,1,Session1,SessionsList,,,,,,,,,,1,1,1,1,,,,,,,,1,1,1,NonCued3,MiniBlocks2,,,130295,,2,1,r,-999999,11,172291,r,570,172861,Red,Incongruent,r,White,0,,0,16,162296,,0,0,,,,,,,,,,,,,Pictures\white.bmp,9000,10000,Pictures\black.bmp,,,,,,,2,1,2,,,,StimulusPr,Pictures\RedRight.bmp,NonCuedStim3,Right
POP_2,27015,1,"<?xml version=""1.0""?>\n<Clock xmlns:dt=""urn:schemas-microsoft-com:datatypes""><Description dt:dt=""string"">E-Prime Primary Realtime Clock</Description><StartTime><Timestamp dt:dt=""int"">0</Timestamp><DateUtc dt:dt=""string"">2014-04-30T22:14:17Z</DateUtc></StartTime><FrequencyChanges><FrequencyChange><Frequency dt:dt=""r8"">2793020000</Frequency><Timestamp dt:dt=""r8"">290587019932384</Timestamp><Current dt:dt=""r8"">0</Current><DateUtc dt:dt=""string"">2014-04-30T22:14:17Z</DateUtc></FrequencyChange></FrequencyChanges></Clock>\n",60.03,1,-1342417046,0,,-999999,4,21666,t,108613,130279,4/30/2014,15:14:17,,1,Session1,SessionsList,,,,,,,,,,1,1,1,1,,,,,,,,1,1,1,NonCued3,MiniBlocks2,,,130295,,3,1,r,-999999,3,189283,r,549,189832,Green,Congruent,r,White,0,,0,15,184285,,0,0,,,,,,,,,,,,,Pictures\white.bmp,4000,4000,Pictures\GreenLeft.bmp,,,,,,,3,1,3,,,,StimulusPr,Pictures\black.bmp,NonCuedStim3,Left
POP_2,27015,1,"<?xml version=""1.0""?>\n<Clock xmlns:dt=""urn:schemas-microsoft-com:datatypes""><Description dt:dt=""string"">E-Prime Primary Realtime Clock</Description><StartTime><Timestamp dt:dt=""int"">0</Timestamp><DateUtc dt:dt=""string"">2014-04-30T22:14:17Z</DateUtc></StartTime><FrequencyChanges><FrequencyChange><Frequency dt:dt=""r8"">2793020000</Frequency><Timestamp dt:dt=""r8"">290587019932384</Timestamp><Current dt:dt=""r8"">0</Current><DateUtc dt:dt=""string"">2014-04-30T22:14:17Z</DateUtc></FrequencyChange></FrequencyChanges></Clock>\n",60.03,1,-1342417046,0,,-999999,4,21666,t,108613,130279,4/30/2014,15:14:17,,1,Session1,SessionsList,,,,,,,,,,1,1,1,1,,,,,,,,1,1,1,NonCued3,MiniBlocks2,,,130295,,4,1,b,-999999,13,202293,b,602,202895,Red,Incongruent,b,White,0,,0,17,195297,,0,0,,,,,,,,,,,,,Pictures\white.bmp,6000,4000,Pictures\RedLeft.bmp,,,,,,,4,1,4,,,,StimulusPr,Pictures\black.bmp,NonCuedStim3,Left
POP_2,27015,1,"<?xml version=""1.0""?>\n<Clock xmlns:dt=""urn:schemas-microsoft-com:datatypes""><Description dt:dt=""string"">E-Prime Primary Realtime Clock</Description><StartTime><Timestamp dt:dt=""int"">0</Timestamp><DateUtc dt:dt=""string"">2014-04-30T22:14:17Z</DateUtc></StartTime><FrequencyChanges><FrequencyChange><Frequency dt:dt=""r8"">2793020000</Frequency><Timestamp dt:dt=""r8"">290587019932384</Timestamp><Current dt:dt=""r8"">0</Current><DateUtc dt:dt=""string"">2014-04-30T22:14:17Z</DateUtc></FrequencyChange></FrequencyChanges></Clock>\n",60.03,1,-1342417046,0,,-999999,4,21666,t,108613,130279,4/30/2014,15:14:17,,1,Session1,SessionsList,,,,,,,,,,1,1,1,1,,,,,,,,1,1,1,NonCued3,MiniBlocks2,,,130295,,5,1,b,-999999,9,212288,b,466,212754,Green,Congruent,b,White,0,,0,13,208290,,0,0,,,,,,,,,,,,,Pictures\white.bmp,3000,2000,Pictures\black.bmp,,,,,,,5,1,5,,,,StimulusPr,Pictures\GreenRight.bmp,NonCuedStim3,Right
POP_2,27015,1,"<?xml version=""1.0""?>\n<Clock xmlns:dt=""urn:schemas-microsoft-com:datatypes""><Description dt:dt=""string"">E-Prime Primary Realtime Clock</Description><StartTime><Timestamp dt:dt=""int"">0</Timestamp><DateUtc dt:dt=""string"">2014-04-30T22:14:17Z</DateUtc></StartTime><FrequencyChanges><FrequencyChange><Frequency dt:dt=""r8"">2793020000</Frequency><Timestamp dt:dt=""r8"">290587019932384</Timestamp><Current dt:dt=""r8"">0</Current><DateUtc dt:dt=""string"">2014-04-30T22:14:17Z</DateUtc></FrequencyChange></FrequencyChanges></Clock>\n",60.03,1,-1342417046,0,,-999999,4,21666,t,108613,130279,4/30/2014,15:14:17,,1,Session1,SessionsList,,,,,,,,,,1,1,1,1,,,,,,,,1,1,1,NonCued3,MiniBlocks2,,,130295,,6,1,r,-999999,5,220284,r,424,220708,Green,Congruent,r,White,0,,0,6,216286,,0,0,,,,,,,,,,,,,Pictures\white.bmp,3000,2000,Pictures\GreenLeft.bmp,,,,,,,6,1,6,,,,StimulusPr,Pictures\black.bmp,NonCuedStim3,Left
POP_2,27015,1,"<?xml version=""1.0""?>\n<Clock xmlns:dt=""urn:schemas-microsoft-com:datatypes""><Description dt:dt=""string"">E-Prime Primary Realtime Clock</Description><StartTime><Timestamp dt:dt=""int"">0</Timestamp><DateUtc dt:dt=""string"">2014-04-30T22:14:17Z</DateUtc></StartTime><FrequencyChanges><FrequencyChange><Frequency dt:dt=""r8"">2793020000</Frequency><Timestamp dt:dt=""r8"">290587019932384</Timestamp><Current dt:dt=""r8"">0</Current><DateUtc dt:dt=""string"">2014-04-30T22:14:17Z</DateUtc></FrequencyChange></FrequencyChanges></Clock>\n",60.03,1,-1342417046,0,,-999999,4,21666,t,108613,130279,4/30/2014,15:14:17,,1,Session1,SessionsList,,,,,,,,,,1,1,1,1,,,,,,,,1,1,1,NonCued3,MiniBlocks2,,,130295,,7,1,b,-999999,16,231295,b,397,231692,Green,Congruent,b,White,0,,0,2,224282,,0,0,,,,,,,,,,,,,Pictures\white.bmp,6000,16000,Pictures\black.bmp,,,,,,,7,1,7,,,,StimulusPr,Pictures\GreenRight.bmp,NonCuedStim3,Right
POP_2,27015,1,"<?xml version=""1.0""?>\n<Clock xmlns:dt=""urn:schemas-microsoft-com:datatypes""><Description dt:dt=""string"">E-Prime Primary Realtime Clock</Description><StartTime><Timestamp dt:dt=""int"">0</Timestamp><DateUtc dt:dt=""string"">2014-04-30T22:14:17Z</DateUtc></StartTime><FrequencyChanges><FrequencyChange><Frequency dt:dt=""r8"">2793020000</Frequency><Timestamp dt:dt=""r8"">290587019932384</Timestamp><Current dt:dt=""r8"">0</Current><DateUtc dt:dt=""string"">2014-04-30T22:14:17Z</DateUtc></FrequencyChange></FrequencyChanges></Clock>\n",60.03,1,-1342417046,0,,-999999,4,21666,t,108613,130279,4/30/2014,15:14:17,,1,Session1,SessionsList,,,,,,,,,,1,1,1,1,,,,,,,,1,1,1,NonCued3,MiniBlocks2,,,130295,,8,1,r,-999999,15,253285,r,392,253677,Red,Incongruent,r,White,0,,0,6,249286,,0,0,,,,,,,,,,,,,Pictures\white.bmp,3000,2000,Pictures\black.bmp,,,,,,,8,1,8,,,,StimulusPr,Pictures\RedRight.bmp,NonCuedStim3,Right
POP_2,27015,1,"<?xml version=""1.0""?>\n<Clock xmlns:dt=""urn:schemas-microsoft-com:datatypes""><Description dt:dt=""string"">E-Prime Primary Realtime Clock</Description><StartTime><Timestamp dt:dt=""int"">0</Timestamp><DateUtc dt:dt=""string"">2014-04-30T22:14:17Z</DateUtc></StartTime><FrequencyChanges><FrequencyChange><Frequency dt:dt=""r8"">2793020000</Frequency><Timestamp dt:dt=""r8"">290587019932384</Timestamp><Current dt:dt=""r8"">0</Current><DateUtc dt:dt=""string"">2014-04-30T22:14:17Z</DateUtc></FrequencyChange></FrequencyChanges></Clock>\n",60.03,1,-1342417046,0,,-999999,4,21666,t,108613,130279,4/30/2014,15:14:17,,1,Session1,SessionsList,,,,,,,,,,1,1,1,1,,,,,,,,1,1,1,NonCued3,MiniBlocks2,,,130295,,9,1,r,-999999,14,267294,r,289,267583,Green,Congruent,r,White,0,,0,2,257282,,0,0,,,,,,,,,,,,,Pictures\white.bmp,9000,10000,Pictures\GreenLeft.bmp,,,,,,,9,1,9,,,,StimulusPr,Pictures\black.bmp,NonCuedStim3,Left
POP_2,27015,1,"<?xml version=""1.0""?>\n<Clock xmlns:dt=""urn:schemas-microsoft-com:datatypes""><Description dt:dt=""string"">E-Prime Primary Realtime Clock</Description><StartTime><Timestamp dt:dt=""int"">0</Timestamp><DateUtc dt:dt=""string"">2014-04-30T22:14:17Z</DateUtc></StartTime><FrequencyChanges><FrequencyChange><Frequency dt:dt=""r8"">2793020000</Frequency><Timestamp dt:dt=""r8"">290587019932384</Timestamp><Current dt:dt=""r8"">0</Current><DateUtc dt:dt=""string"">2014-04-30T22:14:17Z</DateUtc></FrequencyChange></FrequencyChanges></Clock>\n",60.03,1,-1342417046,0,,-999999,4,21666,t,108613,130279,4/30/2014,15:14:17,,1,Session1,SessionsList,,,,,,,,,,1,1,1,1,,,,,,,,1,1,1,NonCued3,MiniBlocks2,,,130295,,10,1,r,-999999,5,286285,r,431,286716,Green,Congruent,r,White,0,,0,8,279288,,0,0,,,,,,,,,,,,,Pictures\white.bmp,6000,4000,Pictures\GreenLeft.bmp,,,,,,,10,1,10,,,,StimulusPr,Pictures\black.bmp,NonCuedStim3,Left
POP_2,27015,1,"<?xml version=""1.0""?>\n<Clock xmlns:dt=""urn:schemas-microsoft-com:datatypes""><Description dt:dt=""string"">E-Prime Primary Realtime Clock</Description><StartTime><Timestamp dt:dt=""int"">0</Timestamp><DateUtc dt:dt=""string"">2014-04-30T22:14:17Z</DateUtc></StartTime><FrequencyChanges><FrequencyChange><Frequency dt:dt=""r8"">2793020000</Frequency><Timestamp dt:dt=""r8"">290587019932384</Timestamp><Current dt:dt=""r8"">0</Current><DateUtc dt:dt=""string"">2014-04-30T22:14:17Z</DateUtc></FrequencyChange></FrequencyChanges></Clock>\n",60.03,1,-1342417046,0,,-999999,4,21666,t,108613,130279,4/30/2014,15:14:17,,1,Session1,SessionsList,,,,,,,,,,1,1,1,2,,,290733,,,,,2,1,2,Cued3,MiniBlocks2,,,,,1,1,b,-999999,13,304293,b,337,304630,White,Congruent,b,Green,0,,0,7,300278,,0,0,,,,,,,1,1,1,,,,Pictures\green.bmp,3000,2000,Pictures\black.bmp,,,,,,,,,,,,,StimulusPr,Pictures\right.bmp,CuedStim3,Right
POP_2,27015,1,"<?xml version=""1.0""?>\n<Clock xmlns:dt=""urn:schemas-microsoft-com:datatypes""><Description dt:dt=""string"">E-Prime Primary Realtime Clock</Description><StartTime><Timestamp dt:dt=""int"">0</Timestamp><DateUtc dt:dt=""string"">2014-04-30T22:14:17Z</DateUtc></StartTime><FrequencyChanges><FrequencyChange><Frequency dt:dt=""r8"">2793020000</Frequency><Timestamp dt:dt=""r8"">290587019932384</Timestamp><Current dt:dt=""r8"">0</Current><DateUtc dt:dt=""string"">2014-04-30T22:14:17Z</DateUtc></FrequencyChange></FrequencyChanges></Clock>\n",60.03,1,-1342417046,0,,-999999,4,21666,t,108613,130279,4/30/2014,15:14:17,,1,Session1,SessionsList,,,,,,,,,,1,1,1,2,,,290733,,,,,2,1,2,Cued3,MiniBlocks2,,,,,2,1,b,-999999,10,312272,b,280,312552,White,Congruent,b,Green,0,,0,4,308274,,0,0,,,,,,,2,1,2,,,,Pictures\green.bmp,3000,10000,Pictures\black.bmp,,,,,,,,,,,,,StimulusPr,Pictures\right.bmp,CuedStim3,Right
POP_2,27015,1,"<?xml version=""1.0""?>\n<Clock xmlns:dt=""urn:schemas-microsoft-com:datatypes""><Description dt:dt=""string"">E-Prime Primary Realtime Clock</Description><StartTime><Timestamp dt:dt=""int"">0</Timestamp><DateUtc dt:dt=""string"">2014-04-30T22:14:17Z</DateUtc></StartTime><FrequencyChanges><FrequencyChange><Frequency dt:dt=""r8"">2793020000</Frequency><Timestamp dt:dt=""r8"">290587019932384</Timestamp><Current dt:dt=""r8"">0</Current><DateUtc dt:dt=""string"">2014-04-30T22:14:17Z</DateUtc></FrequencyChange></FrequencyChanges></Clock>\n",60.03,1,-1342417046,0,,-999999,4,21666,t,108613,130279,4/30/2014,15:14:17,,1,Session1,SessionsList,,,,,,,,,,1,1,1,2,,,290733,,,,,2,1,2,Cued3,MiniBlocks2,,,,,3,1,r,-999999,16,334278,r,305,334583,White,Congruent,r,Green,0,,0,2,324283,,0,0,,,,,,,3,1,3,,,,Pictures\green.bmp,9000,2000,Pictures\left.bmp,,,,,,,,,,,,,StimulusPr,Pictures\black.bmp,CuedStim3,Left
POP_2,27015,1,"<?xml version=""1.0""?>\n<Clock xmlns:dt=""urn:schemas-microsoft-com:datatypes""><Description dt:dt=""string"">E-Prime Primary Realtime Clock</Description><StartTime><Timestamp dt:dt=""int"">0</Timestamp><DateUtc dt:dt=""string"">2014-04-30T22:14:17Z</DateUtc></StartTime><FrequencyChanges><FrequencyChange><Frequency dt:dt=""r8"">2793020000</Frequency><Timestamp dt:dt=""r8"">290587019932384</Timestamp><Current dt:dt=""r8"">0</Current><DateUtc dt:dt=""string"">2014-04-30T22:14:17Z</DateUtc></FrequencyChange></FrequencyChanges></Clock>\n",60.03,1,-1342417046,0,,-999999,4,21666,t,108613,130279,4/30/2014,15:14:17,,1,Session1,SessionsList,,,,,,,,,,1,1,1,2,,,290733,,,,,2,1,2,Cued3,MiniBlocks2,,,,,4,1,r,-999999,9,343290,r,450,343740,White,Congruent,r,Green,0,,0,6,338276,,0,0,,,,,,,4,1,4,,,,Pictures\green.bmp,4000,16000,Pictures\left.bmp,,,,,,,,,,,,,StimulusPr,Pictures\black.bmp,CuedStim3,Left
POP_2,27015,1,"<?xml version=""1.0""?>\n<Clock xmlns:dt=""urn:schemas-microsoft-com:datatypes""><Description dt:dt=""string"">E-Prime Primary Realtime Clock</Description><StartTime><Timestamp dt:dt=""int"">0</Timestamp><DateUtc dt:dt=""string"">2014-04-30T22:14:17Z</DateUtc></StartTime><FrequencyChanges><FrequencyChange><Frequency dt:dt=""r8"">2793020000</Frequency><Timestamp dt:dt=""r8"">290587019932384</Timestamp><Current dt:dt=""r8"">0</Current><DateUtc dt:dt=""string"">2014-04-30T22:14:17Z</DateUtc></FrequencyChange></FrequencyChanges></Clock>\n",60.03,1,-1342417046,0,,-999999,4,21666,t,108613,130279,4/30/2014,15:14:17,,1,Session1,SessionsList,,,,,,,,,,1,1,1,2,,,290733,,,,,2,1,2,Cued3,MiniBlocks2,,,,,5,1,r,-999999,16,365296,r,286,365582,White,Incongruent,r,Red,0,,0,3,361281,,0,0,,,,,,,5,1,5,,,,Pictures\red.bmp,3000,4000,Pictures\black.bmp,,,,,,,,,,,,,StimulusPr,Pictures\right.bmp,CuedStim3,Right
POP_2,27015,1,"<?xml version=""1.0""?>\n<Clock xmlns:dt=""urn:schemas-microsoft-com:datatypes""><Description dt:dt=""string"">E-Prime Primary Realtime Clock</Description><StartTime><Timestamp dt:dt=""int"">0</Timestamp><DateUtc dt:dt=""string"">2014-04-30T22:14:17Z</DateUtc></StartTime><FrequencyChanges><FrequencyChange><Frequency dt:dt=""r8"">2793020000</Frequency><Timestamp dt:dt=""r8"">290587019932384</Timestamp><Current dt:dt=""r8"">0</Current><DateUtc dt:dt=""string"">2014-04-30T22:14:17Z</DateUtc></FrequencyChange></FrequencyChanges></Clock>\n",60.03,1,-1342417046,0,,-999999,4,21666,t,108613,130279,4/30/2014,15:14:17,,1,Session1,SessionsList,,,,,,,,,,1,1,1,2,,,290733,,,,,2,1,2,Cued3,MiniBlocks2,,,,,6,1,b,-999999,9,378289,b,294,378583,White,Congruent,b,Green,0,,0,12,371293,,0,0,,,,,,,6,1,6,,,,Pictures\green.bmp,6000,4000,Pictures\black.bmp,,,,,,,,,,,,,StimulusPr,Pictures\right.bmp,CuedStim3,Right
POP_2,27015,1,"<?xml version=""1.0""?>\n<Clock xmlns:dt=""urn:schemas-microsoft-com:datatypes""><Description dt:dt=""string"">E-Prime Primary Realtime Clock</Description><StartTime><Timestamp dt:dt=""int"">0</Timestamp><DateUtc dt:dt=""string"">2014-04-30T22:14:17Z</DateUtc></StartTime><FrequencyChanges><FrequencyChange><Frequency dt:dt=""r8"">2793020000</Frequency><Timestamp dt:dt=""r8"">290587019932384</Timestamp><Current dt:dt=""r8"">0</Current><DateUtc dt:dt=""string"">2014-04-30T22:14:17Z</DateUtc></FrequencyChange></FrequencyChanges></Clock>\n",60.03,1,-1342417046,0,,-999999,4,21666,t,108613,130279,4/30/2014,15:14:17,,1,Session1,SessionsList,,,,,,,,,,1,1,1,2,,,290733,,,,,2,1,2,Cued3,MiniBlocks2,,,,,7,1,r,-999999,3,389268,r,284,389552,White,Congruent,r,Green,0,,0,16,384286,,0,0,,,,,,,7,1,7,,,,Pictures\green.bmp,4000,16000,Pictures\left.bmp,,,,,,,,,,,,,StimulusPr,Pictures\black.bmp,CuedStim3,Left
POP_2,27015,1,"<?xml version=""1.0""?>\n<Clock xmlns:dt=""urn:schemas-microsoft-com:datatypes""><Description dt:dt=""string"">E-Prime Primary Realtime Clock</Description><StartTime><Timestamp dt:dt=""int"">0</Timestamp><DateUtc dt:dt=""string"">2014-04-30T22:14:17Z</DateUtc></StartTime><FrequencyChanges><FrequencyChange><Frequency dt:dt=""r8"">2793020000</Frequency><Timestamp dt:dt=""r8"">290587019932384</Timestamp><Current dt:dt=""r8"">0</Current><DateUtc dt:dt=""string"">2014-04-30T22:14:17Z</DateUtc></FrequencyChange></FrequencyChanges></Clock>\n",60.03,1,-1342417046,0,,-999999,4,21666,t,108613,130279,4/30/2014,15:14:17,,1,Session1,SessionsList,,,,,,,,,,1,1,1,2,,,290733,,,,,2,1,2,Cued3,MiniBlocks2,,,,,8,1,b,-999999,8,411289,b,310,411599,White,Incongruent,b,Red,0,,0,10,407291,,0,0,,,,,,,8,1,8,,,,Pictures\red.bmp,3000,2000,Pictures\left.bmp,,,,,,,,,,,,,StimulusPr,Pictures\black.bmp,CuedStim3,Left
POP_2,27015,1,"<?xml version=""1.0""?>\n<Clock xmlns:dt=""urn:schemas-microsoft-com:datatypes""><Description dt:dt=""string"">E-Prime Primary Realtime Clock</Description><StartTime><Timestamp dt:dt=""int"">0</Timestamp><DateUtc dt:dt=""string"">2014-04-30T22:14:17Z</DateUtc></StartTime><FrequencyChanges><FrequencyChange><Frequency dt:dt=""r8"">2793020000</Frequency><Timestamp dt:dt=""r8"">290587019932384</Timestamp><Current dt:dt=""r8"">0</Current><DateUtc dt:dt=""string"">2014-04-30T22:14:17Z</DateUtc></FrequencyChange></FrequencyChanges></Clock>\n",60.03,1,-1342417046,0,,-999999,4,21666,t,108613,130279,4/30/2014,15:14:17,,1,Session1,SessionsList,,,,,,,,,,1,1,1,2,,,290733,,,,,2,1,2,Cued3,MiniBlocks2,,,,,9,1,r,-999999,15,419285,r,455,419740,White,Congruent,r,Green,0,,0,6,415287,,0,0,,,,,,,9,1,9,,,,Pictures\green.bmp,3000,2000,Pictures\left.bmp,,,,,,,,,,,,,StimulusPr,Pictures\black.bmp,CuedStim3,Left
POP_2,27015,1,"<?xml version=""1.0""?>\n<Clock xmlns:dt=""urn:schemas-microsoft-com:datatypes""><Description dt:dt=""string"">E-Prime Primary Realtime Clock</Description><StartTime><Timestamp dt:dt=""int"">0</Timestamp><DateUtc dt:dt=""string"">2014-04-30T22:14:17Z</DateUtc></StartTime><FrequencyChanges><FrequencyChange><Frequency dt:dt=""r8"">2793020000</Frequency><Timestamp dt:dt=""r8"">290587019932384</Timestamp><Current dt:dt=""r8"">0</Current><DateUtc dt:dt=""string"">2014-04-30T22:14:17Z</DateUtc></FrequencyChange></FrequencyChanges></Clock>\n",60.03,1,-1342417046,0,,-999999,4,21666,t,108613,130279,4/30/2014,15:14:17,,1,Session1,SessionsList,,,,,,,,,,1,1,1,2,,,290733,,,,,2,1,2,Cued3,MiniBlocks2,,,,,10,1,b,-999999,14,433295,b,288,433583,White,Congruent,b,Green,0,,0,12,423283,,0,0,,,,,,,10,1,10,,,,Pictures\green.bmp,9000,10000,Pictures\black.bmp,,,,,,,,,,,,,StimulusPr,Pictures\right.bmp,CuedStim3,Right
POP_2,27015,1,"<?xml version=""1.0""?>\n<Clock xmlns:dt=""urn:schemas-microsoft-com:datatypes""><Description dt:dt=""string"">E-Prime Primary Realtime Clock</Description><StartTime><Timestamp dt:dt=""int"">0</Timestamp><DateUtc dt:dt=""string"">2014-04-30T22:14:17Z</DateUtc></StartTime><FrequencyChanges><FrequencyChange><Frequency dt:dt=""r8"">2793020000</Frequency><Timestamp dt:dt=""r8"">290587019932384</Timestamp><Current dt:dt=""r8"">0</Current><DateUtc dt:dt=""string"">2014-04-30T22:14:17Z</DateUtc></FrequencyChange></FrequencyChanges></Clock>\n",60.03,1,-1342417046,0,,-999999,4,21666,t,108613,130279,4/30/2014,15:14:17,,1,Session1,SessionsList,,,,,,,,,,1,1,1,3,,,,443607,,,,3,1,3,Cued4,MiniBlocks2,,,,,1,0,b,-999999,11,460282,r,645,460927,White,Congruent,b,Green,0,,0,4,453285,,0,0,,,,,,,,,,1,1,1,Pictures\green.bmp,6000,2000,Pictures\black.bmp,,,,,,,,,,,,,StimulusPr,Pictures\right.bmp,CuedStim4,Right
POP_2,27015,1,"<?xml version=""1.0""?>\n<Clock xmlns:dt=""urn:schemas-microsoft-com:datatypes""><Description dt:dt=""string"">E-Prime Primary Realtime Clock</Description><StartTime><Timestamp dt:dt=""int"">0</Timestamp><DateUtc dt:dt=""string"">2014-04-30T22:14:17Z</DateUtc></StartTime><FrequencyChanges><FrequencyChange><Frequency dt:dt=""r8"">2793020000</Frequency><Timestamp dt:dt=""r8"">290587019932384</Timestamp><Current dt:dt=""r8"">0</Current><DateUtc dt:dt=""string"">2014-04-30T22:14:17Z</DateUtc></FrequencyChange></FrequencyChanges></Clock>\n",60.03,1,-1342417046,0,,-999999,4,21666,t,108613,130279,4/30/2014,15:14:17,,1,Session1,SessionsList,,,,,,,,,,1,1,1,3,,,,443607,,,,3,1,3,Cued4,MiniBlocks2,,,,,2,1,r,-999999,11,474292,r,305,474597,White,Incongruent,r,Red,0,,0,16,464297,,0,0,,,,,,,,,,2,1,2,Pictures\red.bmp,9000,2000,Pictures\black.bmp,,,,,,,,,,,,,StimulusPr,Pictures\right.bmp,CuedStim4,Right
POP_2,27015,1,"<?xml version=""1.0""?>\n<Clock xmlns:dt=""urn:schemas-microsoft-com:datatypes""><Description dt:dt=""string"">E-Prime Primary Realtime Clock</Description><StartTime><Timestamp dt:dt=""int"">0</Timestamp><DateUtc dt:dt=""string"">2014-04-30T22:14:17Z</DateUtc></StartTime><FrequencyChanges><FrequencyChange><Frequency dt:dt=""r8"">2793020000</Frequency><Timestamp dt:dt=""r8"">290587019932384</Timestamp><Current dt:dt=""r8"">0</Current><DateUtc dt:dt=""string"">2014-04-30T22:14:17Z</DateUtc></FrequencyChange></FrequencyChanges></Clock>\n",60.03,1,-1342417046,0,,-999999,4,21666,t,108613,130279,4/30/2014,15:14:17,,1,Session1,SessionsList,,,,,,,,,,1,1,1,3,,,,443607,,,,3,1,3,Cued4,MiniBlocks2,,,,,3,1,b,-999999,17,482288,b,373,482661,White,Congruent,b,Green,0,,0,5,478273,,0,0,,,,,,,,,,3,1,3,Pictures\green.bmp,3000,4000,Pictures\black.bmp,,,,,,,,,,,,,StimulusPr,Pictures\right.bmp,CuedStim4,Right
POP_2,27015,1,"<?xml version=""1.0""?>\n<Clock xmlns:dt=""urn:schemas-microsoft-com:datatypes""><Description dt:dt=""string"">E-Prime Primary Realtime Clock</Description><StartTime><Timestamp dt:dt=""int"">0</Timestamp><DateUtc dt:dt=""string"">2014-04-30T22:14:17Z</DateUtc></StartTime><FrequencyChanges><FrequencyChange><Frequency dt:dt=""r8"">2793020000</Frequency><Timestamp dt:dt=""r8"">290587019932384</Timestamp><Current dt:dt=""r8"">0</Current><DateUtc dt:dt=""string"">2014-04-30T22:14:17Z</DateUtc></FrequencyChange></FrequencyChanges></Clock>\n",60.03,1,-1342417046,0,,-999999,4,21666,t,108613,130279,4/30/2014,15:14:17,,1,Session1,SessionsList,,,,,,,,,,1,1,1,3,,,,443607,,,,3,1,3,Cued4,MiniBlocks2,,,,,4,1,r,-999999,17,492299,r,347,492646,White,Congruent,r,Green,0,,0,4,488285,,0,0,,,,,,,,,,4,1,4,Pictures\green.bmp,3000,4000,Pictures\left.bmp,,,,,,,,,,,,,StimulusPr,Pictures\black.bmp,CuedStim4,Left
POP_2,27015,1,"<?xml version=""1.0""?>\n<Clock xmlns:dt=""urn:schemas-microsoft-com:datatypes""><Description dt:dt=""string"">E-Prime Primary Realtime Clock</Description><StartTime><Timestamp dt:dt=""int"">0</Timestamp><DateUtc dt:dt=""string"">2014-04-30T22:14:17Z</DateUtc></StartTime><FrequencyChanges><FrequencyChange><Frequency dt:dt=""r8"">2793020000</Frequency><Timestamp dt:dt=""r8"">290587019932384</Timestamp><Current dt:dt=""r8"">0</Current><DateUtc dt:dt=""string"">2014-04-30T22:14:17Z</DateUtc></FrequencyChange></FrequencyChanges></Clock>\n",60.03,1,-1342417046,0,,-999999,4,21666,t,108613,130279,4/30/2014,15:14:17,,1,Session1,SessionsList,,,,,,,,,,1,1,1,3,,,,443607,,,,3,1,3,Cued4,MiniBlocks2,,,,,5,1,b,-999999,6,503277,b,603,503880,White,Incongruent,b,Red,0,,0,9,498280,,0,0,,,,,,,,,,5,1,5,Pictures\red.bmp,4000,16000,Pictures\left.bmp,,,,,,,,,,,,,StimulusPr,Pictures\black.bmp,CuedStim4,Left
POP_2,27015,1,"<?xml version=""1.0""?>\n<Clock xmlns:dt=""urn:schemas-microsoft-com:datatypes""><Description dt:dt=""string"">E-Prime Primary Realtime Clock</Description><StartTime><Timestamp dt:dt=""int"">0</Timestamp><DateUtc dt:dt=""string"">2014-04-30T22:14:17Z</DateUtc></StartTime><FrequencyChanges><FrequencyChange><Frequency dt:dt=""r8"">2793020000</Frequency><Timestamp dt:dt=""r8"">290587019932384</Timestamp><Current dt:dt=""r8"">0</Current><DateUtc dt:dt=""string"">2014-04-30T22:14:17Z</DateUtc></FrequencyChange></FrequencyChanges></Clock>\n",60.03,1,-1342417046,0,,-999999,4,21666,t,108613,130279,4/30/2014,15:14:17,,1,Session1,SessionsList,,,,,,,,,,1,1,1,3,,,,443607,,,,3,1,3,Cued4,MiniBlocks2,,,,,6,1,b,-999999,19,525300,b,502,525802,White,Congruent,b,Green,0,,0,4,521285,,0,0,,,,,,,,,,6,1,6,Pictures\green.bmp,3000,2000,Pictures\black.bmp,,,,,,,,,,,,,StimulusPr,Pictures\right.bmp,CuedStim4,Right
POP_2,27015,1,"<?xml version=""1.0""?>\n<Clock xmlns:dt=""urn:schemas-microsoft-com:datatypes""><Description dt:dt=""string"">E-Prime Primary Realtime Clock</Description><StartTime><Timestamp dt:dt=""int"">0</Timestamp><DateUtc dt:dt=""string"">2014-04-30T22:14:17Z</DateUtc></StartTime><FrequencyChanges><FrequencyChange><Frequency dt:dt=""r8"">2793020000</Frequency><Timestamp dt:dt=""r8"">290587019932384</Timestamp><Current dt:dt=""r8"">0</Current><DateUtc dt:dt=""string"">2014-04-30T22:14:17Z</DateUtc></FrequencyChange></FrequencyChanges></Clock>\n",60.03,1,-1342417046,0,,-999999,4,21666,t,108613,130279,4/30/2014,15:14:17,,1,Session1,SessionsList,,,,,,,,,,1,1,1,3,,,,443607,,,,3,1,3,Cued4,MiniBlocks2,,,,,7,1,b,-999999,12,539293,b,353,539646,White,Congruent,b,Green,0,,0,17,529298,,0,0,,,,,,,,,,7,1,7,Pictures\green.bmp,9000,10000,Pictures\black.bmp,,,,,,,,,,,,,StimulusPr,Pictures\right.bmp,CuedStim4,Right
POP_2,27015,1,"<?xml version=""1.0""?>\n<Clock xmlns:dt=""urn:schemas-microsoft-com:datatypes""><Description dt:dt=""string"">E-Prime Primary Realtime Clock</Description><StartTime><Timestamp dt:dt=""int"">0</Timestamp><DateUtc dt:dt=""string"">2014-04-30T22:14:17Z</DateUtc></StartTime><FrequencyChanges><FrequencyChange><Frequency dt:dt=""r8"">2793020000</Frequency><Timestamp dt:dt=""r8"">290587019932384</Timestamp><Current dt:dt=""r8"">0</Current><DateUtc dt:dt=""string"">2014-04-30T22:14:17Z</DateUtc></FrequencyChange></FrequencyChanges></Clock>\n",60.03,1,-1342417046,0,,-999999,4,21666,t,108613,130279,4/30/2014,15:14:17,,1,Session1,SessionsList,,,,,,,,,,1,1,1,3,,,,443607,,,,3,1,3,Cued4,MiniBlocks2,,,,,8,1,b,-999999,12,558283,b,316,558599,White,Incongruent,b,Red,0,,0,16,551287,,0,0,,,,,,,,,,8,1,8,Pictures\red.bmp,6000,10000,Pictures\left.bmp,,,,,,,,,,,,,StimulusPr,Pictures\black.bmp,CuedStim4,Left
POP_2,27015,1,"<?xml version=""1.0""?>\n<Clock xmlns:dt=""urn:schemas-microsoft-com:datatypes""><Description dt:dt=""string"">E-Prime Primary Realtime Clock</Description><StartTime><Timestamp dt:dt=""int"">0</Timestamp><DateUtc dt:dt=""string"">2014-04-30T22:14:17Z</DateUtc></StartTime><FrequencyChanges><FrequencyChange><Frequency dt:dt=""r8"">2793020000</Frequency><Timestamp dt:dt=""r8"">290587019932384</Timestamp><Current dt:dt=""r8"">0</Current><DateUtc dt:dt=""string"">2014-04-30T22:14:17Z</DateUtc></FrequencyChange></FrequencyChanges></Clock>\n",60.03,1,-1342417046,0,,-999999,4,21666,t,108613,130279,4/30/2014,15:14:17,,1,Session1,SessionsList,,,,,,,,,,1,1,1,3,,,,443607,,,,3,1,3,Cued4,MiniBlocks2,,,,,9,1,r,-999999,3,577274,r,278,577552,White,Congruent,r,Green,0,,0,7,570277,,0,0,,,,,,,,,,9,1,9,Pictures\green.bmp,6000,16000,Pictures\left.bmp,,,,,,,,,,,,,StimulusPr,Pictures\black.bmp,CuedStim4,Left
POP_2,27015,1,"<?xml version=""1.0""?>\n<Clock xmlns:dt=""urn:schemas-microsoft-com:datatypes""><Description dt:dt=""string"">E-Prime Primary Realtime Clock</Description><StartTime><Timestamp dt:dt=""int"">0</Timestamp><DateUtc dt:dt=""string"">2014-04-30T22:14:17Z</DateUtc></StartTime><FrequencyChanges><FrequencyChange><Frequency dt:dt=""r8"">2793020000</Frequency><Timestamp dt:dt=""r8"">290587019932384</Timestamp><Current dt:dt=""r8"">0</Current><DateUtc dt:dt=""string"">2014-04-30T22:14:17Z</DateUtc></FrequencyChange></FrequencyChanges></Clock>\n",60.03,1,-1342417046,0,,-999999,4,21666,t,108613,130279,4/30/2014,15:14:17,,1,Session1,SessionsList,,,,,,,,,,1,1,1,3,,,,443607,,,,3,1,3,Cued4,MiniBlocks2,,,,,10,1,r,-999999,4,600279,r,336,600615,White,Congruent,r,Green,0,,0,6,595282,,0,0,,,,,,,,,,10,1,10,Pictures\green.bmp,4000,2000,Pictures\left.bmp,,,,,,,,,,,,,StimulusPr,Pictures\black.bmp,CuedStim4,Left
POP_2,27015,1,"<?xml version=""1.0""?>\n<Clock xmlns:dt=""urn:schemas-microsoft-com:datatypes""><Description dt:dt=""string"">E-Prime Primary Realtime Clock</Description><StartTime><Timestamp dt:dt=""int"">0</Timestamp><DateUtc dt:dt=""string"">2014-04-30T22:14:17Z</DateUtc></StartTime><FrequencyChanges><FrequencyChange><Frequency dt:dt=""r8"">2793020000</Frequency><Timestamp dt:dt=""r8"">290587019932384</Timestamp><Current dt:dt=""r8"">0</Current><DateUtc dt:dt=""string"">2014-04-30T22:14:17Z</DateUtc></FrequencyChange></FrequencyChanges></Clock>\n",60.03,1,-1342417046,0,,-999999,4,21666,t,108613,130279,4/30/2014,15:14:17,,1,Session1,SessionsList,,,,,,,,,,1,1,1,4,,,,,,,,4,1,4,NonCued4,MiniBlocks2,,,,602645,1,1,r,-999999,7,616271,r,375,616646,Green,Congruent,r,White,0,,0,16,612290,,0,0,,,,,,,,,,,,,Pictures\white.bmp,3000,2000,Pictures\GreenLeft.bmp,,,,,,,,,,1,1,1,StimulusPr,Pictures\black.bmp,NonCuedStim4,Left
POP_2,27015,1,"<?xml version=""1.0""?>\n<Clock xmlns:dt=""urn:schemas-microsoft-com:datatypes""><Description dt:dt=""string"">E-Prime Primary Realtime Clock</Description><StartTime><Timestamp dt:dt=""int"">0</Timestamp><DateUtc dt:dt=""string"">2014-04-30T22:14:17Z</DateUtc></StartTime><FrequencyChanges><FrequencyChange><Frequency dt:dt=""r8"">2793020000</Frequency><Timestamp dt:dt=""r8"">290587019932384</Timestamp><Current dt:dt=""r8"">0</Current><DateUtc dt:dt=""string"">2014-04-30T22:14:17Z</DateUtc></FrequencyChange></FrequencyChanges></Clock>\n",60.03,1,-1342417046,0,,-999999,4,21666,t,108613,130279,4/30/2014,15:14:17,,1,Session1,SessionsList,,,,,,,,,,1,1,1,4,,,,,,,,4,1,4,NonCued4,MiniBlocks2,,,,602645,2,1,r,-999999,18,625300,r,295,625595,Green,Congruent,r,White,0,,0,15,620286,,0,0,,,,,,,,,,,,,Pictures\white.bmp,4000,2000,Pictures\GreenLeft.bmp,,,,,,,,,,2,1,2,StimulusPr,Pictures\black.bmp,NonCuedStim4,Left
POP_2,27015,1,"<?xml version=""1.0""?>\n<Clock xmlns:dt=""urn:schemas-microsoft-com:datatypes""><Description dt:dt=""string"">E-Prime Primary Realtime Clock</Description><StartTime><Timestamp dt:dt=""int"">0</Timestamp><DateUtc dt:dt=""string"">2014-04-30T22:14:17Z</DateUtc></StartTime><FrequencyChanges><FrequencyChange><Frequency dt:dt=""r8"">2793020000</Frequency><Timestamp dt:dt=""r8"">290587019932384</Timestamp><Current dt:dt=""r8"">0</Current><DateUtc dt:dt=""string"">2014-04-30T22:14:17Z</DateUtc></FrequencyChange></FrequencyChanges></Clock>\n",60.03,1,-1342417046,0,,-999999,4,21666,t,108613,130279,4/30/2014,15:14:17,,1,Session1,SessionsList,,,,,,,,,,1,1,1,4,,,,,,,,4,1,4,NonCued4,MiniBlocks2,,,,602645,3,1,r,-999999,15,634296,r,600,634896,Red,Incongruent,r,White,0,,0,2,629265,,0,0,,,,,,,,,,,,,Pictures\white.bmp,4000,2000,Pictures\black.bmp,,,,,,,,,,3,1,3,StimulusPr,Pictures\RedRight.bmp,NonCuedStim4,Right
POP_2,27015,1,"<?xml version=""1.0""?>\n<Clock xmlns:dt=""urn:schemas-microsoft-com:datatypes""><Description dt:dt=""string"">E-Prime Primary Realtime Clock</Description><StartTime><Timestamp dt:dt=""int"">0</Timestamp><DateUtc dt:dt=""string"">2014-04-30T22:14:17Z</DateUtc></StartTime><FrequencyChanges><FrequencyChange><Frequency dt:dt=""r8"">2793020000</Frequency><Timestamp dt:dt=""r8"">290587019932384</Timestamp><Current dt:dt=""r8"">0</Current><DateUtc dt:dt=""string"">2014-04-30T22:14:17Z</DateUtc></FrequencyChange></FrequencyChanges></Clock>\n",60.03,1,-1342417046,0,,-999999,4,21666,t,108613,130279,4/30/2014,15:14:17,,1,Session1,SessionsList,,,,,,,,,,1,1,1,4,,,,,,,,4,1,4,NonCued4,MiniBlocks2,,,,602645,4,1,b,-999999,11,642292,b,450,642742,Green,Congruent,b,White,0,,0,6,638277,,0,0,,,,,,,,,,,,,Pictures\white.bmp,3000,16000,Pictures\black.bmp,,,,,,,,,,4,1,4,StimulusPr,Pictures\GreenRight.bmp,NonCuedStim4,Right
POP_2,27015,1,"<?xml version=""1.0""?>\n<Clock xmlns:dt=""urn:schemas-microsoft-com:datatypes""><Description dt:dt=""string"">E-Prime Primary Realtime Clock</Description><StartTime><Timestamp dt:dt=""int"">0</Timestamp><DateUtc dt:dt=""string"">2014-04-30T22:14:17Z</DateUtc></StartTime><FrequencyChanges><FrequencyChange><Frequency dt:dt=""r8"">2793020000</Frequency><Timestamp dt:dt=""r8"">290587019932384</Timestamp><Current dt:dt=""r8"">0</Current><DateUtc dt:dt=""string"">2014-04-30T22:14:17Z</DateUtc></FrequencyChange></FrequencyChanges></Clock>\n",60.03,1,-1342417046,0,,-999999,4,21666,t,108613,130279,4/30/2014,15:14:17,,1,Session1,SessionsList,,,,,,,,,,1,1,1,4,,,,,,,,4,1,4,NonCued4,MiniBlocks2,,,,602645,5,1,r,-999999,13,670294,r,352,670646,Green,Congruent,r,White,0,,0,6,660283,,0,0,,,,,,,,,,,,,Pictures\white.bmp,9000,10000,Pictures\GreenLeft.bmp,,,,,,,,,,5,1,5,StimulusPr,Pictures\black.bmp,NonCuedStim4,Left
POP_2,27015,1,"<?xml version=""1.0""?>\n<Clock xmlns:dt=""urn:schemas-microsoft-com:datatypes""><Description dt:dt=""string"">E-Prime Primary Realtime Clock</Description><StartTime><Timestamp dt:dt=""int"">0</Timestamp><DateUtc dt:dt=""string"">2014-04-30T22:14:17Z</DateUtc></StartTime><FrequencyChanges><FrequencyChange><Frequency dt:dt=""r8"">2793020000</Frequency><Timestamp dt:dt=""r8"">290587019932384</Timestamp><Current dt:dt=""r8"">0</Current><DateUtc dt:dt=""string"">2014-04-30T22:14:17Z</DateUtc></FrequencyChange></FrequencyChanges></Clock>\n",60.03,1,-1342417046,0,,-999999,4,21666,t,108613,130279,4/30/2014,15:14:17,,1,Session1,SessionsList,,,,,,,,,,1,1,1,4,,,,,,,,4,1,4,NonCued4,MiniBlocks2,,,,602645,6,1,b,-999999,4,686286,b,298,686584,Green,Congruent,b,White,0,,0,16,682288,,0,0,,,,,,,,,,,,,Pictures\white.bmp,3000,16000,Pictures\black.bmp,,,,,,,,,,6,1,6,StimulusPr,Pictures\GreenRight.bmp,NonCuedStim4,Right
POP_2,27015,1,"<?xml version=""1.0""?>\n<Clock xmlns:dt=""urn:schemas-microsoft-com:datatypes""><Description dt:dt=""string"">E-Prime Primary Realtime Clock</Description><StartTime><Timestamp dt:dt=""int"">0</Timestamp><DateUtc dt:dt=""string"">2014-04-30T22:14:17Z</DateUtc></StartTime><FrequencyChanges><FrequencyChange><Frequency dt:dt=""r8"">2793020000</Frequency><Timestamp dt:dt=""r8"">290587019932384</Timestamp><Current dt:dt=""r8"">0</Current><DateUtc dt:dt=""string"">2014-04-30T22:14:17Z</DateUtc></FrequencyChange></FrequencyChanges></Clock>\n",60.03,1,-1342417046,0,,-999999,4,21666,t,108613,130279,4/30/2014,15:14:17,,1,Session1,SessionsList,,,,,,,,,,1,1,1,4,,,,,,,,4,1,4,NonCued4,MiniBlocks2,,,,602645,7,1,b,-999999,10,708292,b,573,708865,Red,Incongruent,b,White,0,,0,12,704294,,0,0,,,,,,,,,,,,,Pictures\white.bmp,3000,16000,Pictures\RedLeft.bmp,,,,,,,,,,7,1,7,StimulusPr,Pictures\black.bmp,NonCuedStim4,Left
POP_2,27015,1,"<?xml version=""1.0""?>\n<Clock xmlns:dt=""urn:schemas-microsoft-com:datatypes""><Description dt:dt=""string"">E-Prime Primary Realtime Clock</Description><StartTime><Timestamp dt:dt=""int"">0</Timestamp><DateUtc dt:dt=""string"">2014-04-30T22:14:17Z</DateUtc></StartTime><FrequencyChanges><FrequencyChange><Frequency dt:dt=""r8"">2793020000</Frequency><Timestamp dt:dt=""r8"">290587019932384</Timestamp><Current dt:dt=""r8"">0</Current><DateUtc dt:dt=""string"">2014-04-30T22:14:17Z</DateUtc></FrequencyChange></FrequencyChanges></Clock>\n",60.03,1,-1342417046,0,,-999999,4,21666,t,108613,130279,4/30/2014,15:14:17,,1,Session1,SessionsList,,,,,,,,,,1,1,1,4,,,,,,,,4,1,4,NonCued4,MiniBlocks2,,,,602645,8,1,r,-999999,14,730281,r,756,731037,Green,Congruent,r,White,0,,0,2,726267,,0,0,,,,,,,,,,,,,Pictures\white.bmp,3000,2000,Pictures\GreenLeft.bmp,,,,,,,,,,8,1,8,StimulusPr,Pictures\black.bmp,NonCuedStim4,Left
POP_2,27015,1,"<?xml version=""1.0""?>\n<Clock xmlns:dt=""urn:schemas-microsoft-com:datatypes""><Description dt:dt=""string"">E-Prime Primary Realtime Clock</Description><StartTime><Timestamp dt:dt=""int"">0</Timestamp><DateUtc dt:dt=""string"">2014-04-30T22:14:17Z</DateUtc></StartTime><FrequencyChanges><FrequencyChange><Frequency dt:dt=""r8"">2793020000</Frequency><Timestamp dt:dt=""r8"">290587019932384</Timestamp><Current dt:dt=""r8"">0</Current><DateUtc dt:dt=""string"">2014-04-30T22:14:17Z</DateUtc></FrequencyChange></FrequencyChanges></Clock>\n",60.03,1,-1342417046,0,,-999999,4,21666,t,108613,130279,4/30/2014,15:14:17,,1,Session1,SessionsList,,,,,,,,,,1,1,1,4,,,,,,,,4,1,4,NonCued4,MiniBlocks2,,,,602645,9,1,b,-999999,5,741276,b,386,741662,Green,Congruent,b,White,0,,0,15,734296,,0,0,,,,,,,,,,,,,Pictures\white.bmp,6000,2000,Pictures\black.bmp,,,,,,,,,,9,1,9,StimulusPr,Pictures\GreenRight.bmp,NonCuedStim4,Right
POP_2,27015,1,"<?xml version=""1.0""?>\n<Clock xmlns:dt=""urn:schemas-microsoft-com:datatypes""><Description dt:dt=""string"">E-Prime Primary Realtime Clock</Description><StartTime><Timestamp dt:dt=""int"">0</Timestamp><DateUtc dt:dt=""string"">2014-04-30T22:14:17Z</DateUtc></StartTime><FrequencyChanges><FrequencyChange><Frequency dt:dt=""r8"">2793020000</Frequency><Timestamp dt:dt=""r8"">290587019932384</Timestamp><Current dt:dt=""r8"">0</Current><DateUtc dt:dt=""string"">2014-04-30T22:14:17Z</DateUtc></FrequencyChange></FrequencyChanges></Clock>\n",60.03,1,-1342417046,0,,-999999,4,21666,t,108613,130279,4/30/2014,15:14:17,,1,Session1,SessionsList,,,,,,,,,,1,1,1,4,,,,,,,,4,1,4,NonCued4,MiniBlocks2,,,,602645,10,1,b,-999999,6,750288,b,406,750694,Green,Congruent,b,White,0,,0,8,745290,,0,0,,,,,,,,,,,,,Pictures\white.bmp,4000,4000,Pictures\black.bmp,,,,,,,,,,10,1,10,StimulusPr,Pictures\GreenRight.bmp,NonCuedStim4,Right
POP_2,27015,1,"<?xml version=""1.0""?>\n<Clock xmlns:dt=""urn:schemas-microsoft-com:datatypes""><Description dt:dt=""string"">E-Prime Primary Realtime Clock</Description><StartTime><Timestamp dt:dt=""int"">0</Timestamp><DateUtc dt:dt=""string"">2014-04-30T22:14:17Z</DateUtc></StartTime><FrequencyChanges><FrequencyChange><Frequency dt:dt=""r8"">2793020000</Frequency><Timestamp dt:dt=""r8"">290587019932384</Timestamp><Current dt:dt=""r8"">0</Current><DateUtc dt:dt=""string"">2014-04-30T22:14:17Z</DateUtc></FrequencyChange></FrequencyChanges></Clock>\n",60.03,1,-1342417046,0,,-999999,4,21666,t,108613,130279,4/30/2014,15:14:17,,2,Session2,SessionsList,0,,-999999,3,768962,t,33395,802357,754719,2,1,2,1,802362,,,,1,1,1,,,,Cued1,MiniBlocks1,,,,,1,0,r,-999999,15,816372,b,452,816824,White,Congruent,r,Green,0,,0,2,811358,,0,0,1,1,1,,,,,,,,,,Pictures\green.bmp,4000,4000,Pictures\left.bmp,,,,,,,,,,,,,StimulusPr,Pictures\black.bmp,CuedStim1,Left
POP_2,27015,1,"<?xml version=""1.0""?>\n<Clock xmlns:dt=""urn:schemas-microsoft-com:datatypes""><Description dt:dt=""string"">E-Prime Primary Realtime Clock</Description><StartTime><Timestamp dt:dt=""int"">0</Timestamp><DateUtc dt:dt=""string"">2014-04-30T22:14:17Z</DateUtc></StartTime><FrequencyChanges><FrequencyChange><Frequency dt:dt=""r8"">2793020000</Frequency><Timestamp dt:dt=""r8"">290587019932384</Timestamp><Current dt:dt=""r8"">0</Current><DateUtc dt:dt=""string"">2014-04-30T22:14:17Z</DateUtc></FrequencyChange></FrequencyChanges></Clock>\n",60.03,1,-1342417046,0,,-999999,4,21666,t,108613,130279,4/30/2014,15:14:17,,2,Session2,SessionsList,0,,-999999,3,768962,t,33395,802357,754719,2,1,2,1,802362,,,,1,1,1,,,,Cued1,MiniBlocks1,,,,,2,1,b,-999999,8,829349,b,282,829631,White,Congruent,b,Green,0,,0,12,822369,,0,0,2,1,2,,,,,,,,,,Pictures\green.bmp,6000,2000,Pictures\black.bmp,,,,,,,,,,,,,StimulusPr,Pictures\right.bmp,CuedStim1,Right
POP_2,27015,1,"<?xml version=""1.0""?>\n<Clock xmlns:dt=""urn:schemas-microsoft-com:datatypes""><Description dt:dt=""string"">E-Prime Primary Realtime Clock</Description><StartTime><Timestamp dt:dt=""int"">0</Timestamp><DateUtc dt:dt=""string"">2014-04-30T22:14:17Z</DateUtc></StartTime><FrequencyChanges><FrequencyChange><Frequency dt:dt=""r8"">2793020000</Frequency><Timestamp dt:dt=""r8"">290587019932384</Timestamp><Current dt:dt=""r8"">0</Current><DateUtc dt:dt=""string"">2014-04-30T22:14:17Z</DateUtc></FrequencyChange></FrequencyChanges></Clock>\n",60.03,1,-1342417046,0,,-999999,4,21666,t,108613,130279,4/30/2014,15:14:17,,2,Session2,SessionsList,0,,-999999,3,768962,t,33395,802357,754719,2,1,2,1,802362,,,,1,1,1,,,,Cued1,MiniBlocks1,,,,,3,1,b,-999999,5,837362,b,409,837771,White,Congruent,b,Green,0,,0,7,833364,,0,0,3,1,3,,,,,,,,,,Pictures\green.bmp,3000,2000,Pictures\black.bmp,,,,,,,,,,,,,StimulusPr,Pictures\right.bmp,CuedStim1,Right
POP_2,27015,1,"<?xml version=""1.0""?>\n<Clock xmlns:dt=""urn:schemas-microsoft-com:datatypes""><Description dt:dt=""string"">E-Prime Primary Realtime Clock</Description><StartTime><Timestamp dt:dt=""int"">0</Timestamp><DateUtc dt:dt=""string"">2014-04-30T22:14:17Z</DateUtc></StartTime><FrequencyChanges><FrequencyChange><Frequency dt:dt=""r8"">2793020000</Frequency><Timestamp dt:dt=""r8"">290587019932384</Timestamp><Current dt:dt=""r8"">0</Current><DateUtc dt:dt=""string"">2014-04-30T22:14:17Z</DateUtc></FrequencyChange></FrequencyChanges></Clock>\n",60.03,1,-1342417046,0,,-999999,4,21666,t,108613,130279,4/30/2014,15:14:17,,2,Session2,SessionsList,0,,-999999,3,768962,t,33395,802357,754719,2,1,2,1,802362,,,,1,1,1,,,,Cued1,MiniBlocks1,,,,,4,1,b,-999999,11,845358,b,356,845714,White,Incongruent,b,Red,0,,0,3,841360,,0,0,4,1,4,,,,,,,,,,Pictures\red.bmp,3000,16000,Pictures\left.bmp,,,,,,,,,,,,,StimulusPr,Pictures\black.bmp,CuedStim1,Left
POP_2,27015,1,"<?xml version=""1.0""?>\n<Clock xmlns:dt=""urn:schemas-microsoft-com:datatypes""><Description dt:dt=""string"">E-Prime Primary Realtime Clock</Description><StartTime><Timestamp dt:dt=""int"">0</Timestamp><DateUtc dt:dt=""string"">2014-04-30T22:14:17Z</DateUtc></StartTime><FrequencyChanges><FrequencyChange><Frequency dt:dt=""r8"">2793020000</Frequency><Timestamp dt:dt=""r8"">290587019932384</Timestamp><Current dt:dt=""r8"">0</Current><DateUtc dt:dt=""string"">2014-04-30T22:14:17Z</DateUtc></FrequencyChange></FrequencyChanges></Clock>\n",60.03,1,-1342417046,0,,-999999,4,21666,t,108613,130279,4/30/2014,15:14:17,,2,Session2,SessionsList,0,,-999999,3,768962,t,33395,802357,754719,2,1,2,1,802362,,,,1,1,1,,,,Cued1,MiniBlocks1,,,,,5,1,r,-999999,6,867363,r,515,867878,White,Congruent,r,Green,0,,0,8,863365,,0,0,5,1,5,,,,,,,,,,Pictures\green.bmp,3000,16000,Pictures\left.bmp,,,,,,,,,,,,,StimulusPr,Pictures\black.bmp,CuedStim1,Left
POP_2,27015,1,"<?xml version=""1.0""?>\n<Clock xmlns:dt=""urn:schemas-microsoft-com:datatypes""><Description dt:dt=""string"">E-Prime Primary Realtime Clock</Description><StartTime><Timestamp dt:dt=""int"">0</Timestamp><DateUtc dt:dt=""string"">2014-04-30T22:14:17Z</DateUtc></StartTime><FrequencyChanges><FrequencyChange><Frequency dt:dt=""r8"">2793020000</Frequency><Timestamp dt:dt=""r8"">290587019932384</Timestamp><Current dt:dt=""r8"">0</Current><DateUtc dt:dt=""string"">2014-04-30T22:14:17Z</DateUtc></FrequencyChange></FrequencyChanges></Clock>\n",60.03,1,-1342417046,0,,-999999,4,21666,t,108613,130279,4/30/2014,15:14:17,,2,Session2,SessionsList,0,,-999999,3,768962,t,33395,802357,754719,2,1,2,1,802362,,,,1,1,1,,,,Cued1,MiniBlocks1,,,,,6,1,r,-999999,9,895366,r,343,895709,White,Congruent,r,Green,0,,0,14,885371,,0,0,6,1,6,,,,,,,,,,Pictures\green.bmp,9000,10000,Pictures\left.bmp,,,,,,,,,,,,,StimulusPr,Pictures\black.bmp,CuedStim1,Left
POP_2,27015,1,"<?xml version=""1.0""?>\n<Clock xmlns:dt=""urn:schemas-microsoft-com:datatypes""><Description dt:dt=""string"">E-Prime Primary Realtime Clock</Description><StartTime><Timestamp dt:dt=""int"">0</Timestamp><DateUtc dt:dt=""string"">2014-04-30T22:14:17Z</DateUtc></StartTime><FrequencyChanges><FrequencyChange><Frequency dt:dt=""r8"">2793020000</Frequency><Timestamp dt:dt=""r8"">290587019932384</Timestamp><Current dt:dt=""r8"">0</Current><DateUtc dt:dt=""string"">2014-04-30T22:14:17Z</DateUtc></FrequencyChange></FrequencyChanges></Clock>\n",60.03,1,-1342417046,0,,-999999,4,21666,t,108613,130279,4/30/2014,15:14:17,,2,Session2,SessionsList,0,,-999999,3,768962,t,33395,802357,754719,2,1,2,1,802362,,,,1,1,1,,,,Cued1,MiniBlocks1,,,,,7,1,b,-999999,3,911342,b,570,911912,White,Congruent,b,Green,0,,0,14,907360,,0,0,7,1,7,,,,,,,,,,Pictures\green.bmp,3000,16000,Pictures\black.bmp,,,,,,,,,,,,,StimulusPr,Pictures\right.bmp,CuedStim1,Right
POP_2,27015,1,"<?xml version=""1.0""?>\n<Clock xmlns:dt=""urn:schemas-microsoft-com:datatypes""><Description dt:dt=""string"">E-Prime Primary Realtime Clock</Description><StartTime><Timestamp dt:dt=""int"">0</Timestamp><DateUtc dt:dt=""string"">2014-04-30T22:14:17Z</DateUtc></StartTime><FrequencyChanges><FrequencyChange><Frequency dt:dt=""r8"">2793020000</Frequency><Timestamp dt:dt=""r8"">290587019932384</Timestamp><Current dt:dt=""r8"">0</Current><DateUtc dt:dt=""string"">2014-04-30T22:14:17Z</DateUtc></FrequencyChange></FrequencyChanges></Clock>\n",60.03,1,-1342417046,0,,-999999,4,21666,t,108613,130279,4/30/2014,15:14:17,,2,Session2,SessionsList,0,,-999999,3,768962,t,33395,802357,754719,2,1,2,1,802362,,,,1,1,1,,,,Cued1,MiniBlocks1,,,,,8,1,r,-999999,13,934363,r,346,934709,White,Incongruent,r,Red,0,,0,16,929366,,0,0,8,1,8,,,,,,,,,,Pictures\red.bmp,4000,2000,Pictures\black.bmp,,,,,,,,,,,,,StimulusPr,Pictures\right.bmp,CuedStim1,Right
POP_2,27015,1,"<?xml version=""1.0""?>\n<Clock xmlns:dt=""urn:schemas-microsoft-com:datatypes""><Description dt:dt=""string"">E-Prime Primary Realtime Clock</Description><StartTime><Timestamp dt:dt=""int"">0</Timestamp><DateUtc dt:dt=""string"">2014-04-30T22:14:17Z</DateUtc></StartTime><FrequencyChanges><FrequencyChange><Frequency dt:dt=""r8"">2793020000</Frequency><Timestamp dt:dt=""r8"">290587019932384</Timestamp><Current dt:dt=""r8"">0</Current><DateUtc dt:dt=""string"">2014-04-30T22:14:17Z</DateUtc></FrequencyChange></FrequencyChanges></Clock>\n",60.03,1,-1342417046,0,,-999999,4,21666,t,108613,130279,4/30/2014,15:14:17,,2,Session2,SessionsList,0,,-999999,3,768962,t,33395,802357,754719,2,1,2,1,802362,,,,1,1,1,,,,Cued1,MiniBlocks1,,,,,9,1,b,-999999,18,943376,b,271,943647,White,Congruent,b,Green,0,,0,13,938361,,0,0,9,1,9,,,,,,,,,,Pictures\green.bmp,4000,2000,Pictures\black.bmp,,,,,,,,,,,,,StimulusPr,Pictures\right.bmp,CuedStim1,Right
POP_2,27015,1,"<?xml version=""1.0""?>\n<Clock xmlns:dt=""urn:schemas-microsoft-com:datatypes""><Description dt:dt=""string"">E-Prime Primary Realtime Clock</Description><StartTime><Timestamp dt:dt=""int"">0</Timestamp><DateUtc dt:dt=""string"">2014-04-30T22:14:17Z</DateUtc></StartTime><FrequencyChanges><FrequencyChange><Frequency dt:dt=""r8"">2793020000</Frequency><Timestamp dt:dt=""r8"">290587019932384</Timestamp><Current dt:dt=""r8"">0</Current><DateUtc dt:dt=""string"">2014-04-30T22:14:17Z</DateUtc></FrequencyChange></FrequencyChanges></Clock>\n",60.03,1,-1342417046,0,,-999999,4,21666,t,108613,130279,4/30/2014,15:14:17,,2,Session2,SessionsList,0,,-999999,3,768962,t,33395,802357,754719,2,1,2,1,802362,,,,1,1,1,,,,Cued1,MiniBlocks1,,,,,10,1,r,-999999,15,951372,r,494,951866,White,Congruent,r,Green,0,,0,2,947341,,0,0,10,1,10,,,,,,,,,,Pictures\green.bmp,3000,2000,Pictures\left.bmp,,,,,,,,,,,,,StimulusPr,Pictures\black.bmp,CuedStim1,Left
POP_2,27015,1,"<?xml version=""1.0""?>\n<Clock xmlns:dt=""urn:schemas-microsoft-com:datatypes""><Description dt:dt=""string"">E-Prime Primary Realtime Clock</Description><StartTime><Timestamp dt:dt=""int"">0</Timestamp><DateUtc dt:dt=""string"">2014-04-30T22:14:17Z</DateUtc></StartTime><FrequencyChanges><FrequencyChange><Frequency dt:dt=""r8"">2793020000</Frequency><Timestamp dt:dt=""r8"">290587019932384</Timestamp><Current dt:dt=""r8"">0</Current><DateUtc dt:dt=""string"">2014-04-30T22:14:17Z</DateUtc></FrequencyChange></FrequencyChanges></Clock>\n",60.03,1,-1342417046,0,,-999999,4,21666,t,108613,130279,4/30/2014,15:14:17,,2,Session2,SessionsList,0,,-999999,3,768962,t,33395,802357,754719,2,1,2,2,,,,,2,1,2,,,,NonCued1,MiniBlocks1,953887,,,,1,1,r,-999999,6,969363,r,627,969990,Green,Congruent,r,White,0,,0,8,964365,,0,0,,,,,,,,,,,,,Pictures\white.bmp,4000,2000,Pictures\GreenLeft.bmp,1,1,1,,,,,,,,,,StimulusPr,Pictures\black.bmp,NonCuedStim1,Left
POP_2,27015,1,"<?xml version=""1.0""?>\n<Clock xmlns:dt=""urn:schemas-microsoft-com:datatypes""><Description dt:dt=""string"">E-Prime Primary Realtime Clock</Description><StartTime><Timestamp dt:dt=""int"">0</Timestamp><DateUtc dt:dt=""string"">2014-04-30T22:14:17Z</DateUtc></StartTime><FrequencyChanges><FrequencyChange><Frequency dt:dt=""r8"">2793020000</Frequency><Timestamp dt:dt=""r8"">290587019932384</Timestamp><Current dt:dt=""r8"">0</Current><DateUtc dt:dt=""string"">2014-04-30T22:14:17Z</DateUtc></FrequencyChange></FrequencyChanges></Clock>\n",60.03,1,-1342417046,0,,-999999,4,21666,t,108613,130279,4/30/2014,15:14:17,,2,Session2,SessionsList,0,,-999999,3,768962,t,33395,802357,754719,2,1,2,2,,,,,2,1,2,,,,NonCued1,MiniBlocks1,953887,,,,2,1,b,-999999,17,980374,b,367,980741,Green,Congruent,b,White,0,,0,4,973361,,0,0,,,,,,,,,,,,,Pictures\white.bmp,6000,16000,Pictures\black.bmp,2,1,2,,,,,,,,,,StimulusPr,Pictures\GreenRight.bmp,NonCuedStim1,Right
POP_2,27015,1,"<?xml version=""1.0""?>\n<Clock xmlns:dt=""urn:schemas-microsoft-com:datatypes""><Description dt:dt=""string"">E-Prime Primary Realtime Clock</Description><StartTime><Timestamp dt:dt=""int"">0</Timestamp><DateUtc dt:dt=""string"">2014-04-30T22:14:17Z</DateUtc></StartTime><FrequencyChanges><FrequencyChange><Frequency dt:dt=""r8"">2793020000</Frequency><Timestamp dt:dt=""r8"">290587019932384</Timestamp><Current dt:dt=""r8"">0</Current><DateUtc dt:dt=""string"">2014-04-30T22:14:17Z</DateUtc></FrequencyChange></FrequencyChanges></Clock>\n",60.03,1,-1342417046,0,,-999999,4,21666,t,108613,130279,4/30/2014,15:14:17,,2,Session2,SessionsList,0,,-999999,3,768962,t,33395,802357,754719,2,1,2,2,,,,,2,1,2,,,,NonCued1,MiniBlocks1,953887,,,,3,1,r,-999999,13,1005362,r,421,1005783,Red,Incongruent,r,White,0,,0,7,998365,,0,0,,,,,,,,,,,,,Pictures\white.bmp,6000,10000,Pictures\black.bmp,3,1,3,,,,,,,,,,StimulusPr,Pictures\RedRight.bmp,NonCuedStim1,Right
POP_2,27015,1,"<?xml version=""1.0""?>\n<Clock xmlns:dt=""urn:schemas-microsoft-com:datatypes""><Description dt:dt=""string"">E-Prime Primary Realtime Clock</Description><StartTime><Timestamp dt:dt=""int"">0</Timestamp><DateUtc dt:dt=""string"">2014-04-30T22:14:17Z</DateUtc></StartTime><FrequencyChanges><FrequencyChange><Frequency dt:dt=""r8"">2793020000</Frequency><Timestamp dt:dt=""r8"">290587019932384</Timestamp><Current dt:dt=""r8"">0</Current><DateUtc dt:dt=""string"">2014-04-30T22:14:17Z</DateUtc></FrequencyChange></FrequencyChanges></Clock>\n",60.03,1,-1342417046,0,,-999999,4,21666,t,108613,130279,4/30/2014,15:14:17,,2,Session2,SessionsList,0,,-999999,3,768962,t,33395,802357,754719,2,1,2,2,,,,,2,1,2,,,,NonCued1,MiniBlocks1,953887,,,,4,1,r,-999999,9,1027367,r,421,1027788,Green,Congruent,r,White,0,,0,15,1017356,,0,0,,,,,,,,,,,,,Pictures\white.bmp,9000,10000,Pictures\GreenLeft.bmp,4,1,4,,,,,,,,,,StimulusPr,Pictures\black.bmp,NonCuedStim1,Left
POP_2,27015,1,"<?xml version=""1.0""?>\n<Clock xmlns:dt=""urn:schemas-microsoft-com:datatypes""><Description dt:dt=""string"">E-Prime Primary Realtime Clock</Description><StartTime><Timestamp dt:dt=""int"">0</Timestamp><DateUtc dt:dt=""string"">2014-04-30T22:14:17Z</DateUtc></StartTime><FrequencyChanges><FrequencyChange><Frequency dt:dt=""r8"">2793020000</Frequency><Timestamp dt:dt=""r8"">290587019932384</Timestamp><Current dt:dt=""r8"">0</Current><DateUtc dt:dt=""string"">2014-04-30T22:14:17Z</DateUtc></FrequencyChange></FrequencyChanges></Clock>\n",60.03,1,-1342417046,0,,-999999,4,21666,t,108613,130279,4/30/2014,15:14:17,,2,Session2,SessionsList,0,,-999999,3,768962,t,33395,802357,754719,2,1,2,2,,,,,2,1,2,,,,NonCued1,MiniBlocks1,953887,,,,5,1,b,-999999,4,1043359,b,507,1043866,Green,Congruent,b,White,0,,0,4,1039361,,0,0,,,,,,,,,,,,,Pictures\white.bmp,3000,2000,Pictures\black.bmp,5,1,5,,,,,,,,,,StimulusPr,Pictures\GreenRight.bmp,NonCuedStim1,Right
POP_2,27015,1,"<?xml version=""1.0""?>\n<Clock xmlns:dt=""urn:schemas-microsoft-com:datatypes""><Description dt:dt=""string"">E-Prime Primary Realtime Clock</Description><StartTime><Timestamp dt:dt=""int"">0</Timestamp><DateUtc dt:dt=""string"">2014-04-30T22:14:17Z</DateUtc></StartTime><FrequencyChanges><FrequencyChange><Frequency dt:dt=""r8"">2793020000</Frequency><Timestamp dt:dt=""r8"">290587019932384</Timestamp><Current dt:dt=""r8"">0</Current><DateUtc dt:dt=""string"">2014-04-30T22:14:17Z</DateUtc></FrequencyChange></FrequencyChanges></Clock>\n",60.03,1,-1342417046,0,,-999999,4,21666,t,108613,130279,4/30/2014,15:14:17,,2,Session2,SessionsList,0,,-999999,3,768962,t,33395,802357,754719,2,1,2,2,,,,,2,1,2,,,,NonCued1,MiniBlocks1,953887,,,,6,0,b,-999999,14,1052372,r,416,1052788,Red,Incongruent,b,White,0,,0,7,1047357,,0,0,,,,,,,,,,,,,Pictures\white.bmp,4000,16000,Pictures\RedLeft.bmp,6,1,6,,,,,,,,,,StimulusPr,Pictures\black.bmp,NonCuedStim1,Left
POP_2,27015,1,"<?xml version=""1.0""?>\n<Clock xmlns:dt=""urn:schemas-microsoft-com:datatypes""><Description dt:dt=""string"">E-Prime Primary Realtime Clock</Description><StartTime><Timestamp dt:dt=""int"">0</Timestamp><DateUtc dt:dt=""string"">2014-04-30T22:14:17Z</DateUtc></StartTime><FrequencyChanges><FrequencyChange><Frequency dt:dt=""r8"">2793020000</Frequency><Timestamp dt:dt=""r8"">290587019932384</Timestamp><Current dt:dt=""r8"">0</Current><DateUtc dt:dt=""string"">2014-04-30T22:14:17Z</DateUtc></FrequencyChange></FrequencyChanges></Clock>\n",60.03,1,-1342417046,0,,-999999,4,21666,t,108613,130279,4/30/2014,15:14:17,,2,Session2,SessionsList,0,,-999999,3,768962,t,33395,802357,754719,2,1,2,2,,,,,2,1,2,,,,NonCued1,MiniBlocks1,953887,,,,7,1,b,-999999,15,1074361,b,313,1074674,Green,Congruent,b,White,0,,0,16,1070363,,0,0,,,,,,,,,,,,,Pictures\white.bmp,3000,4000,Pictures\black.bmp,7,1,7,,,,,,,,,,StimulusPr,Pictures\GreenRight.bmp,NonCuedStim1,Right
POP_2,27015,1,"<?xml version=""1.0""?>\n<Clock xmlns:dt=""urn:schemas-microsoft-com:datatypes""><Description dt:dt=""string"">E-Prime Primary Realtime Clock</Description><StartTime><Timestamp dt:dt=""int"">0</Timestamp><DateUtc dt:dt=""string"">2014-04-30T22:14:17Z</DateUtc></StartTime><FrequencyChanges><FrequencyChange><Frequency dt:dt=""r8"">2793020000</Frequency><Timestamp dt:dt=""r8"">290587019932384</Timestamp><Current dt:dt=""r8"">0</Current><DateUtc dt:dt=""string"">2014-04-30T22:14:17Z</DateUtc></FrequencyChange></FrequencyChanges></Clock>\n",60.03,1,-1342417046,0,,-999999,4,21666,t,108613,130279,4/30/2014,15:14:17,,2,Session2,SessionsList,0,,-999999,3,768962,t,33395,802357,754719,2,1,2,2,,,,,2,1,2,,,,NonCued1,MiniBlocks1,953887,,,,8,1,b,-999999,13,1084372,b,400,1084772,Green,Congruent,b,White,0,,0,4,1080358,,0,0,,,,,,,,,,,,,Pictures\white.bmp,3000,4000,Pictures\black.bmp,8,1,8,,,,,,,,,,StimulusPr,Pictures\GreenRight.bmp,NonCuedStim1,Right
POP_2,27015,1,"<?xml version=""1.0""?>\n<Clock xmlns:dt=""urn:schemas-microsoft-com:datatypes""><Description dt:dt=""string"">E-Prime Primary Realtime Clock</Description><StartTime><Timestamp dt:dt=""int"">0</Timestamp><DateUtc dt:dt=""string"">2014-04-30T22:14:17Z</DateUtc></StartTime><FrequencyChanges><FrequencyChange><Frequency dt:dt=""r8"">2793020000</Frequency><Timestamp dt:dt=""r8"">290587019932384</Timestamp><Current dt:dt=""r8"">0</Current><DateUtc dt:dt=""string"">2014-04-30T22:14:17Z</DateUtc></FrequencyChange></FrequencyChanges></Clock>\n",60.03,1,-1342417046,0,,-999999,4,21666,t,108613,130279,4/30/2014,15:14:17,,2,Session2,SessionsList,0,,-999999,3,768962,t,33395,802357,754719,2,1,2,2,,,,,2,1,2,,,,NonCued1,MiniBlocks1,953887,,,,9,1,b,-999999,4,1100348,b,502,1100850,Red,Incongruent,b,White,0,,0,11,1090369,,0,0,,,,,,,,,,,,,Pictures\white.bmp,9000,2000,Pictures\RedLeft.bmp,9,1,9,,,,,,,,,,StimulusPr,Pictures\black.bmp,NonCuedStim1,Left
POP_2,27015,1,"<?xml version=""1.0""?>\n<Clock xmlns:dt=""urn:schemas-microsoft-com:datatypes""><Description dt:dt=""string"">E-Prime Primary Realtime Clock</Description><StartTime><Timestamp dt:dt=""int"">0</Timestamp><DateUtc dt:dt=""string"">2014-04-30T22:14:17Z</DateUtc></StartTime><FrequencyChanges><FrequencyChange><Frequency dt:dt=""r8"">2793020000</Frequency><Timestamp dt:dt=""r8"">290587019932384</Timestamp><Current dt:dt=""r8"">0</Current><DateUtc dt:dt=""string"">2014-04-30T22:14:17Z</DateUtc></FrequencyChange></FrequencyChanges></Clock>\n",60.03,1,-1342417046,0,,-999999,4,21666,t,108613,130279,4/30/2014,15:14:17,,2,Session2,SessionsList,0,,-999999,3,768962,t,33395,802357,754719,2,1,2,2,,,,,2,1,2,,,,NonCued1,MiniBlocks1,953887,,,,10,1,r,-999999,18,1111376,r,490,1111866,Green,Congruent,r,White,0,,0,4,1104346,,0,0,,,,,,,,,,,,,Pictures\white.bmp,6000,2000,Pictures\GreenLeft.bmp,10,1,10,,,,,,,,,,StimulusPr,Pictures\black.bmp,NonCuedStim1,Left
POP_2,27015,1,"<?xml version=""1.0""?>\n<Clock xmlns:dt=""urn:schemas-microsoft-com:datatypes""><Description dt:dt=""string"">E-Prime Primary Realtime Clock</Description><StartTime><Timestamp dt:dt=""int"">0</Timestamp><DateUtc dt:dt=""string"">2014-04-30T22:14:17Z</DateUtc></StartTime><FrequencyChanges><FrequencyChange><Frequency dt:dt=""r8"">2793020000</Frequency><Timestamp dt:dt=""r8"">290587019932384</Timestamp><Current dt:dt=""r8"">0</Current><DateUtc dt:dt=""string"">2014-04-30T22:14:17Z</DateUtc></FrequencyChange></FrequencyChanges></Clock>\n",60.03,1,-1342417046,0,,-999999,4,21666,t,108613,130279,4/30/2014,15:14:17,,2,Session2,SessionsList,0,,-999999,3,768962,t,33395,802357,754719,2,1,2,3,,,,,3,1,3,,,,NonCued2,MiniBlocks1,,1113891,,,1,1,b,-999999,6,1134364,b,502,1134866,Green,Congruent,b,White,0,,0,11,1124369,,0,0,,,,,,,,,,,,,Pictures\white.bmp,9000,10000,Pictures\black.bmp,,,,1,1,1,,,,,,,StimulusPr,Pictures\GreenRight.bmp,NonCuedStim2,Right
POP_2,27015,1,"<?xml version=""1.0""?>\n<Clock xmlns:dt=""urn:schemas-microsoft-com:datatypes""><Description dt:dt=""string"">E-Prime Primary Realtime Clock</Description><StartTime><Timestamp dt:dt=""int"">0</Timestamp><DateUtc dt:dt=""string"">2014-04-30T22:14:17Z</DateUtc></StartTime><FrequencyChanges><FrequencyChange><Frequency dt:dt=""r8"">2793020000</Frequency><Timestamp dt:dt=""r8"">290587019932384</Timestamp><Current dt:dt=""r8"">0</Current><DateUtc dt:dt=""string"">2014-04-30T22:14:17Z</DateUtc></FrequencyChange></FrequencyChanges></Clock>\n",60.03,1,-1342417046,0,,-999999,4,21666,t,108613,130279,4/30/2014,15:14:17,,2,Session2,SessionsList,0,,-999999,3,768962,t,33395,802357,754719,2,1,2,3,,,,,3,1,3,,,,NonCued2,MiniBlocks1,,1113891,,,2,1,r,-999999,15,1150373,r,462,1150835,Green,Congruent,r,White,0,,0,17,1146375,,0,0,,,,,,,,,,,,,Pictures\white.bmp,3000,2000,Pictures\GreenLeft.bmp,,,,2,1,2,,,,,,,StimulusPr,Pictures\black.bmp,NonCuedStim2,Left
POP_2,27015,1,"<?xml version=""1.0""?>\n<Clock xmlns:dt=""urn:schemas-microsoft-com:datatypes""><Description dt:dt=""string"">E-Prime Primary Realtime Clock</Description><StartTime><Timestamp dt:dt=""int"">0</Timestamp><DateUtc dt:dt=""string"">2014-04-30T22:14:17Z</DateUtc></StartTime><FrequencyChanges><FrequencyChange><Frequency dt:dt=""r8"">2793020000</Frequency><Timestamp dt:dt=""r8"">290587019932384</Timestamp><Current dt:dt=""r8"">0</Current><DateUtc dt:dt=""string"">2014-04-30T22:14:17Z</DateUtc></FrequencyChange></FrequencyChanges></Clock>\n",60.03,1,-1342417046,0,,-999999,4,21666,t,108613,130279,4/30/2014,15:14:17,,2,Session2,SessionsList,0,,-999999,3,768962,t,33395,802357,754719,2,1,2,3,,,,,3,1,3,,,,NonCued2,MiniBlocks1,,1113891,,,3,1,r,-999999,18,1158369,r,653,1159022,Red,Incongruent,r,White,0,,0,13,1154371,,0,0,,,,,,,,,,,,,Pictures\white.bmp,3000,2000,Pictures\black.bmp,,,,3,1,3,,,,,,,StimulusPr,Pictures\RedRight.bmp,NonCuedStim2,Right
POP_2,27015,1,"<?xml version=""1.0""?>\n<Clock xmlns:dt=""urn:schemas-microsoft-com:datatypes""><Description dt:dt=""string"">E-Prime Primary Realtime Clock</Description><StartTime><Timestamp dt:dt=""int"">0</Timestamp><DateUtc dt:dt=""string"">2014-04-30T22:14:17Z</DateUtc></StartTime><FrequencyChanges><FrequencyChange><Frequency dt:dt=""r8"">2793020000</Frequency><Timestamp dt:dt=""r8"">290587019932384</Timestamp><Current dt:dt=""r8"">0</Current><DateUtc dt:dt=""string"">2014-04-30T22:14:17Z</DateUtc></FrequencyChange></FrequencyChanges></Clock>\n",60.03,1,-1342417046,0,,-999999,4,21666,t,108613,130279,4/30/2014,15:14:17,,2,Session2,SessionsList,0,,-999999,3,768962,t,33395,802357,754719,2,1,2,3,,,,,3,1,3,,,,NonCued2,MiniBlocks1,,1113891,,,4,1,r,-999999,6,1167365,r,377,1167742,Green,Congruent,r,White,0,,0,9,1162367,,0,0,,,,,,,,,,,,,Pictures\white.bmp,4000,16000,Pictures\GreenLeft.bmp,,,,4,1,4,,,,,,,StimulusPr,Pictures\black.bmp,NonCuedStim2,Left
POP_2,27015,1,"<?xml version=""1.0""?>\n<Clock xmlns:dt=""urn:schemas-microsoft-com:datatypes""><Description dt:dt=""string"">E-Prime Primary Realtime Clock</Description><StartTime><Timestamp dt:dt=""int"">0</Timestamp><DateUtc dt:dt=""string"">2014-04-30T22:14:17Z</DateUtc></StartTime><FrequencyChanges><FrequencyChange><Frequency dt:dt=""r8"">2793020000</Frequency><Timestamp dt:dt=""r8"">290587019932384</Timestamp><Current dt:dt=""r8"">0</Current><DateUtc dt:dt=""string"">2014-04-30T22:14:17Z</DateUtc></FrequencyChange></FrequencyChanges></Clock>\n",60.03,1,-1342417046,0,,-999999,4,21666,t,108613,130279,4/30/2014,15:14:17,,2,Session2,SessionsList,0,,-999999,3,768962,t,33395,802357,754719,2,1,2,3,,,,,3,1,3,,,,NonCued2,MiniBlocks1,,1113891,,,5,1,r,-999999,18,1192369,r,291,1192660,Green,Congruent,r,White,0,,0,13,1185372,,0,0,,,,,,,,,,,,,Pictures\white.bmp,6000,4000,Pictures\GreenLeft.bmp,,,,5,1,5,,,,,,,StimulusPr,Pictures\black.bmp,NonCuedStim2,Left
POP_2,27015,1,"<?xml version=""1.0""?>\n<Clock xmlns:dt=""urn:schemas-microsoft-com:datatypes""><Description dt:dt=""string"">E-Prime Primary Realtime Clock</Description><StartTime><Timestamp dt:dt=""int"">0</Timestamp><DateUtc dt:dt=""string"">2014-04-30T22:14:17Z</DateUtc></StartTime><FrequencyChanges><FrequencyChange><Frequency dt:dt=""r8"">2793020000</Frequency><Timestamp dt:dt=""r8"">290587019932384</Timestamp><Current dt:dt=""r8"">0</Current><DateUtc dt:dt=""string"">2014-04-30T22:14:17Z</DateUtc></FrequencyChange></FrequencyChanges></Clock>\n",60.03,1,-1342417046,0,,-999999,4,21666,t,108613,130279,4/30/2014,15:14:17,,2,Session2,SessionsList,0,,-999999,3,768962,t,33395,802357,754719,2,1,2,3,,,,,3,1,3,,,,NonCued2,MiniBlocks1,,1113891,,,6,1,b,-999999,6,1202347,b,457,1202804,Red,Incongruent,b,White,0,,0,16,1198366,,0,0,,,,,,,,,,,,,Pictures\white.bmp,3000,4000,Pictures\RedLeft.bmp,,,,6,1,6,,,,,,,StimulusPr,Pictures\black.bmp,NonCuedStim2,Left
POP_2,27015,1,"<?xml version=""1.0""?>\n<Clock xmlns:dt=""urn:schemas-microsoft-com:datatypes""><Description dt:dt=""string"">E-Prime Primary Realtime Clock</Description><StartTime><Timestamp dt:dt=""int"">0</Timestamp><DateUtc dt:dt=""string"">2014-04-30T22:14:17Z</DateUtc></StartTime><FrequencyChanges><FrequencyChange><Frequency dt:dt=""r8"">2793020000</Frequency><Timestamp dt:dt=""r8"">290587019932384</Timestamp><Current dt:dt=""r8"">0</Current><DateUtc dt:dt=""string"">2014-04-30T22:14:17Z</DateUtc></FrequencyChange></FrequencyChanges></Clock>\n",60.03,1,-1342417046,0,,-999999,4,21666,t,108613,130279,4/30/2014,15:14:17,,2,Session2,SessionsList,0,,-999999,3,768962,t,33395,802357,754719,2,1,2,3,,,,,3,1,3,,,,NonCued2,MiniBlocks1,,1113891,,,7,1,b,-999999,16,1213375,b,397,1213772,Green,Congruent,b,White,0,,0,10,1208361,,0,0,,,,,,,,,,,,,Pictures\white.bmp,4000,16000,Pictures\black.bmp,,,,7,1,7,,,,,,,StimulusPr,Pictures\GreenRight.bmp,NonCuedStim2,Right
POP_2,27015,1,"<?xml version=""1.0""?>\n<Clock xmlns:dt=""urn:schemas-microsoft-com:datatypes""><Description dt:dt=""string"">E-Prime Primary Realtime Clock</Description><StartTime><Timestamp dt:dt=""int"">0</Timestamp><DateUtc dt:dt=""string"">2014-04-30T22:14:17Z</DateUtc></StartTime><FrequencyChanges><FrequencyChange><Frequency dt:dt=""r8"">2793020000</Frequency><Timestamp dt:dt=""r8"">290587019932384</Timestamp><Current dt:dt=""r8"">0</Current><DateUtc dt:dt=""string"">2014-04-30T22:14:17Z</DateUtc></FrequencyChange></FrequencyChanges></Clock>\n",60.03,1,-1342417046,0,,-999999,4,21666,t,108613,130279,4/30/2014,15:14:17,,2,Session2,SessionsList,0,,-999999,3,768962,t,33395,802357,754719,2,1,2,3,,,,,3,1,3,,,,NonCued2,MiniBlocks1,,1113891,,,8,1,r,-999999,2,1241361,r,366,1241727,Green,Congruent,r,White,0,,0,8,1231366,,0,0,,,,,,,,,,,,,Pictures\white.bmp,9000,2000,Pictures\GreenLeft.bmp,,,,8,1,8,,,,,,,StimulusPr,Pictures\black.bmp,NonCuedStim2,Left
POP_2,27015,1,"<?xml version=""1.0""?>\n<Clock xmlns:dt=""urn:schemas-microsoft-com:datatypes""><Description dt:dt=""string"">E-Prime Primary Realtime Clock</Description><StartTime><Timestamp dt:dt=""int"">0</Timestamp><DateUtc dt:dt=""string"">2014-04-30T22:14:17Z</DateUtc></StartTime><FrequencyChanges><FrequencyChange><Frequency dt:dt=""r8"">2793020000</Frequency><Timestamp dt:dt=""r8"">290587019932384</Timestamp><Current dt:dt=""r8"">0</Current><DateUtc dt:dt=""string"">2014-04-30T22:14:17Z</DateUtc></FrequencyChange></FrequencyChanges></Clock>\n",60.03,1,-1342417046,0,,-999999,4,21666,t,108613,130279,4/30/2014,15:14:17,,2,Session2,SessionsList,0,,-999999,3,768962,t,33395,802357,754719,2,1,2,3,,,,,3,1,3,,,,NonCued2,MiniBlocks1,,1113891,,,9,1,b,-999999,16,1249374,b,320,1249694,Green,Congruent,b,White,0,,0,18,1245376,,0,0,,,,,,,,,,,,,Pictures\white.bmp,3000,10000,Pictures\black.bmp,,,,9,1,9,,,,,,,StimulusPr,Pictures\GreenRight.bmp,NonCuedStim2,Right
POP_2,27015,1,"<?xml version=""1.0""?>\n<Clock xmlns:dt=""urn:schemas-microsoft-com:datatypes""><Description dt:dt=""string"">E-Prime Primary Realtime Clock</Description><StartTime><Timestamp dt:dt=""int"">0</Timestamp><DateUtc dt:dt=""string"">2014-04-30T22:14:17Z</DateUtc></StartTime><FrequencyChanges><FrequencyChange><Frequency dt:dt=""r8"">2793020000</Frequency><Timestamp dt:dt=""r8"">290587019932384</Timestamp><Current dt:dt=""r8"">0</Current><DateUtc dt:dt=""string"">2014-04-30T22:14:17Z</DateUtc></FrequencyChange></FrequencyChanges></Clock>\n",60.03,1,-1342417046,0,,-999999,4,21666,t,108613,130279,4/30/2014,15:14:17,,2,Session2,SessionsList,0,,-999999,3,768962,t,33395,802357,754719,2,1,2,3,,,,,3,1,3,,,,NonCued2,MiniBlocks1,,1113891,,,10,1,b,-999999,7,1265366,b,321,1265687,Green,Congruent,b,White,0,,0,9,1261368,,0,0,,,,,,,,,,,,,Pictures\white.bmp,3000,2000,Pictures\black.bmp,,,,10,1,10,,,,,,,StimulusPr,Pictures\GreenRight.bmp,NonCuedStim2,Right
POP_2,27015,1,"<?xml version=""1.0""?>\n<Clock xmlns:dt=""urn:schemas-microsoft-com:datatypes""><Description dt:dt=""string"">E-Prime Primary Realtime Clock</Description><StartTime><Timestamp dt:dt=""int"">0</Timestamp><DateUtc dt:dt=""string"">2014-04-30T22:14:17Z</DateUtc></StartTime><FrequencyChanges><FrequencyChange><Frequency dt:dt=""r8"">2793020000</Frequency><Timestamp dt:dt=""r8"">290587019932384</Timestamp><Current dt:dt=""r8"">0</Current><DateUtc dt:dt=""string"">2014-04-30T22:14:17Z</DateUtc></FrequencyChange></FrequencyChanges></Clock>\n",60.03,1,-1342417046,0,,-999999,4,21666,t,108613,130279,4/30/2014,15:14:17,,2,Session2,SessionsList,0,,-999999,3,768962,t,33395,802357,754719,2,1,2,4,,1267715,,,4,1,4,,,,Cued2,MiniBlocks1,,,,,1,1,b,-999999,17,1284373,b,400,1284773,White,Congruent,b,Green,0,,0,18,1277377,,0,0,,,,1,1,1,,,,,,,Pictures\green.bmp,6000,4000,Pictures\black.bmp,,,,,,,,,,,,,StimulusPr,Pictures\right.bmp,CuedStim2,Right
POP_2,27015,1,"<?xml version=""1.0""?>\n<Clock xmlns:dt=""urn:schemas-microsoft-com:datatypes""><Description dt:dt=""string"">E-Prime Primary Realtime Clock</Description><StartTime><Timestamp dt:dt=""int"">0</Timestamp><DateUtc dt:dt=""string"">2014-04-30T22:14:17Z</DateUtc></StartTime><FrequencyChanges><FrequencyChange><Frequency dt:dt=""r8"">2793020000</Frequency><Timestamp dt:dt=""r8"">290587019932384</Timestamp><Current dt:dt=""r8"">0</Current><DateUtc dt:dt=""string"">2014-04-30T22:14:17Z</DateUtc></FrequencyChange></FrequencyChanges></Clock>\n",60.03,1,-1342417046,0,,-999999,4,21666,t,108613,130279,4/30/2014,15:14:17,,2,Session2,SessionsList,0,,-999999,3,768962,t,33395,802357,754719,2,1,2,4,,1267715,,,4,1,4,,,,Cued2,MiniBlocks1,,,,,2,1,b,-999999,13,1300365,b,408,1300773,White,Congruent,b,Green,0,,0,3,1290354,,0,0,,,,2,1,2,,,,,,,Pictures\green.bmp,9000,10000,Pictures\black.bmp,,,,,,,,,,,,,StimulusPr,Pictures\right.bmp,CuedStim2,Right
POP_2,27015,1,"<?xml version=""1.0""?>\n<Clock xmlns:dt=""urn:schemas-microsoft-com:datatypes""><Description dt:dt=""string"">E-Prime Primary Realtime Clock</Description><StartTime><Timestamp dt:dt=""int"">0</Timestamp><DateUtc dt:dt=""string"">2014-04-30T22:14:17Z</DateUtc></StartTime><FrequencyChanges><FrequencyChange><Frequency dt:dt=""r8"">2793020000</Frequency><Timestamp dt:dt=""r8"">290587019932384</Timestamp><Current dt:dt=""r8"">0</Current><DateUtc dt:dt=""string"">2014-04-30T22:14:17Z</DateUtc></FrequencyChange></FrequencyChanges></Clock>\n",60.03,1,-1342417046,0,,-999999,4,21666,t,108613,130279,4/30/2014,15:14:17,,2,Session2,SessionsList,0,,-999999,3,768962,t,33395,802357,754719,2,1,2,4,,1267715,,,4,1,4,,,,Cued2,MiniBlocks1,,,,,3,1,r,-999999,15,1316374,r,414,1316788,White,Incongruent,r,Red,0,,0,17,1312376,,0,0,,,,3,1,3,,,,,,,Pictures\red.bmp,3000,2000,Pictures\black.bmp,,,,,,,,,,,,,StimulusPr,Pictures\right.bmp,CuedStim2,Right
POP_2,27015,1,"<?xml version=""1.0""?>\n<Clock xmlns:dt=""urn:schemas-microsoft-com:datatypes""><Description dt:dt=""string"">E-Prime Primary Realtime Clock</Description><StartTime><Timestamp dt:dt=""int"">0</Timestamp><DateUtc dt:dt=""string"">2014-04-30T22:14:17Z</DateUtc></StartTime><FrequencyChanges><FrequencyChange><Frequency dt:dt=""r8"">2793020000</Frequency><Timestamp dt:dt=""r8"">290587019932384</Timestamp><Current dt:dt=""r8"">0</Current><DateUtc dt:dt=""string"">2014-04-30T22:14:17Z</DateUtc></FrequencyChange></FrequencyChanges></Clock>\n",60.03,1,-1342417046,0,,-999999,4,21666,t,108613,130279,4/30/2014,15:14:17,,2,Session2,SessionsList,0,,-999999,3,768962,t,33395,802357,754719,2,1,2,4,,1267715,,,4,1,4,,,,Cued2,MiniBlocks1,,,,,4,1,r,-999999,10,1327369,r,326,1327695,White,Congruent,r,Green,0,,0,13,1320372,,0,0,,,,4,1,4,,,,,,,Pictures\green.bmp,6000,16000,Pictures\left.bmp,,,,,,,,,,,,,StimulusPr,Pictures\black.bmp,CuedStim2,Left
POP_2,27015,1,"<?xml version=""1.0""?>\n<Clock xmlns:dt=""urn:schemas-microsoft-com:datatypes""><Description dt:dt=""string"">E-Prime Primary Realtime Clock</Description><StartTime><Timestamp dt:dt=""int"">0</Timestamp><DateUtc dt:dt=""string"">2014-04-30T22:14:17Z</DateUtc></StartTime><FrequencyChanges><FrequencyChange><Frequency dt:dt=""r8"">2793020000</Frequency><Timestamp dt:dt=""r8"">290587019932384</Timestamp><Current dt:dt=""r8"">0</Current><DateUtc dt:dt=""string"">2014-04-30T22:14:17Z</DateUtc></FrequencyChange></FrequencyChanges></Clock>\n",60.03,1,-1342417046,0,,-999999,4,21666,t,108613,130279,4/30/2014,15:14:17,,2,Session2,SessionsList,0,,-999999,3,768962,t,33395,802357,754719,2,1,2,4,,1267715,,,4,1,4,,,,Cued2,MiniBlocks1,,,,,5,1,b,-999999,15,1349374,b,321,1349695,White,Congruent,b,Green,0,,0,17,1345376,,0,0,,,,5,1,5,,,,,,,Pictures\green.bmp,3000,2000,Pictures\black.bmp,,,,,,,,,,,,,StimulusPr,Pictures\right.bmp,CuedStim2,Right
POP_2,27015,1,"<?xml version=""1.0""?>\n<Clock xmlns:dt=""urn:schemas-microsoft-com:datatypes""><Description dt:dt=""string"">E-Prime Primary Realtime Clock</Description><StartTime><Timestamp dt:dt=""int"">0</Timestamp><DateUtc dt:dt=""string"">2014-04-30T22:14:17Z</DateUtc></StartTime><FrequencyChanges><FrequencyChange><Frequency dt:dt=""r8"">2793020000</Frequency><Timestamp dt:dt=""r8"">290587019932384</Timestamp><Current dt:dt=""r8"">0</Current><DateUtc dt:dt=""string"">2014-04-30T22:14:17Z</DateUtc></FrequencyChange></FrequencyChanges></Clock>\n",60.03,1,-1342417046,0,,-999999,4,21666,t,108613,130279,4/30/2014,15:14:17,,2,Session2,SessionsList,0,,-999999,3,768962,t,33395,802357,754719,2,1,2,4,,1267715,,,4,1,4,,,,Cued2,MiniBlocks1,,,,,6,1,r,-999999,11,1357370,r,325,1357695,White,Congruent,r,Green,0,,0,13,1353372,,0,0,,,,6,1,6,,,,,,,Pictures\green.bmp,3000,2000,Pictures\left.bmp,,,,,,,,,,,,,StimulusPr,Pictures\black.bmp,CuedStim2,Left
POP_2,27015,1,"<?xml version=""1.0""?>\n<Clock xmlns:dt=""urn:schemas-microsoft-com:datatypes""><Description dt:dt=""string"">E-Prime Primary Realtime Clock</Description><StartTime><Timestamp dt:dt=""int"">0</Timestamp><DateUtc dt:dt=""string"">2014-04-30T22:14:17Z</DateUtc></StartTime><FrequencyChanges><FrequencyChange><Frequency dt:dt=""r8"">2793020000</Frequency><Timestamp dt:dt=""r8"">290587019932384</Timestamp><Current dt:dt=""r8"">0</Current><DateUtc dt:dt=""string"">2014-04-30T22:14:17Z</DateUtc></FrequencyChange></FrequencyChanges></Clock>\n",60.03,1,-1342417046,0,,-999999,4,21666,t,108613,130279,4/30/2014,15:14:17,,2,Session2,SessionsList,0,,-999999,3,768962,t,33395,802357,754719,2,1,2,4,,1267715,,,4,1,4,,,,Cued2,MiniBlocks1,,,,,7,1,b,-999999,12,1368365,b,527,1368892,White,Incongruent,b,Red,0,,0,8,1361368,,0,0,,,,7,1,7,,,,,,,Pictures\red.bmp,6000,4000,Pictures\left.bmp,,,,,,,,,,,,,StimulusPr,Pictures\black.bmp,CuedStim2,Left
POP_2,27015,1,"<?xml version=""1.0""?>\n<Clock xmlns:dt=""urn:schemas-microsoft-com:datatypes""><Description dt:dt=""string"">E-Prime Primary Realtime Clock</Description><StartTime><Timestamp dt:dt=""int"">0</Timestamp><DateUtc dt:dt=""string"">2014-04-30T22:14:17Z</DateUtc></StartTime><FrequencyChanges><FrequencyChange><Frequency dt:dt=""r8"">2793020000</Frequency><Timestamp dt:dt=""r8"">290587019932384</Timestamp><Current dt:dt=""r8"">0</Current><DateUtc dt:dt=""string"">2014-04-30T22:14:17Z</DateUtc></FrequencyChange></FrequencyChanges></Clock>\n",60.03,1,-1342417046,0,,-999999,4,21666,t,108613,130279,4/30/2014,15:14:17,,2,Session2,SessionsList,0,,-999999,3,768962,t,33395,802357,754719,2,1,2,4,,1267715,,,4,1,4,,,,Cued2,MiniBlocks1,,,,,8,0,b,0,8,1379359,,0,0,White,Congruent,b,Green,0,,0,17,1374362,,0,0,,,,8,1,8,,,,,,,Pictures\green.bmp,4000,4000,Pictures\black.bmp,,,,,,,,,,,,,StimulusPr,Pictures\right.bmp,CuedStim2,Right
POP_2,27015,1,"<?xml version=""1.0""?>\n<Clock xmlns:dt=""urn:schemas-microsoft-com:datatypes""><Description dt:dt=""string"">E-Prime Primary Realtime Clock</Description><StartTime><Timestamp dt:dt=""int"">0</Timestamp><DateUtc dt:dt=""string"">2014-04-30T22:14:17Z</DateUtc></StartTime><FrequencyChanges><FrequencyChange><Frequency dt:dt=""r8"">2793020000</Frequency><Timestamp dt:dt=""r8"">290587019932384</Timestamp><Current dt:dt=""r8"">0</Current><DateUtc dt:dt=""string"">2014-04-30T22:14:17Z</DateUtc></FrequencyChange></FrequencyChanges></Clock>\n",60.03,1,-1342417046,0,,-999999,4,21666,t,108613,130279,4/30/2014,15:14:17,,2,Session2,SessionsList,0,,-999999,3,768962,t,33395,802357,754719,2,1,2,4,,1267715,,,4,1,4,,,,Cued2,MiniBlocks1,,,,,9,1,b,-999999,8,1398367,b,296,1398663,White,Incongruent,b,Red,0,,0,13,1388372,,0,0,,,,9,1,9,,,,,,,Pictures\red.bmp,9000,10000,Pictures\left.bmp,,,,,,,,,,,,,StimulusPr,Pictures\black.bmp,CuedStim2,Left
POP_2,27015,1,"<?xml version=""1.0""?>\n<Clock xmlns:dt=""urn:schemas-microsoft-com:datatypes""><Description dt:dt=""string"">E-Prime Primary Realtime Clock</Description><StartTime><Timestamp dt:dt=""int"">0</Timestamp><DateUtc dt:dt=""string"">2014-04-30T22:14:17Z</DateUtc></StartTime><FrequencyChanges><FrequencyChange><Frequency dt:dt=""r8"">2793020000</Frequency><Timestamp dt:dt=""r8"">290587019932384</Timestamp><Current dt:dt=""r8"">0</Current><DateUtc dt:dt=""string"">2014-04-30T22:14:17Z</DateUtc></FrequencyChange></FrequencyChanges></Clock>\n",60.03,1,-1342417046,0,,-999999,4,21666,t,108613,130279,4/30/2014,15:14:17,,2,Session2,SessionsList,0,,-999999,3,768962,t,33395,802357,754719,2,1,2,4,,1267715,,,4,1,4,,,,Cued2,MiniBlocks1,,,,,10,1,r,-999999,13,1420372,r,614,1420986,White,Congruent,r,Green,0,,0,2,1410361,,0,0,,,,10,1,10,,,,,,,Pictures\green.bmp,9000,10000,Pictures\left.bmp,,,,,,,,,,,,,StimulusPr,Pictures\black.bmp,CuedStim2,Left
