ExperimentName,Subject,Session,Clock.Information,Display.RefreshRate,Group,RandomSeed,Session1Onset.ACC,Session1Onset.CRESP,Session1Onset.DurationError,Session1Onset.OnsetDelay,Session1Onset.OnsetTime,Session1Onset.RESP,Session1Onset.RT,Session1Onset.RTTime,SessionDate,SessionTime,SessionTimeUtc,Block,Procedure[Block],Running[Block],Session2Onset.ACC,Session2Onset.CRESP,Session2Onset.DurationError,Session2Onset.OnsetDelay,Session2Onset.OnsetTime,Session2Onset.RESP,Session2Onset.RT,Session2Onset.RTTime,SessionBreak.OnsetTime,SessionsList,SessionsList.Cycle,SessionsList.Sample,Trial,CuedPrompt1.OnsetTime,CuedPrompt2.OnsetTime,CuedPrompt3.OnsetTime,CuedPrompt4.OnsetTime,MiniBlocks1,MiniBlocks1.Cycle,MiniBlocks1.Sample,MiniBlocks2,MiniBlocks2.Cycle,MiniBlocks2.Sample,Procedure[Trial],Running[Trial],UncuedPrompt1.OnsetTime,UncuedPrompt2.OnsetTime,UncuedPrompt3.OnsetTime,UncuedPrompt4.OnsetTime,SubTrial,Arrow1.ACC,Arrow1.CRESP,Arrow1.DurationError,Arrow1.OnsetDelay,Arrow1.OnsetTime,Arrow1.RESP,Arrow1.RT,Arrow1.RTTime,ArrowColor,Congruence,CorrectResp,Cue,Cue.ACC,Cue.CRESP,Cue.DurationError,Cue.OnsetDelay,Cue.OnsetTime,Cue.RESP,Cue.RT,Cue.RTTime,CuedStim1,CuedStim1.Cycle,CuedStim1.Sample,CuedStim2,CuedStim2.Cycle,CuedStim2.Sample,CuedStim3,CuedStim3.Cycle,CuedStim3.Sample,CuedStim4,CuedStim4.Cycle,CuedStim4.Sample,CueImage,JitterCue,JitterTrial,LeftImage,NonCuedStim1,NonCuedStim1.Cycle,NonCuedStim1.Sample,NonCuedStim2,NonCuedStim2.Cycle,NonCuedStim2.Sample,NonCuedStim3,NonCuedStim3.Cycle,NonCuedStim3.Sample,NonCuedStim4,NonCuedStim4.Cycle,NonCuedStim4.Sample,Procedure[SubTrial],RightImage,Running[SubTrial],Stimulus
POP_2,27010,1,"<?xml version=""1.0""?>\n<Clock xmlns:dt=""urn:schemas-microsoft-com:datatypes""><Description dt:dt=""string"">E-Prime Primary Realtime Clock</Description><StartTime><Timestamp dt:dt=""int"">0</Timestamp><DateUtc dt:dt=""string"">2014-05-21T20:49:05Z</DateUtc></StartTime><FrequencyChanges><FrequencyChange><Frequency dt:dt=""r8"">2793030000</Frequency><Timestamp dt:dt=""r8"">3.40315382380468E+15</Timestamp><Current dt:dt=""r8"">0</Current><DateUtc dt:dt=""string"">2014-05-21T20:49:05Z</DateUtc></FrequencyChange></FrequencyChanges></Clock>\n",60.03,1,-1613712062,0,,-999999,11,10524,t,51389,61913,5/21/2014,13:49:05,8:49:05 PM,1,Session1,SessionsList,,,,,,,,,,1,1,1,1,61948,,,,1,1,1,,,,Cued1,MiniBlocks1,,,,,1,1,r,-999999,128,76041,r,446,76487,White,Congruent,r,Green,0,,0,80,70994,,0,0,1,1,1,,,,,,,,,,Pictures\green.bmp,4000,4000,Pictures\left.bmp,,,,,,,,,,,,,StimulusPr,Pictures\black.bmp,CuedStim1,Left
POP_2,27010,1,"<?xml version=""1.0""?>\n<Clock xmlns:dt=""urn:schemas-microsoft-com:datatypes""><Description dt:dt=""string"">E-Prime Primary Realtime Clock</Description><StartTime><Timestamp dt:dt=""int"">0</Timestamp><DateUtc dt:dt=""string"">2014-05-21T20:49:05Z</DateUtc></StartTime><FrequencyChanges><FrequencyChange><Frequency dt:dt=""r8"">2793030000</Frequency><Timestamp dt:dt=""r8"">3.40315382380468E+15</Timestamp><Current dt:dt=""r8"">0</Current><DateUtc dt:dt=""string"">2014-05-21T20:49:05Z</DateUtc></FrequencyChange></FrequencyChanges></Clock>\n",60.03,1,-1613712062,0,,-999999,11,10524,t,51389,61913,5/21/2014,13:49:05,8:49:05 PM,1,Session1,SessionsList,,,,,,,,,,1,1,1,1,61948,,,,1,1,1,,,,Cued1,MiniBlocks1,,,,,2,1,b,-999999,55,88968,b,498,89466,White,Congruent,b,Green,0,,0,8,81921,,0,0,2,1,2,,,,,,,,,,Pictures\green.bmp,6000,2000,Pictures\black.bmp,,,,,,,,,,,,,StimulusPr,Pictures\right.bmp,CuedStim1,Right
POP_2,27010,1,"<?xml version=""1.0""?>\n<Clock xmlns:dt=""urn:schemas-microsoft-com:datatypes""><Description dt:dt=""string"">E-Prime Primary Realtime Clock</Description><StartTime><Timestamp dt:dt=""int"">0</Timestamp><DateUtc dt:dt=""string"">2014-05-21T20:49:05Z</DateUtc></StartTime><FrequencyChanges><FrequencyChange><Frequency dt:dt=""r8"">2793030000</Frequency><Timestamp dt:dt=""r8"">3.40315382380468E+15</Timestamp><Current dt:dt=""r8"">0</Current><DateUtc dt:dt=""string"">2014-05-21T20:49:05Z</DateUtc></FrequencyChange></FrequencyChanges></Clock>\n",60.03,1,-1613712062,0,,-999999,11,10524,t,51389,61913,5/21/2014,13:49:05,8:49:05 PM,1,Session1,SessionsList,,,,,,,,,,1,1,1,1,61948,,,,1,1,1,,,,Cued1,MiniBlocks1,,,,,3,1,b,-999999,13,96914,b,560,97474,White,Congruent,b,Green,0,,0,3,92916,,0,0,3,1,3,,,,,,,,,,Pictures\green.bmp,3000,2000,Pictures\black.bmp,,,,,,,,,,,,,StimulusPr,Pictures\right.bmp,CuedStim1,Right
POP_2,27010,1,"<?xml version=""1.0""?>\n<Clock xmlns:dt=""urn:schemas-microsoft-com:datatypes""><Description dt:dt=""string"">E-Prime Primary Realtime Clock</Description><StartTime><Timestamp dt:dt=""int"">0</Timestamp><DateUtc dt:dt=""string"">2014-05-21T20:49:05Z</DateUtc></StartTime><FrequencyChanges><FrequencyChange><Frequency dt:dt=""r8"">2793030000</Frequency><Timestamp dt:dt=""r8"">3.40315382380468E+15</Timestamp><Current dt:dt=""r8"">0</Current><DateUtc dt:dt=""string"">2014-05-21T20:49:05Z</DateUtc></FrequencyChange></FrequencyChanges></Clock>\n",60.03,1,-1613712062,0,,-999999,11,10524,t,51389,61913,5/21/2014,13:49:05,8:49:05 PM,1,Session1,SessionsList,,,,,,,,,,1,1,1,1,61948,,,,1,1,1,,,,Cued1,MiniBlocks1,,,,,4,1,b,-999999,14,104927,b,1193,106120,White,Incongruent,b,Red,0,,0,66,100979,,0,0,4,1,4,,,,,,,,,,Pictures\red.bmp,3000,16000,Pictures\left.bmp,,,,,,,,,,,,,StimulusPr,Pictures\black.bmp,CuedStim1,Left
POP_2,27010,1,"<?xml version=""1.0""?>\n<Clock xmlns:dt=""urn:schemas-microsoft-com:datatypes""><Description dt:dt=""string"">E-Prime Primary Realtime Clock</Description><StartTime><Timestamp dt:dt=""int"">0</Timestamp><DateUtc dt:dt=""string"">2014-05-21T20:49:05Z</DateUtc></StartTime><FrequencyChanges><FrequencyChange><Frequency dt:dt=""r8"">2793030000</Frequency><Timestamp dt:dt=""r8"">3.40315382380468E+15</Timestamp><Current dt:dt=""r8"">0</Current><DateUtc dt:dt=""string"">2014-05-21T20:49:05Z</DateUtc></FrequencyChange></FrequencyChanges></Clock>\n",60.03,1,-1613712062,0,,-999999,11,10524,t,51389,61913,5/21/2014,13:49:05,8:49:05 PM,1,Session1,SessionsList,,,,,,,,,,1,1,1,1,61948,,,,1,1,1,,,,Cued1,MiniBlocks1,,,,,5,1,r,-999999,12,127915,r,615,128530,White,Congruent,r,Green,0,,0,16,123917,,0,0,5,1,5,,,,,,,,,,Pictures\green.bmp,3000,16000,Pictures\left.bmp,,,,,,,,,,,,,StimulusPr,Pictures\black.bmp,CuedStim1,Left
POP_2,27010,1,"<?xml version=""1.0""?>\n<Clock xmlns:dt=""urn:schemas-microsoft-com:datatypes""><Description dt:dt=""string"">E-Prime Primary Realtime Clock</Description><StartTime><Timestamp dt:dt=""int"">0</Timestamp><DateUtc dt:dt=""string"">2014-05-21T20:49:05Z</DateUtc></StartTime><FrequencyChanges><FrequencyChange><Frequency dt:dt=""r8"">2793030000</Frequency><Timestamp dt:dt=""r8"">3.40315382380468E+15</Timestamp><Current dt:dt=""r8"">0</Current><DateUtc dt:dt=""string"">2014-05-21T20:49:05Z</DateUtc></FrequencyChange></FrequencyChanges></Clock>\n",60.03,1,-1613712062,0,,-999999,11,10524,t,51389,61913,5/21/2014,13:49:05,8:49:05 PM,1,Session1,SessionsList,,,,,,,,,,1,1,1,1,61948,,,,1,1,1,,,,Cued1,MiniBlocks1,,,,,6,1,r,-999999,17,155918,r,993,156911,White,Congruent,r,Green,0,,0,5,145906,,0,0,6,1,6,,,,,,,,,,Pictures\green.bmp,9000,10000,Pictures\left.bmp,,,,,,,,,,,,,StimulusPr,Pictures\black.bmp,CuedStim1,Left
POP_2,27010,1,"<?xml version=""1.0""?>\n<Clock xmlns:dt=""urn:schemas-microsoft-com:datatypes""><Description dt:dt=""string"">E-Prime Primary Realtime Clock</Description><StartTime><Timestamp dt:dt=""int"">0</Timestamp><DateUtc dt:dt=""string"">2014-05-21T20:49:05Z</DateUtc></StartTime><FrequencyChanges><FrequencyChange><Frequency dt:dt=""r8"">2793030000</Frequency><Timestamp dt:dt=""r8"">3.40315382380468E+15</Timestamp><Current dt:dt=""r8"">0</Current><DateUtc dt:dt=""string"">2014-05-21T20:49:05Z</DateUtc></FrequencyChange></FrequencyChanges></Clock>\n",60.03,1,-1613712062,0,,-999999,11,10524,t,51389,61913,5/21/2014,13:49:05,8:49:05 PM,1,Session1,SessionsList,,,,,,,,,,1,1,1,1,61948,,,,1,1,1,,,,Cued1,MiniBlocks1,,,,,7,1,b,-999999,8,172909,b,688,173597,White,Congruent,b,Green,0,,0,15,168928,,0,0,7,1,7,,,,,,,,,,Pictures\green.bmp,3000,16000,Pictures\black.bmp,,,,,,,,,,,,,StimulusPr,Pictures\right.bmp,CuedStim1,Right
POP_2,27010,1,"<?xml version=""1.0""?>\n<Clock xmlns:dt=""urn:schemas-microsoft-com:datatypes""><Description dt:dt=""string"">E-Prime Primary Realtime Clock</Description><StartTime><Timestamp dt:dt=""int"">0</Timestamp><DateUtc dt:dt=""string"">2014-05-21T20:49:05Z</DateUtc></StartTime><FrequencyChanges><FrequencyChange><Frequency dt:dt=""r8"">2793030000</Frequency><Timestamp dt:dt=""r8"">3.40315382380468E+15</Timestamp><Current dt:dt=""r8"">0</Current><DateUtc dt:dt=""string"">2014-05-21T20:49:05Z</DateUtc></FrequencyChange></FrequencyChanges></Clock>\n",60.03,1,-1613712062,0,,-999999,11,10524,t,51389,61913,5/21/2014,13:49:05,8:49:05 PM,1,Session1,SessionsList,,,,,,,,,,1,1,1,1,61948,,,,1,1,1,,,,Cued1,MiniBlocks1,,,,,8,1,r,-999999,13,195914,r,602,196516,White,Incongruent,r,Red,0,,0,16,190917,,0,0,8,1,8,,,,,,,,,,Pictures\red.bmp,4000,2000,Pictures\black.bmp,,,,,,,,,,,,,StimulusPr,Pictures\right.bmp,CuedStim1,Right
POP_2,27010,1,"<?xml version=""1.0""?>\n<Clock xmlns:dt=""urn:schemas-microsoft-com:datatypes""><Description dt:dt=""string"">E-Prime Primary Realtime Clock</Description><StartTime><Timestamp dt:dt=""int"">0</Timestamp><DateUtc dt:dt=""string"">2014-05-21T20:49:05Z</DateUtc></StartTime><FrequencyChanges><FrequencyChange><Frequency dt:dt=""r8"">2793030000</Frequency><Timestamp dt:dt=""r8"">3.40315382380468E+15</Timestamp><Current dt:dt=""r8"">0</Current><DateUtc dt:dt=""string"">2014-05-21T20:49:05Z</DateUtc></FrequencyChange></FrequencyChanges></Clock>\n",60.03,1,-1613712062,0,,-999999,11,10524,t,51389,61913,5/21/2014,13:49:05,8:49:05 PM,1,Session1,SessionsList,,,,,,,,,,1,1,1,1,61948,,,,1,1,1,,,,Cued1,MiniBlocks1,,,,,9,1,b,-999999,14,204927,b,543,205470,White,Congruent,b,Green,0,,0,2,199896,,0,0,9,1,9,,,,,,,,,,Pictures\green.bmp,4000,2000,Pictures\black.bmp,,,,,,,,,,,,,StimulusPr,Pictures\right.bmp,CuedStim1,Right
POP_2,27010,1,"<?xml version=""1.0""?>\n<Clock xmlns:dt=""urn:schemas-microsoft-com:datatypes""><Description dt:dt=""string"">E-Prime Primary Realtime Clock</Description><StartTime><Timestamp dt:dt=""int"">0</Timestamp><DateUtc dt:dt=""string"">2014-05-21T20:49:05Z</DateUtc></StartTime><FrequencyChanges><FrequencyChange><Frequency dt:dt=""r8"">2793030000</Frequency><Timestamp dt:dt=""r8"">3.40315382380468E+15</Timestamp><Current dt:dt=""r8"">0</Current><DateUtc dt:dt=""string"">2014-05-21T20:49:05Z</DateUtc></FrequencyChange></FrequencyChanges></Clock>\n",60.03,1,-1613712062,0,,-999999,11,10524,t,51389,61913,5/21/2014,13:49:05,8:49:05 PM,1,Session1,SessionsList,,,,,,,,,,1,1,1,1,61948,,,,1,1,1,,,,Cued1,MiniBlocks1,,,,,10,1,r,-999999,5,212906,r,449,213355,White,Congruent,r,Green,0,,0,7,208908,,0,0,10,1,10,,,,,,,,,,Pictures\green.bmp,3000,2000,Pictures\left.bmp,,,,,,,,,,,,,StimulusPr,Pictures\black.bmp,CuedStim1,Left
POP_2,27010,1,"<?xml version=""1.0""?>\n<Clock xmlns:dt=""urn:schemas-microsoft-com:datatypes""><Description dt:dt=""string"">E-Prime Primary Realtime Clock</Description><StartTime><Timestamp dt:dt=""int"">0</Timestamp><DateUtc dt:dt=""string"">2014-05-21T20:49:05Z</DateUtc></StartTime><FrequencyChanges><FrequencyChange><Frequency dt:dt=""r8"">2793030000</Frequency><Timestamp dt:dt=""r8"">3.40315382380468E+15</Timestamp><Current dt:dt=""r8"">0</Current><DateUtc dt:dt=""string"">2014-05-21T20:49:05Z</DateUtc></FrequencyChange></FrequencyChanges></Clock>\n",60.03,1,-1613712062,0,,-999999,11,10524,t,51389,61913,5/21/2014,13:49:05,8:49:05 PM,1,Session1,SessionsList,,,,,,,,,,1,1,1,2,,,,,2,1,2,,,,NonCued1,MiniBlocks1,215371,,,,1,1,r,-999999,63,229964,r,491,230455,Green,Congruent,r,White,0,,0,70,224983,,0,0,,,,,,,,,,,,,Pictures\white.bmp,4000,2000,Pictures\GreenLeft.bmp,1,1,1,,,,,,,,,,StimulusPr,Pictures\black.bmp,NonCuedStim1,Left
POP_2,27010,1,"<?xml version=""1.0""?>\n<Clock xmlns:dt=""urn:schemas-microsoft-com:datatypes""><Description dt:dt=""string"">E-Prime Primary Realtime Clock</Description><StartTime><Timestamp dt:dt=""int"">0</Timestamp><DateUtc dt:dt=""string"">2014-05-21T20:49:05Z</DateUtc></StartTime><FrequencyChanges><FrequencyChange><Frequency dt:dt=""r8"">2793030000</Frequency><Timestamp dt:dt=""r8"">3.40315382380468E+15</Timestamp><Current dt:dt=""r8"">0</Current><DateUtc dt:dt=""string"">2014-05-21T20:49:05Z</DateUtc></FrequencyChange></FrequencyChanges></Clock>\n",60.03,1,-1613712062,0,,-999999,11,10524,t,51389,61913,5/21/2014,13:49:05,8:49:05 PM,1,Session1,SessionsList,,,,,,,,,,1,1,1,2,,,,,2,1,2,,,,NonCued1,MiniBlocks1,215371,,,,2,1,b,-999999,54,240959,b,646,241605,Green,Congruent,b,White,0,,0,16,233929,,0,0,,,,,,,,,,,,,Pictures\white.bmp,6000,16000,Pictures\black.bmp,2,1,2,,,,,,,,,,StimulusPr,Pictures\GreenRight.bmp,NonCuedStim1,Right
POP_2,27010,1,"<?xml version=""1.0""?>\n<Clock xmlns:dt=""urn:schemas-microsoft-com:datatypes""><Description dt:dt=""string"">E-Prime Primary Realtime Clock</Description><StartTime><Timestamp dt:dt=""int"">0</Timestamp><DateUtc dt:dt=""string"">2014-05-21T20:49:05Z</DateUtc></StartTime><FrequencyChanges><FrequencyChange><Frequency dt:dt=""r8"">2793030000</Frequency><Timestamp dt:dt=""r8"">3.40315382380468E+15</Timestamp><Current dt:dt=""r8"">0</Current><DateUtc dt:dt=""string"">2014-05-21T20:49:05Z</DateUtc></FrequencyChange></FrequencyChanges></Clock>\n",60.03,1,-1613712062,0,,-999999,11,10524,t,51389,61913,5/21/2014,13:49:05,8:49:05 PM,1,Session1,SessionsList,,,,,,,,,,1,1,1,2,,,,,2,1,2,,,,NonCued1,MiniBlocks1,215371,,,,3,0,r,0,50,265963,,0,0,Red,Incongruent,r,White,0,,0,3,258916,,0,0,,,,,,,,,,,,,Pictures\white.bmp,6000,10000,Pictures\black.bmp,3,1,3,,,,,,,,,,StimulusPr,Pictures\RedRight.bmp,NonCuedStim1,Right
POP_2,27010,1,"<?xml version=""1.0""?>\n<Clock xmlns:dt=""urn:schemas-microsoft-com:datatypes""><Description dt:dt=""string"">E-Prime Primary Realtime Clock</Description><StartTime><Timestamp dt:dt=""int"">0</Timestamp><DateUtc dt:dt=""string"">2014-05-21T20:49:05Z</DateUtc></StartTime><FrequencyChanges><FrequencyChange><Frequency dt:dt=""r8"">2793030000</Frequency><Timestamp dt:dt=""r8"">3.40315382380468E+15</Timestamp><Current dt:dt=""r8"">0</Current><DateUtc dt:dt=""string"">2014-05-21T20:49:05Z</DateUtc></FrequencyChange></FrequencyChanges></Clock>\n",60.03,1,-1613712062,0,,-999999,11,10524,t,51389,61913,5/21/2014,13:49:05,8:49:05 PM,1,Session1,SessionsList,,,,,,,,,,1,1,1,2,,,,,2,1,2,,,,NonCued1,MiniBlocks1,215371,,,,4,1,r,-999999,4,290917,r,488,291405,Green,Congruent,r,White,0,,0,4,280905,,0,0,,,,,,,,,,,,,Pictures\white.bmp,9000,10000,Pictures\GreenLeft.bmp,4,1,4,,,,,,,,,,StimulusPr,Pictures\black.bmp,NonCuedStim1,Left
POP_2,27010,1,"<?xml version=""1.0""?>\n<Clock xmlns:dt=""urn:schemas-microsoft-com:datatypes""><Description dt:dt=""string"">E-Prime Primary Realtime Clock</Description><StartTime><Timestamp dt:dt=""int"">0</Timestamp><DateUtc dt:dt=""string"">2014-05-21T20:49:05Z</DateUtc></StartTime><FrequencyChanges><FrequencyChange><Frequency dt:dt=""r8"">2793030000</Frequency><Timestamp dt:dt=""r8"">3.40315382380468E+15</Timestamp><Current dt:dt=""r8"">0</Current><DateUtc dt:dt=""string"">2014-05-21T20:49:05Z</DateUtc></FrequencyChange></FrequencyChanges></Clock>\n",60.03,1,-1613712062,0,,-999999,11,10524,t,51389,61913,5/21/2014,13:49:05,8:49:05 PM,1,Session1,SessionsList,,,,,,,,,,1,1,1,2,,,,,2,1,2,,,,NonCued1,MiniBlocks1,215371,,,,5,1,b,-999999,12,306926,b,600,307526,Green,Congruent,b,White,0,,0,15,302928,,0,0,,,,,,,,,,,,,Pictures\white.bmp,3000,2000,Pictures\black.bmp,5,1,5,,,,,,,,,,StimulusPr,Pictures\GreenRight.bmp,NonCuedStim1,Right
POP_2,27010,1,"<?xml version=""1.0""?>\n<Clock xmlns:dt=""urn:schemas-microsoft-com:datatypes""><Description dt:dt=""string"">E-Prime Primary Realtime Clock</Description><StartTime><Timestamp dt:dt=""int"">0</Timestamp><DateUtc dt:dt=""string"">2014-05-21T20:49:05Z</DateUtc></StartTime><FrequencyChanges><FrequencyChange><Frequency dt:dt=""r8"">2793030000</Frequency><Timestamp dt:dt=""r8"">3.40315382380468E+15</Timestamp><Current dt:dt=""r8"">0</Current><DateUtc dt:dt=""string"">2014-05-21T20:49:05Z</DateUtc></FrequencyChange></FrequencyChanges></Clock>\n",60.03,1,-1613712062,0,,-999999,11,10524,t,51389,61913,5/21/2014,13:49:05,8:49:05 PM,1,Session1,SessionsList,,,,,,,,,,1,1,1,2,,,,,2,1,2,,,,NonCued1,MiniBlocks1,215371,,,,6,1,b,-999999,70,315971,b,494,316465,Red,Incongruent,b,White,0,,0,10,310924,,0,0,,,,,,,,,,,,,Pictures\white.bmp,4000,16000,Pictures\RedLeft.bmp,6,1,6,,,,,,,,,,StimulusPr,Pictures\black.bmp,NonCuedStim1,Left
POP_2,27010,1,"<?xml version=""1.0""?>\n<Clock xmlns:dt=""urn:schemas-microsoft-com:datatypes""><Description dt:dt=""string"">E-Prime Primary Realtime Clock</Description><StartTime><Timestamp dt:dt=""int"">0</Timestamp><DateUtc dt:dt=""string"">2014-05-21T20:49:05Z</DateUtc></StartTime><FrequencyChanges><FrequencyChange><Frequency dt:dt=""r8"">2793030000</Frequency><Timestamp dt:dt=""r8"">3.40315382380468E+15</Timestamp><Current dt:dt=""r8"">0</Current><DateUtc dt:dt=""string"">2014-05-21T20:49:05Z</DateUtc></FrequencyChange></FrequencyChanges></Clock>\n",60.03,1,-1613712062,0,,-999999,11,10524,t,51389,61913,5/21/2014,13:49:05,8:49:05 PM,1,Session1,SessionsList,,,,,,,,,,1,1,1,2,,,,,2,1,2,,,,NonCued1,MiniBlocks1,215371,,,,7,1,b,-999999,14,337927,b,538,338465,Green,Congruent,b,White,0,,0,16,333929,,0,0,,,,,,,,,,,,,Pictures\white.bmp,3000,4000,Pictures\black.bmp,7,1,7,,,,,,,,,,StimulusPr,Pictures\GreenRight.bmp,NonCuedStim1,Right
POP_2,27010,1,"<?xml version=""1.0""?>\n<Clock xmlns:dt=""urn:schemas-microsoft-com:datatypes""><Description dt:dt=""string"">E-Prime Primary Realtime Clock</Description><StartTime><Timestamp dt:dt=""int"">0</Timestamp><DateUtc dt:dt=""string"">2014-05-21T20:49:05Z</DateUtc></StartTime><FrequencyChanges><FrequencyChange><Frequency dt:dt=""r8"">2793030000</Frequency><Timestamp dt:dt=""r8"">3.40315382380468E+15</Timestamp><Current dt:dt=""r8"">0</Current><DateUtc dt:dt=""string"">2014-05-21T20:49:05Z</DateUtc></FrequencyChange></FrequencyChanges></Clock>\n",60.03,1,-1613712062,0,,-999999,11,10524,t,51389,61913,5/21/2014,13:49:05,8:49:05 PM,1,Session1,SessionsList,,,,,,,,,,1,1,1,2,,,,,2,1,2,,,,NonCued1,MiniBlocks1,215371,,,,8,1,b,-999999,9,347922,b,480,348402,Green,Congruent,b,White,0,,0,11,343924,,0,0,,,,,,,,,,,,,Pictures\white.bmp,3000,4000,Pictures\black.bmp,8,1,8,,,,,,,,,,StimulusPr,Pictures\GreenRight.bmp,NonCuedStim1,Right
POP_2,27010,1,"<?xml version=""1.0""?>\n<Clock xmlns:dt=""urn:schemas-microsoft-com:datatypes""><Description dt:dt=""string"">E-Prime Primary Realtime Clock</Description><StartTime><Timestamp dt:dt=""int"">0</Timestamp><DateUtc dt:dt=""string"">2014-05-21T20:49:05Z</DateUtc></StartTime><FrequencyChanges><FrequencyChange><Frequency dt:dt=""r8"">2793030000</Frequency><Timestamp dt:dt=""r8"">3.40315382380468E+15</Timestamp><Current dt:dt=""r8"">0</Current><DateUtc dt:dt=""string"">2014-05-21T20:49:05Z</DateUtc></FrequencyChange></FrequencyChanges></Clock>\n",60.03,1,-1613712062,0,,-999999,11,10524,t,51389,61913,5/21/2014,13:49:05,8:49:05 PM,1,Session1,SessionsList,,,,,,,,,,1,1,1,2,,,,,2,1,2,,,,NonCued1,MiniBlocks1,215371,,,,9,1,b,-999999,13,363914,b,743,364657,Red,Incongruent,b,White,0,,0,2,353903,,0,0,,,,,,,,,,,,,Pictures\white.bmp,9000,2000,Pictures\RedLeft.bmp,9,1,9,,,,,,,,,,StimulusPr,Pictures\black.bmp,NonCuedStim1,Left
POP_2,27010,1,"<?xml version=""1.0""?>\n<Clock xmlns:dt=""urn:schemas-microsoft-com:datatypes""><Description dt:dt=""string"">E-Prime Primary Realtime Clock</Description><StartTime><Timestamp dt:dt=""int"">0</Timestamp><DateUtc dt:dt=""string"">2014-05-21T20:49:05Z</DateUtc></StartTime><FrequencyChanges><FrequencyChange><Frequency dt:dt=""r8"">2793030000</Frequency><Timestamp dt:dt=""r8"">3.40315382380468E+15</Timestamp><Current dt:dt=""r8"">0</Current><DateUtc dt:dt=""string"">2014-05-21T20:49:05Z</DateUtc></FrequencyChange></FrequencyChanges></Clock>\n",60.03,1,-1613712062,0,,-999999,11,10524,t,51389,61913,5/21/2014,13:49:05,8:49:05 PM,1,Session1,SessionsList,,,,,,,,,,1,1,1,2,,,,,2,1,2,,,,NonCued1,MiniBlocks1,215371,,,,10,1,r,-999999,12,374925,r,844,375769,Green,Congruent,r,White,0,,0,13,367912,,0,0,,,,,,,,,,,,,Pictures\white.bmp,6000,2000,Pictures\GreenLeft.bmp,10,1,10,,,,,,,,,,StimulusPr,Pictures\black.bmp,NonCuedStim1,Left
POP_2,27010,1,"<?xml version=""1.0""?>\n<Clock xmlns:dt=""urn:schemas-microsoft-com:datatypes""><Description dt:dt=""string"">E-Prime Primary Realtime Clock</Description><StartTime><Timestamp dt:dt=""int"">0</Timestamp><DateUtc dt:dt=""string"">2014-05-21T20:49:05Z</DateUtc></StartTime><FrequencyChanges><FrequencyChange><Frequency dt:dt=""r8"">2793030000</Frequency><Timestamp dt:dt=""r8"">3.40315382380468E+15</Timestamp><Current dt:dt=""r8"">0</Current><DateUtc dt:dt=""string"">2014-05-21T20:49:05Z</DateUtc></FrequencyChange></FrequencyChanges></Clock>\n",60.03,1,-1613712062,0,,-999999,11,10524,t,51389,61913,5/21/2014,13:49:05,8:49:05 PM,1,Session1,SessionsList,,,,,,,,,,1,1,1,3,,,,,3,1,3,,,,NonCued2,MiniBlocks1,,377790,,,1,1,b,-999999,8,397914,b,721,398635,Green,Congruent,b,White,0,,0,6,387919,,0,0,,,,,,,,,,,,,Pictures\white.bmp,9000,10000,Pictures\black.bmp,,,,1,1,1,,,,,,,StimulusPr,Pictures\GreenRight.bmp,NonCuedStim2,Right
POP_2,27010,1,"<?xml version=""1.0""?>\n<Clock xmlns:dt=""urn:schemas-microsoft-com:datatypes""><Description dt:dt=""string"">E-Prime Primary Realtime Clock</Description><StartTime><Timestamp dt:dt=""int"">0</Timestamp><DateUtc dt:dt=""string"">2014-05-21T20:49:05Z</DateUtc></StartTime><FrequencyChanges><FrequencyChange><Frequency dt:dt=""r8"">2793030000</Frequency><Timestamp dt:dt=""r8"">3.40315382380468E+15</Timestamp><Current dt:dt=""r8"">0</Current><DateUtc dt:dt=""string"">2014-05-21T20:49:05Z</DateUtc></FrequencyChange></FrequencyChanges></Clock>\n",60.03,1,-1613712062,0,,-999999,11,10524,t,51389,61913,5/21/2014,13:49:05,8:49:05 PM,1,Session1,SessionsList,,,,,,,,,,1,1,1,3,,,,,3,1,3,,,,NonCued2,MiniBlocks1,,377790,,,2,1,r,-999999,12,413906,r,643,414549,Green,Congruent,r,White,0,,0,7,409908,,0,0,,,,,,,,,,,,,Pictures\white.bmp,3000,2000,Pictures\GreenLeft.bmp,,,,2,1,2,,,,,,,StimulusPr,Pictures\black.bmp,NonCuedStim2,Left
POP_2,27010,1,"<?xml version=""1.0""?>\n<Clock xmlns:dt=""urn:schemas-microsoft-com:datatypes""><Description dt:dt=""string"">E-Prime Primary Realtime Clock</Description><StartTime><Timestamp dt:dt=""int"">0</Timestamp><DateUtc dt:dt=""string"">2014-05-21T20:49:05Z</DateUtc></StartTime><FrequencyChanges><FrequencyChange><Frequency dt:dt=""r8"">2793030000</Frequency><Timestamp dt:dt=""r8"">3.40315382380468E+15</Timestamp><Current dt:dt=""r8"">0</Current><DateUtc dt:dt=""string"">2014-05-21T20:49:05Z</DateUtc></FrequencyChange></FrequencyChanges></Clock>\n",60.03,1,-1613712062,0,,-999999,11,10524,t,51389,61913,5/21/2014,13:49:05,8:49:05 PM,1,Session1,SessionsList,,,,,,,,,,1,1,1,3,,,,,3,1,3,,,,NonCued2,MiniBlocks1,,377790,,,3,1,r,-999999,4,421902,r,889,422791,Red,Incongruent,r,White,0,,0,7,417920,,0,0,,,,,,,,,,,,,Pictures\white.bmp,3000,2000,Pictures\black.bmp,,,,3,1,3,,,,,,,StimulusPr,Pictures\RedRight.bmp,NonCuedStim2,Right
POP_2,27010,1,"<?xml version=""1.0""?>\n<Clock xmlns:dt=""urn:schemas-microsoft-com:datatypes""><Description dt:dt=""string"">E-Prime Primary Realtime Clock</Description><StartTime><Timestamp dt:dt=""int"">0</Timestamp><DateUtc dt:dt=""string"">2014-05-21T20:49:05Z</DateUtc></StartTime><FrequencyChanges><FrequencyChange><Frequency dt:dt=""r8"">2793030000</Frequency><Timestamp dt:dt=""r8"">3.40315382380468E+15</Timestamp><Current dt:dt=""r8"">0</Current><DateUtc dt:dt=""string"">2014-05-21T20:49:05Z</DateUtc></FrequencyChange></FrequencyChanges></Clock>\n",60.03,1,-1613712062,0,,-999999,11,10524,t,51389,61913,5/21/2014,13:49:05,8:49:05 PM,1,Session1,SessionsList,,,,,,,,,,1,1,1,3,,,,,3,1,3,,,,NonCued2,MiniBlocks1,,377790,,,4,1,r,-999999,17,430930,r,805,431735,Green,Congruent,r,White,0,,0,3,425916,,0,0,,,,,,,,,,,,,Pictures\white.bmp,4000,16000,Pictures\GreenLeft.bmp,,,,4,1,4,,,,,,,StimulusPr,Pictures\black.bmp,NonCuedStim2,Left
POP_2,27010,1,"<?xml version=""1.0""?>\n<Clock xmlns:dt=""urn:schemas-microsoft-com:datatypes""><Description dt:dt=""string"">E-Prime Primary Realtime Clock</Description><StartTime><Timestamp dt:dt=""int"">0</Timestamp><DateUtc dt:dt=""string"">2014-05-21T20:49:05Z</DateUtc></StartTime><FrequencyChanges><FrequencyChange><Frequency dt:dt=""r8"">2793030000</Frequency><Timestamp dt:dt=""r8"">3.40315382380468E+15</Timestamp><Current dt:dt=""r8"">0</Current><DateUtc dt:dt=""string"">2014-05-21T20:49:05Z</DateUtc></FrequencyChange></FrequencyChanges></Clock>\n",60.03,1,-1613712062,0,,-999999,11,10524,t,51389,61913,5/21/2014,13:49:05,8:49:05 PM,1,Session1,SessionsList,,,,,,,,,,1,1,1,3,,,,,3,1,3,,,,NonCued2,MiniBlocks1,,377790,,,5,1,r,-999999,5,455918,r,473,456391,Green,Congruent,r,White,0,,0,10,448922,,0,0,,,,,,,,,,,,,Pictures\white.bmp,6000,4000,Pictures\GreenLeft.bmp,,,,5,1,5,,,,,,,StimulusPr,Pictures\black.bmp,NonCuedStim2,Left
POP_2,27010,1,"<?xml version=""1.0""?>\n<Clock xmlns:dt=""urn:schemas-microsoft-com:datatypes""><Description dt:dt=""string"">E-Prime Primary Realtime Clock</Description><StartTime><Timestamp dt:dt=""int"">0</Timestamp><DateUtc dt:dt=""string"">2014-05-21T20:49:05Z</DateUtc></StartTime><FrequencyChanges><FrequencyChange><Frequency dt:dt=""r8"">2793030000</Frequency><Timestamp dt:dt=""r8"">3.40315382380468E+15</Timestamp><Current dt:dt=""r8"">0</Current><DateUtc dt:dt=""string"">2014-05-21T20:49:05Z</DateUtc></FrequencyChange></FrequencyChanges></Clock>\n",60.03,1,-1613712062,0,,-999999,11,10524,t,51389,61913,5/21/2014,13:49:05,8:49:05 PM,1,Session1,SessionsList,,,,,,,,,,1,1,1,3,,,,,3,1,3,,,,NonCued2,MiniBlocks1,,377790,,,6,1,b,-999999,17,465930,b,656,466586,Red,Incongruent,b,White,0,,0,14,461915,,0,0,,,,,,,,,,,,,Pictures\white.bmp,3000,4000,Pictures\RedLeft.bmp,,,,6,1,6,,,,,,,StimulusPr,Pictures\black.bmp,NonCuedStim2,Left
POP_2,27010,1,"<?xml version=""1.0""?>\n<Clock xmlns:dt=""urn:schemas-microsoft-com:datatypes""><Description dt:dt=""string"">E-Prime Primary Realtime Clock</Description><StartTime><Timestamp dt:dt=""int"">0</Timestamp><DateUtc dt:dt=""string"">2014-05-21T20:49:05Z</DateUtc></StartTime><FrequencyChanges><FrequencyChange><Frequency dt:dt=""r8"">2793030000</Frequency><Timestamp dt:dt=""r8"">3.40315382380468E+15</Timestamp><Current dt:dt=""r8"">0</Current><DateUtc dt:dt=""string"">2014-05-21T20:49:05Z</DateUtc></FrequencyChange></FrequencyChanges></Clock>\n",60.03,1,-1613712062,0,,-999999,11,10524,t,51389,61913,5/21/2014,13:49:05,8:49:05 PM,1,Session1,SessionsList,,,,,,,,,,1,1,1,3,,,,,3,1,3,,,,NonCued2,MiniBlocks1,,377790,,,7,1,b,-999999,11,476924,b,945,477869,Green,Congruent,b,White,0,,0,14,471927,,0,0,,,,,,,,,,,,,Pictures\white.bmp,4000,16000,Pictures\black.bmp,,,,7,1,7,,,,,,,StimulusPr,Pictures\GreenRight.bmp,NonCuedStim2,Right
POP_2,27010,1,"<?xml version=""1.0""?>\n<Clock xmlns:dt=""urn:schemas-microsoft-com:datatypes""><Description dt:dt=""string"">E-Prime Primary Realtime Clock</Description><StartTime><Timestamp dt:dt=""int"">0</Timestamp><DateUtc dt:dt=""string"">2014-05-21T20:49:05Z</DateUtc></StartTime><FrequencyChanges><FrequencyChange><Frequency dt:dt=""r8"">2793030000</Frequency><Timestamp dt:dt=""r8"">3.40315382380468E+15</Timestamp><Current dt:dt=""r8"">0</Current><DateUtc dt:dt=""string"">2014-05-21T20:49:05Z</DateUtc></FrequencyChange></FrequencyChanges></Clock>\n",60.03,1,-1613712062,0,,-999999,11,10524,t,51389,61913,5/21/2014,13:49:05,8:49:05 PM,1,Session1,SessionsList,,,,,,,,,,1,1,1,3,,,,,3,1,3,,,,NonCued2,MiniBlocks1,,377790,,,8,1,r,-999999,14,504927,r,593,505520,Green,Congruent,r,White,0,,0,14,494915,,0,0,,,,,,,,,,,,,Pictures\white.bmp,9000,2000,Pictures\GreenLeft.bmp,,,,8,1,8,,,,,,,StimulusPr,Pictures\black.bmp,NonCuedStim2,Left
POP_2,27010,1,"<?xml version=""1.0""?>\n<Clock xmlns:dt=""urn:schemas-microsoft-com:datatypes""><Description dt:dt=""string"">E-Prime Primary Realtime Clock</Description><StartTime><Timestamp dt:dt=""int"">0</Timestamp><DateUtc dt:dt=""string"">2014-05-21T20:49:05Z</DateUtc></StartTime><FrequencyChanges><FrequencyChange><Frequency dt:dt=""r8"">2793030000</Frequency><Timestamp dt:dt=""r8"">3.40315382380468E+15</Timestamp><Current dt:dt=""r8"">0</Current><DateUtc dt:dt=""string"">2014-05-21T20:49:05Z</DateUtc></FrequencyChange></FrequencyChanges></Clock>\n",60.03,1,-1613712062,0,,-999999,11,10524,t,51389,61913,5/21/2014,13:49:05,8:49:05 PM,1,Session1,SessionsList,,,,,,,,,,1,1,1,3,,,,,3,1,3,,,,NonCued2,MiniBlocks1,,377790,,,9,1,b,-999999,10,512923,b,719,513642,Green,Congruent,b,White,0,,0,12,508925,,0,0,,,,,,,,,,,,,Pictures\white.bmp,3000,10000,Pictures\black.bmp,,,,9,1,9,,,,,,,StimulusPr,Pictures\GreenRight.bmp,NonCuedStim2,Right
POP_2,27010,1,"<?xml version=""1.0""?>\n<Clock xmlns:dt=""urn:schemas-microsoft-com:datatypes""><Description dt:dt=""string"">E-Prime Primary Realtime Clock</Description><StartTime><Timestamp dt:dt=""int"">0</Timestamp><DateUtc dt:dt=""string"">2014-05-21T20:49:05Z</DateUtc></StartTime><FrequencyChanges><FrequencyChange><Frequency dt:dt=""r8"">2793030000</Frequency><Timestamp dt:dt=""r8"">3.40315382380468E+15</Timestamp><Current dt:dt=""r8"">0</Current><DateUtc dt:dt=""string"">2014-05-21T20:49:05Z</DateUtc></FrequencyChange></FrequencyChanges></Clock>\n",60.03,1,-1613712062,0,,-999999,11,10524,t,51389,61913,5/21/2014,13:49:05,8:49:05 PM,1,Session1,SessionsList,,,,,,,,,,1,1,1,3,,,,,3,1,3,,,,NonCued2,MiniBlocks1,,377790,,,10,1,b,-999999,19,528932,b,583,529515,Green,Congruent,b,White,0,,0,4,524917,,0,0,,,,,,,,,,,,,Pictures\white.bmp,3000,2000,Pictures\black.bmp,,,,10,1,10,,,,,,,StimulusPr,Pictures\GreenRight.bmp,NonCuedStim2,Right
POP_2,27010,1,"<?xml version=""1.0""?>\n<Clock xmlns:dt=""urn:schemas-microsoft-com:datatypes""><Description dt:dt=""string"">E-Prime Primary Realtime Clock</Description><StartTime><Timestamp dt:dt=""int"">0</Timestamp><DateUtc dt:dt=""string"">2014-05-21T20:49:05Z</DateUtc></StartTime><FrequencyChanges><FrequencyChange><Frequency dt:dt=""r8"">2793030000</Frequency><Timestamp dt:dt=""r8"">3.40315382380468E+15</Timestamp><Current dt:dt=""r8"">0</Current><DateUtc dt:dt=""string"">2014-05-21T20:49:05Z</DateUtc></FrequencyChange></FrequencyChanges></Clock>\n",60.03,1,-1613712062,0,,-999999,11,10524,t,51389,61913,5/21/2014,13:49:05,8:49:05 PM,1,Session1,SessionsList,,,,,,,,,,1,1,1,4,,531547,,,4,1,4,,,,Cued2,MiniBlocks1,,,,,1,1,b,-999999,9,548922,b,622,549544,White,Congruent,b,Green,0,,0,12,541925,,0,0,,,,1,1,1,,,,,,,Pictures\green.bmp,6000,4000,Pictures\black.bmp,,,,,,,,,,,,,StimulusPr,Pictures\right.bmp,CuedStim2,Right
POP_2,27010,1,"<?xml version=""1.0""?>\n<Clock xmlns:dt=""urn:schemas-microsoft-com:datatypes""><Description dt:dt=""string"">E-Prime Primary Realtime Clock</Description><StartTime><Timestamp dt:dt=""int"">0</Timestamp><DateUtc dt:dt=""string"">2014-05-21T20:49:05Z</DateUtc></StartTime><FrequencyChanges><FrequencyChange><Frequency dt:dt=""r8"">2793030000</Frequency><Timestamp dt:dt=""r8"">3.40315382380468E+15</Timestamp><Current dt:dt=""r8"">0</Current><DateUtc dt:dt=""string"">2014-05-21T20:49:05Z</DateUtc></FrequencyChange></FrequencyChanges></Clock>\n",60.03,1,-1613712062,0,,-999999,11,10524,t,51389,61913,5/21/2014,13:49:05,8:49:05 PM,1,Session1,SessionsList,,,,,,,,,,1,1,1,4,,531547,,,4,1,4,,,,Cued2,MiniBlocks1,,,,,2,1,b,-999999,3,564898,b,1310,566208,White,Congruent,b,Green,0,,0,18,554919,,0,0,,,,2,1,2,,,,,,,Pictures\green.bmp,9000,10000,Pictures\black.bmp,,,,,,,,,,,,,StimulusPr,Pictures\right.bmp,CuedStim2,Right
POP_2,27010,1,"<?xml version=""1.0""?>\n<Clock xmlns:dt=""urn:schemas-microsoft-com:datatypes""><Description dt:dt=""string"">E-Prime Primary Realtime Clock</Description><StartTime><Timestamp dt:dt=""int"">0</Timestamp><DateUtc dt:dt=""string"">2014-05-21T20:49:05Z</DateUtc></StartTime><FrequencyChanges><FrequencyChange><Frequency dt:dt=""r8"">2793030000</Frequency><Timestamp dt:dt=""r8"">3.40315382380468E+15</Timestamp><Current dt:dt=""r8"">0</Current><DateUtc dt:dt=""string"">2014-05-21T20:49:05Z</DateUtc></FrequencyChange></FrequencyChanges></Clock>\n",60.03,1,-1613712062,0,,-999999,11,10524,t,51389,61913,5/21/2014,13:49:05,8:49:05 PM,1,Session1,SessionsList,,,,,,,,,,1,1,1,4,,531547,,,4,1,4,,,,Cued2,MiniBlocks1,,,,,3,0,r,-999999,4,581905,b,552,582457,White,Incongruent,r,Red,0,,0,10,577924,,0,0,,,,3,1,3,,,,,,,Pictures\red.bmp,3000,2000,Pictures\black.bmp,,,,,,,,,,,,,StimulusPr,Pictures\right.bmp,CuedStim2,Right
POP_2,27010,1,"<?xml version=""1.0""?>\n<Clock xmlns:dt=""urn:schemas-microsoft-com:datatypes""><Description dt:dt=""string"">E-Prime Primary Realtime Clock</Description><StartTime><Timestamp dt:dt=""int"">0</Timestamp><DateUtc dt:dt=""string"">2014-05-21T20:49:05Z</DateUtc></StartTime><FrequencyChanges><FrequencyChange><Frequency dt:dt=""r8"">2793030000</Frequency><Timestamp dt:dt=""r8"">3.40315382380468E+15</Timestamp><Current dt:dt=""r8"">0</Current><DateUtc dt:dt=""string"">2014-05-21T20:49:05Z</DateUtc></FrequencyChange></FrequencyChanges></Clock>\n",60.03,1,-1613712062,0,,-999999,11,10524,t,51389,61913,5/21/2014,13:49:05,8:49:05 PM,1,Session1,SessionsList,,,,,,,,,,1,1,1,4,,531547,,,4,1,4,,,,Cued2,MiniBlocks1,,,,,4,1,r,-999999,2,592916,r,640,593556,White,Congruent,r,Green,0,,0,6,585920,,0,0,,,,4,1,4,,,,,,,Pictures\green.bmp,6000,16000,Pictures\left.bmp,,,,,,,,,,,,,StimulusPr,Pictures\black.bmp,CuedStim2,Left
POP_2,27010,1,"<?xml version=""1.0""?>\n<Clock xmlns:dt=""urn:schemas-microsoft-com:datatypes""><Description dt:dt=""string"">E-Prime Primary Realtime Clock</Description><StartTime><Timestamp dt:dt=""int"">0</Timestamp><DateUtc dt:dt=""string"">2014-05-21T20:49:05Z</DateUtc></StartTime><FrequencyChanges><FrequencyChange><Frequency dt:dt=""r8"">2793030000</Frequency><Timestamp dt:dt=""r8"">3.40315382380468E+15</Timestamp><Current dt:dt=""r8"">0</Current><DateUtc dt:dt=""string"">2014-05-21T20:49:05Z</DateUtc></FrequencyChange></FrequencyChanges></Clock>\n",60.03,1,-1613712062,0,,-999999,11,10524,t,51389,61913,5/21/2014,13:49:05,8:49:05 PM,1,Session1,SessionsList,,,,,,,,,,1,1,1,4,,531547,,,4,1,4,,,,Cued2,MiniBlocks1,,,,,5,1,b,-999999,10,614905,b,616,615521,White,Congruent,b,Green,0,,0,7,610907,,0,0,,,,5,1,5,,,,,,,Pictures\green.bmp,3000,2000,Pictures\black.bmp,,,,,,,,,,,,,StimulusPr,Pictures\right.bmp,CuedStim2,Right
POP_2,27010,1,"<?xml version=""1.0""?>\n<Clock xmlns:dt=""urn:schemas-microsoft-com:datatypes""><Description dt:dt=""string"">E-Prime Primary Realtime Clock</Description><StartTime><Timestamp dt:dt=""int"">0</Timestamp><DateUtc dt:dt=""string"">2014-05-21T20:49:05Z</DateUtc></StartTime><FrequencyChanges><FrequencyChange><Frequency dt:dt=""r8"">2793030000</Frequency><Timestamp dt:dt=""r8"">3.40315382380468E+15</Timestamp><Current dt:dt=""r8"">0</Current><DateUtc dt:dt=""string"">2014-05-21T20:49:05Z</DateUtc></FrequencyChange></FrequencyChanges></Clock>\n",60.03,1,-1613712062,0,,-999999,11,10524,t,51389,61913,5/21/2014,13:49:05,8:49:05 PM,1,Session1,SessionsList,,,,,,,,,,1,1,1,4,,531547,,,4,1,4,,,,Cued2,MiniBlocks1,,,,,6,1,r,-999999,13,622918,r,579,623497,White,Congruent,r,Green,0,,0,7,618920,,0,0,,,,6,1,6,,,,,,,Pictures\green.bmp,3000,2000,Pictures\left.bmp,,,,,,,,,,,,,StimulusPr,Pictures\black.bmp,CuedStim2,Left
POP_2,27010,1,"<?xml version=""1.0""?>\n<Clock xmlns:dt=""urn:schemas-microsoft-com:datatypes""><Description dt:dt=""string"">E-Prime Primary Realtime Clock</Description><StartTime><Timestamp dt:dt=""int"">0</Timestamp><DateUtc dt:dt=""string"">2014-05-21T20:49:05Z</DateUtc></StartTime><FrequencyChanges><FrequencyChange><Frequency dt:dt=""r8"">2793030000</Frequency><Timestamp dt:dt=""r8"">3.40315382380468E+15</Timestamp><Current dt:dt=""r8"">0</Current><DateUtc dt:dt=""string"">2014-05-21T20:49:05Z</DateUtc></FrequencyChange></FrequencyChanges></Clock>\n",60.03,1,-1613712062,0,,-999999,11,10524,t,51389,61913,5/21/2014,13:49:05,8:49:05 PM,1,Session1,SessionsList,,,,,,,,,,1,1,1,4,,531547,,,4,1,4,,,,Cued2,MiniBlocks1,,,,,7,1,b,-999999,16,633929,b,684,634613,White,Incongruent,b,Red,0,,0,3,626916,,0,0,,,,7,1,7,,,,,,,Pictures\red.bmp,6000,4000,Pictures\left.bmp,,,,,,,,,,,,,StimulusPr,Pictures\black.bmp,CuedStim2,Left
POP_2,27010,1,"<?xml version=""1.0""?>\n<Clock xmlns:dt=""urn:schemas-microsoft-com:datatypes""><Description dt:dt=""string"">E-Prime Primary Realtime Clock</Description><StartTime><Timestamp dt:dt=""int"">0</Timestamp><DateUtc dt:dt=""string"">2014-05-21T20:49:05Z</DateUtc></StartTime><FrequencyChanges><FrequencyChange><Frequency dt:dt=""r8"">2793030000</Frequency><Timestamp dt:dt=""r8"">3.40315382380468E+15</Timestamp><Current dt:dt=""r8"">0</Current><DateUtc dt:dt=""string"">2014-05-21T20:49:05Z</DateUtc></FrequencyChange></FrequencyChanges></Clock>\n",60.03,1,-1613712062,0,,-999999,11,10524,t,51389,61913,5/21/2014,13:49:05,8:49:05 PM,1,Session1,SessionsList,,,,,,,,,,1,1,1,4,,531547,,,4,1,4,,,,Cued2,MiniBlocks1,,,,,8,0,b,-999999,11,644924,r,1862,646786,White,Congruent,b,Green,0,,0,13,639926,,0,0,,,,8,1,8,,,,,,,Pictures\green.bmp,4000,4000,Pictures\black.bmp,,,,,,,,,,,,,StimulusPr,Pictures\right.bmp,CuedStim2,Right
POP_2,27010,1,"<?xml version=""1.0""?>\n<Clock xmlns:dt=""urn:schemas-microsoft-com:datatypes""><Description dt:dt=""string"">E-Prime Primary Realtime Clock</Description><StartTime><Timestamp dt:dt=""int"">0</Timestamp><DateUtc dt:dt=""string"">2014-05-21T20:49:05Z</DateUtc></StartTime><FrequencyChanges><FrequencyChange><Frequency dt:dt=""r8"">2793030000</Frequency><Timestamp dt:dt=""r8"">3.40315382380468E+15</Timestamp><Current dt:dt=""r8"">0</Current><DateUtc dt:dt=""string"">2014-05-21T20:49:05Z</DateUtc></FrequencyChange></FrequencyChanges></Clock>\n",60.03,1,-1613712062,0,,-999999,11,10524,t,51389,61913,5/21/2014,13:49:05,8:49:05 PM,1,Session1,SessionsList,,,,,,,,,,1,1,1,4,,531547,,,4,1,4,,,,Cued2,MiniBlocks1,,,,,9,1,b,-999999,18,661932,b,461,662393,White,Incongruent,b,Red,0,,0,7,651920,,0,0,,,,9,1,9,,,,,,,Pictures\red.bmp,9000,10000,Pictures\left.bmp,,,,,,,,,,,,,StimulusPr,Pictures\black.bmp,CuedStim2,Left
POP_2,27010,1,"<?xml version=""1.0""?>\n<Clock xmlns:dt=""urn:schemas-microsoft-com:datatypes""><Description dt:dt=""string"">E-Prime Primary Realtime Clock</Description><StartTime><Timestamp dt:dt=""int"">0</Timestamp><DateUtc dt:dt=""string"">2014-05-21T20:49:05Z</DateUtc></StartTime><FrequencyChanges><FrequencyChange><Frequency dt:dt=""r8"">2793030000</Frequency><Timestamp dt:dt=""r8"">3.40315382380468E+15</Timestamp><Current dt:dt=""r8"">0</Current><DateUtc dt:dt=""string"">2014-05-21T20:49:05Z</DateUtc></FrequencyChange></FrequencyChanges></Clock>\n",60.03,1,-1613712062,0,,-999999,11,10524,t,51389,61913,5/21/2014,13:49:05,8:49:05 PM,1,Session1,SessionsList,,,,,,,,,,1,1,1,4,,531547,,,4,1,4,,,,Cued2,MiniBlocks1,,,,,10,1,r,-999999,7,683921,r,577,684498,White,Congruent,r,Green,0,,0,12,673926,,0,0,,,,10,1,10,,,,,,,Pictures\green.bmp,9000,10000,Pictures\left.bmp,,,,,,,,,,,,,StimulusPr,Pictures\black.bmp,CuedStim2,Left
POP_2,27010,1,"<?xml version=""1.0""?>\n<Clock xmlns:dt=""urn:schemas-microsoft-com:datatypes""><Description dt:dt=""string"">E-Prime Primary Realtime Clock</Description><StartTime><Timestamp dt:dt=""int"">0</Timestamp><DateUtc dt:dt=""string"">2014-05-21T20:49:05Z</DateUtc></StartTime><FrequencyChanges><FrequencyChange><Frequency dt:dt=""r8"">2793030000</Frequency><Timestamp dt:dt=""r8"">3.40315382380468E+15</Timestamp><Current dt:dt=""r8"">0</Current><DateUtc dt:dt=""string"">2014-05-21T20:49:05Z</DateUtc></FrequencyChange></FrequencyChanges></Clock>\n",60.03,1,-1613712062,0,,-999999,11,10524,t,51389,61913,5/21/2014,13:49:05,8:49:05 PM,2,Session2,SessionsList,0,,-999999,13,708492,t,34653,743145,694516,2,1,2,1,,,,,,,,1,1,1,NonCued3,MiniBlocks2,,,743158,,1,1,b,-999999,15,763165,b,707,763872,Green,Congruent,b,White,0,,0,10,753170,,0,0,,,,,,,,,,,,,Pictures\white.bmp,9000,10000,Pictures\black.bmp,,,,,,,1,1,1,,,,StimulusPr,Pictures\GreenRight.bmp,NonCuedStim3,Right
POP_2,27010,1,"<?xml version=""1.0""?>\n<Clock xmlns:dt=""urn:schemas-microsoft-com:datatypes""><Description dt:dt=""string"">E-Prime Primary Realtime Clock</Description><StartTime><Timestamp dt:dt=""int"">0</Timestamp><DateUtc dt:dt=""string"">2014-05-21T20:49:05Z</DateUtc></StartTime><FrequencyChanges><FrequencyChange><Frequency dt:dt=""r8"">2793030000</Frequency><Timestamp dt:dt=""r8"">3.40315382380468E+15</Timestamp><Current dt:dt=""r8"">0</Current><DateUtc dt:dt=""string"">2014-05-21T20:49:05Z</DateUtc></FrequencyChange></FrequencyChanges></Clock>\n",60.03,1,-1613712062,0,,-999999,11,10524,t,51389,61913,5/21/2014,13:49:05,8:49:05 PM,2,Session2,SessionsList,0,,-999999,13,708492,t,34653,743145,694516,2,1,2,1,,,,,,,,1,1,1,NonCued3,MiniBlocks2,,,743158,,2,1,r,-999999,11,785170,r,785,785955,Red,Incongruent,r,White,0,,0,4,775159,,0,0,,,,,,,,,,,,,Pictures\white.bmp,9000,10000,Pictures\black.bmp,,,,,,,2,1,2,,,,StimulusPr,Pictures\RedRight.bmp,NonCuedStim3,Right
POP_2,27010,1,"<?xml version=""1.0""?>\n<Clock xmlns:dt=""urn:schemas-microsoft-com:datatypes""><Description dt:dt=""string"">E-Prime Primary Realtime Clock</Description><StartTime><Timestamp dt:dt=""int"">0</Timestamp><DateUtc dt:dt=""string"">2014-05-21T20:49:05Z</DateUtc></StartTime><FrequencyChanges><FrequencyChange><Frequency dt:dt=""r8"">2793030000</Frequency><Timestamp dt:dt=""r8"">3.40315382380468E+15</Timestamp><Current dt:dt=""r8"">0</Current><DateUtc dt:dt=""string"">2014-05-21T20:49:05Z</DateUtc></FrequencyChange></FrequencyChanges></Clock>\n",60.03,1,-1613712062,0,,-999999,11,10524,t,51389,61913,5/21/2014,13:49:05,8:49:05 PM,2,Session2,SessionsList,0,,-999999,13,708492,t,34653,743145,694516,2,1,2,1,,,,,,,,1,1,1,NonCued3,MiniBlocks2,,,743158,,3,1,r,-999999,14,802162,r,752,802914,Green,Congruent,r,White,0,,0,5,797164,,0,0,,,,,,,,,,,,,Pictures\white.bmp,4000,4000,Pictures\GreenLeft.bmp,,,,,,,3,1,3,,,,StimulusPr,Pictures\black.bmp,NonCuedStim3,Left
POP_2,27010,1,"<?xml version=""1.0""?>\n<Clock xmlns:dt=""urn:schemas-microsoft-com:datatypes""><Description dt:dt=""string"">E-Prime Primary Realtime Clock</Description><StartTime><Timestamp dt:dt=""int"">0</Timestamp><DateUtc dt:dt=""string"">2014-05-21T20:49:05Z</DateUtc></StartTime><FrequencyChanges><FrequencyChange><Frequency dt:dt=""r8"">2793030000</Frequency><Timestamp dt:dt=""r8"">3.40315382380468E+15</Timestamp><Current dt:dt=""r8"">0</Current><DateUtc dt:dt=""string"">2014-05-21T20:49:05Z</DateUtc></FrequencyChange></FrequencyChanges></Clock>\n",60.03,1,-1613712062,0,,-999999,11,10524,t,51389,61913,5/21/2014,13:49:05,8:49:05 PM,2,Session2,SessionsList,0,,-999999,13,708492,t,34653,743145,694516,2,1,2,1,,,,,,,,1,1,1,NonCued3,MiniBlocks2,,,743158,,4,1,b,-999999,3,815156,b,839,815995,Red,Incongruent,b,White,0,,0,17,808176,,0,0,,,,,,,,,,,,,Pictures\white.bmp,6000,4000,Pictures\RedLeft.bmp,,,,,,,4,1,4,,,,StimulusPr,Pictures\black.bmp,NonCuedStim3,Left
POP_2,27010,1,"<?xml version=""1.0""?>\n<Clock xmlns:dt=""urn:schemas-microsoft-com:datatypes""><Description dt:dt=""string"">E-Prime Primary Realtime Clock</Description><StartTime><Timestamp dt:dt=""int"">0</Timestamp><DateUtc dt:dt=""string"">2014-05-21T20:49:05Z</DateUtc></StartTime><FrequencyChanges><FrequencyChange><Frequency dt:dt=""r8"">2793030000</Frequency><Timestamp dt:dt=""r8"">3.40315382380468E+15</Timestamp><Current dt:dt=""r8"">0</Current><DateUtc dt:dt=""string"">2014-05-21T20:49:05Z</DateUtc></FrequencyChange></FrequencyChanges></Clock>\n",60.03,1,-1613712062,0,,-999999,11,10524,t,51389,61913,5/21/2014,13:49:05,8:49:05 PM,2,Session2,SessionsList,0,,-999999,13,708492,t,34653,743145,694516,2,1,2,1,,,,,,,,1,1,1,NonCued3,MiniBlocks2,,,743158,,5,1,b,-999999,13,825167,b,981,826148,Green,Congruent,b,White,0,,0,9,821169,,0,0,,,,,,,,,,,,,Pictures\white.bmp,3000,2000,Pictures\black.bmp,,,,,,,5,1,5,,,,StimulusPr,Pictures\GreenRight.bmp,NonCuedStim3,Right
POP_2,27010,1,"<?xml version=""1.0""?>\n<Clock xmlns:dt=""urn:schemas-microsoft-com:datatypes""><Description dt:dt=""string"">E-Prime Primary Realtime Clock</Description><StartTime><Timestamp dt:dt=""int"">0</Timestamp><DateUtc dt:dt=""string"">2014-05-21T20:49:05Z</DateUtc></StartTime><FrequencyChanges><FrequencyChange><Frequency dt:dt=""r8"">2793030000</Frequency><Timestamp dt:dt=""r8"">3.40315382380468E+15</Timestamp><Current dt:dt=""r8"">0</Current><DateUtc dt:dt=""string"">2014-05-21T20:49:05Z</DateUtc></FrequencyChange></FrequencyChanges></Clock>\n",60.03,1,-1613712062,0,,-999999,11,10524,t,51389,61913,5/21/2014,13:49:05,8:49:05 PM,2,Session2,SessionsList,0,,-999999,13,708492,t,34653,743145,694516,2,1,2,1,,,,,,,,1,1,1,NonCued3,MiniBlocks2,,,743158,,6,1,r,-999999,13,834163,r,716,834879,Green,Congruent,r,White,0,,0,5,830165,,0,0,,,,,,,,,,,,,Pictures\white.bmp,3000,2000,Pictures\GreenLeft.bmp,,,,,,,6,1,6,,,,StimulusPr,Pictures\black.bmp,NonCuedStim3,Left
POP_2,27010,1,"<?xml version=""1.0""?>\n<Clock xmlns:dt=""urn:schemas-microsoft-com:datatypes""><Description dt:dt=""string"">E-Prime Primary Realtime Clock</Description><StartTime><Timestamp dt:dt=""int"">0</Timestamp><DateUtc dt:dt=""string"">2014-05-21T20:49:05Z</DateUtc></StartTime><FrequencyChanges><FrequencyChange><Frequency dt:dt=""r8"">2793030000</Frequency><Timestamp dt:dt=""r8"">3.40315382380468E+15</Timestamp><Current dt:dt=""r8"">0</Current><DateUtc dt:dt=""string"">2014-05-21T20:49:05Z</DateUtc></FrequencyChange></FrequencyChanges></Clock>\n",60.03,1,-1613712062,0,,-999999,11,10524,t,51389,61913,5/21/2014,13:49:05,8:49:05 PM,2,Session2,SessionsList,0,,-999999,13,708492,t,34653,743145,694516,2,1,2,1,,,,,,,,1,1,1,NonCued3,MiniBlocks2,,,743158,,7,1,b,-999999,18,845174,b,975,846149,Green,Congruent,b,White,0,,0,17,838177,,0,0,,,,,,,,,,,,,Pictures\white.bmp,6000,16000,Pictures\black.bmp,,,,,,,7,1,7,,,,StimulusPr,Pictures\GreenRight.bmp,NonCuedStim3,Right
POP_2,27010,1,"<?xml version=""1.0""?>\n<Clock xmlns:dt=""urn:schemas-microsoft-com:datatypes""><Description dt:dt=""string"">E-Prime Primary Realtime Clock</Description><StartTime><Timestamp dt:dt=""int"">0</Timestamp><DateUtc dt:dt=""string"">2014-05-21T20:49:05Z</DateUtc></StartTime><FrequencyChanges><FrequencyChange><Frequency dt:dt=""r8"">2793030000</Frequency><Timestamp dt:dt=""r8"">3.40315382380468E+15</Timestamp><Current dt:dt=""r8"">0</Current><DateUtc dt:dt=""string"">2014-05-21T20:49:05Z</DateUtc></FrequencyChange></FrequencyChanges></Clock>\n",60.03,1,-1613712062,0,,-999999,11,10524,t,51389,61913,5/21/2014,13:49:05,8:49:05 PM,2,Session2,SessionsList,0,,-999999,13,708492,t,34653,743145,694516,2,1,2,1,,,,,,,,1,1,1,NonCued3,MiniBlocks2,,,743158,,8,1,r,-999999,2,868162,r,831,868993,Red,Incongruent,r,White,0,,0,7,864148,,0,0,,,,,,,,,,,,,Pictures\white.bmp,3000,2000,Pictures\black.bmp,,,,,,,8,1,8,,,,StimulusPr,Pictures\RedRight.bmp,NonCuedStim3,Right
POP_2,27010,1,"<?xml version=""1.0""?>\n<Clock xmlns:dt=""urn:schemas-microsoft-com:datatypes""><Description dt:dt=""string"">E-Prime Primary Realtime Clock</Description><StartTime><Timestamp dt:dt=""int"">0</Timestamp><DateUtc dt:dt=""string"">2014-05-21T20:49:05Z</DateUtc></StartTime><FrequencyChanges><FrequencyChange><Frequency dt:dt=""r8"">2793030000</Frequency><Timestamp dt:dt=""r8"">3.40315382380468E+15</Timestamp><Current dt:dt=""r8"">0</Current><DateUtc dt:dt=""string"">2014-05-21T20:49:05Z</DateUtc></FrequencyChange></FrequencyChanges></Clock>\n",60.03,1,-1613712062,0,,-999999,11,10524,t,51389,61913,5/21/2014,13:49:05,8:49:05 PM,2,Session2,SessionsList,0,,-999999,13,708492,t,34653,743145,694516,2,1,2,1,,,,,,,,1,1,1,NonCued3,MiniBlocks2,,,743158,,9,0,r,0,13,882172,,0,0,Green,Congruent,r,White,0,,0,17,872160,,0,0,,,,,,,,,,,,,Pictures\white.bmp,9000,10000,Pictures\GreenLeft.bmp,,,,,,,9,1,9,,,,StimulusPr,Pictures\black.bmp,NonCuedStim3,Left
POP_2,27010,1,"<?xml version=""1.0""?>\n<Clock xmlns:dt=""urn:schemas-microsoft-com:datatypes""><Description dt:dt=""string"">E-Prime Primary Realtime Clock</Description><StartTime><Timestamp dt:dt=""int"">0</Timestamp><DateUtc dt:dt=""string"">2014-05-21T20:49:05Z</DateUtc></StartTime><FrequencyChanges><FrequencyChange><Frequency dt:dt=""r8"">2793030000</Frequency><Timestamp dt:dt=""r8"">3.40315382380468E+15</Timestamp><Current dt:dt=""r8"">0</Current><DateUtc dt:dt=""string"">2014-05-21T20:49:05Z</DateUtc></FrequencyChange></FrequencyChanges></Clock>\n",60.03,1,-1613712062,0,,-999999,11,10524,t,51389,61913,5/21/2014,13:49:05,8:49:05 PM,2,Session2,SessionsList,0,,-999999,13,708492,t,34653,743145,694516,2,1,2,1,,,,,,,,1,1,1,NonCued3,MiniBlocks2,,,743158,,10,1,r,-999999,16,904161,r,544,904705,Green,Congruent,r,White,0,,0,4,897164,,0,0,,,,,,,,,,,,,Pictures\white.bmp,6000,4000,Pictures\GreenLeft.bmp,,,,,,,10,1,10,,,,StimulusPr,Pictures\black.bmp,NonCuedStim3,Left
POP_2,27010,1,"<?xml version=""1.0""?>\n<Clock xmlns:dt=""urn:schemas-microsoft-com:datatypes""><Description dt:dt=""string"">E-Prime Primary Realtime Clock</Description><StartTime><Timestamp dt:dt=""int"">0</Timestamp><DateUtc dt:dt=""string"">2014-05-21T20:49:05Z</DateUtc></StartTime><FrequencyChanges><FrequencyChange><Frequency dt:dt=""r8"">2793030000</Frequency><Timestamp dt:dt=""r8"">3.40315382380468E+15</Timestamp><Current dt:dt=""r8"">0</Current><DateUtc dt:dt=""string"">2014-05-21T20:49:05Z</DateUtc></FrequencyChange></FrequencyChanges></Clock>\n",60.03,1,-1613712062,0,,-999999,11,10524,t,51389,61913,5/21/2014,13:49:05,8:49:05 PM,2,Session2,SessionsList,0,,-999999,13,708492,t,34653,743145,694516,2,1,2,2,,,908725,,,,,2,1,2,Cued3,MiniBlocks2,,,,,1,1,b,-999999,8,923168,b,530,923698,White,Congruent,b,Green,0,,0,2,919153,,0,0,,,,,,,1,1,1,,,,Pictures\green.bmp,3000,2000,Pictures\black.bmp,,,,,,,,,,,,,StimulusPr,Pictures\right.bmp,CuedStim3,Right
POP_2,27010,1,"<?xml version=""1.0""?>\n<Clock xmlns:dt=""urn:schemas-microsoft-com:datatypes""><Description dt:dt=""string"">E-Prime Primary Realtime Clock</Description><StartTime><Timestamp dt:dt=""int"">0</Timestamp><DateUtc dt:dt=""string"">2014-05-21T20:49:05Z</DateUtc></StartTime><FrequencyChanges><FrequencyChange><Frequency dt:dt=""r8"">2793030000</Frequency><Timestamp dt:dt=""r8"">3.40315382380468E+15</Timestamp><Current dt:dt=""r8"">0</Current><DateUtc dt:dt=""string"">2014-05-21T20:49:05Z</DateUtc></FrequencyChange></FrequencyChanges></Clock>\n",60.03,1,-1613712062,0,,-999999,11,10524,t,51389,61913,5/21/2014,13:49:05,8:49:05 PM,2,Session2,SessionsList,0,,-999999,13,708492,t,34653,743145,694516,2,1,2,2,,,908725,,,,,2,1,2,Cued3,MiniBlocks2,,,,,2,1,b,-999999,4,931164,b,628,931792,White,Congruent,b,Green,0,,0,6,927166,,0,0,,,,,,,2,1,2,,,,Pictures\green.bmp,3000,10000,Pictures\black.bmp,,,,,,,,,,,,,StimulusPr,Pictures\right.bmp,CuedStim3,Right
POP_2,27010,1,"<?xml version=""1.0""?>\n<Clock xmlns:dt=""urn:schemas-microsoft-com:datatypes""><Description dt:dt=""string"">E-Prime Primary Realtime Clock</Description><StartTime><Timestamp dt:dt=""int"">0</Timestamp><DateUtc dt:dt=""string"">2014-05-21T20:49:05Z</DateUtc></StartTime><FrequencyChanges><FrequencyChange><Frequency dt:dt=""r8"">2793030000</Frequency><Timestamp dt:dt=""r8"">3.40315382380468E+15</Timestamp><Current dt:dt=""r8"">0</Current><DateUtc dt:dt=""string"">2014-05-21T20:49:05Z</DateUtc></FrequencyChange></FrequencyChanges></Clock>\n",60.03,1,-1613712062,0,,-999999,11,10524,t,51389,61913,5/21/2014,13:49:05,8:49:05 PM,2,Session2,SessionsList,0,,-999999,13,708492,t,34653,743145,694516,2,1,2,2,,,908725,,,,,2,1,2,Cued3,MiniBlocks2,,,,,3,1,r,-999999,13,953170,r,772,953942,White,Congruent,r,Green,0,,0,11,943158,,0,0,,,,,,,3,1,3,,,,Pictures\green.bmp,9000,2000,Pictures\left.bmp,,,,,,,,,,,,,StimulusPr,Pictures\black.bmp,CuedStim3,Left
POP_2,27010,1,"<?xml version=""1.0""?>\n<Clock xmlns:dt=""urn:schemas-microsoft-com:datatypes""><Description dt:dt=""string"">E-Prime Primary Realtime Clock</Description><StartTime><Timestamp dt:dt=""int"">0</Timestamp><DateUtc dt:dt=""string"">2014-05-21T20:49:05Z</DateUtc></StartTime><FrequencyChanges><FrequencyChange><Frequency dt:dt=""r8"">2793030000</Frequency><Timestamp dt:dt=""r8"">3.40315382380468E+15</Timestamp><Current dt:dt=""r8"">0</Current><DateUtc dt:dt=""string"">2014-05-21T20:49:05Z</DateUtc></FrequencyChange></FrequencyChanges></Clock>\n",60.03,1,-1613712062,0,,-999999,11,10524,t,51389,61913,5/21/2014,13:49:05,8:49:05 PM,2,Session2,SessionsList,0,,-999999,13,708492,t,34653,743145,694516,2,1,2,2,,,908725,,,,,2,1,2,Cued3,MiniBlocks2,,,,,4,1,r,-999999,16,962165,r,743,962908,White,Congruent,r,Green,0,,0,9,957151,,0,0,,,,,,,4,1,4,,,,Pictures\green.bmp,4000,16000,Pictures\left.bmp,,,,,,,,,,,,,StimulusPr,Pictures\black.bmp,CuedStim3,Left
POP_2,27010,1,"<?xml version=""1.0""?>\n<Clock xmlns:dt=""urn:schemas-microsoft-com:datatypes""><Description dt:dt=""string"">E-Prime Primary Realtime Clock</Description><StartTime><Timestamp dt:dt=""int"">0</Timestamp><DateUtc dt:dt=""string"">2014-05-21T20:49:05Z</DateUtc></StartTime><FrequencyChanges><FrequencyChange><Frequency dt:dt=""r8"">2793030000</Frequency><Timestamp dt:dt=""r8"">3.40315382380468E+15</Timestamp><Current dt:dt=""r8"">0</Current><DateUtc dt:dt=""string"">2014-05-21T20:49:05Z</DateUtc></FrequencyChange></FrequencyChanges></Clock>\n",60.03,1,-1613712062,0,,-999999,11,10524,t,51389,61913,5/21/2014,13:49:05,8:49:05 PM,2,Session2,SessionsList,0,,-999999,13,708492,t,34653,743145,694516,2,1,2,2,,,908725,,,,,2,1,2,Cued3,MiniBlocks2,,,,,5,1,r,-999999,11,984171,r,1008,985179,White,Incongruent,r,Red,0,,0,6,980156,,0,0,,,,,,,5,1,5,,,,Pictures\red.bmp,3000,4000,Pictures\black.bmp,,,,,,,,,,,,,StimulusPr,Pictures\right.bmp,CuedStim3,Right
POP_2,27010,1,"<?xml version=""1.0""?>\n<Clock xmlns:dt=""urn:schemas-microsoft-com:datatypes""><Description dt:dt=""string"">E-Prime Primary Realtime Clock</Description><StartTime><Timestamp dt:dt=""int"">0</Timestamp><DateUtc dt:dt=""string"">2014-05-21T20:49:05Z</DateUtc></StartTime><FrequencyChanges><FrequencyChange><Frequency dt:dt=""r8"">2793030000</Frequency><Timestamp dt:dt=""r8"">3.40315382380468E+15</Timestamp><Current dt:dt=""r8"">0</Current><DateUtc dt:dt=""string"">2014-05-21T20:49:05Z</DateUtc></FrequencyChange></FrequencyChanges></Clock>\n",60.03,1,-1613712062,0,,-999999,11,10524,t,51389,61913,5/21/2014,13:49:05,8:49:05 PM,2,Session2,SessionsList,0,,-999999,13,708492,t,34653,743145,694516,2,1,2,2,,,908725,,,,,2,1,2,Cued3,MiniBlocks2,,,,,6,0,b,-999999,4,998164,r,996,999160,White,Congruent,b,Green,0,,0,7,991167,,0,0,,,,,,,6,1,6,,,,Pictures\green.bmp,6000,4000,Pictures\black.bmp,,,,,,,,,,,,,StimulusPr,Pictures\right.bmp,CuedStim3,Right
POP_2,27010,1,"<?xml version=""1.0""?>\n<Clock xmlns:dt=""urn:schemas-microsoft-com:datatypes""><Description dt:dt=""string"">E-Prime Primary Realtime Clock</Description><StartTime><Timestamp dt:dt=""int"">0</Timestamp><DateUtc dt:dt=""string"">2014-05-21T20:49:05Z</DateUtc></StartTime><FrequencyChanges><FrequencyChange><Frequency dt:dt=""r8"">2793030000</Frequency><Timestamp dt:dt=""r8"">3.40315382380468E+15</Timestamp><Current dt:dt=""r8"">0</Current><DateUtc dt:dt=""string"">2014-05-21T20:49:05Z</DateUtc></FrequencyChange></FrequencyChanges></Clock>\n",60.03,1,-1613712062,0,,-999999,11,10524,t,51389,61913,5/21/2014,13:49:05,8:49:05 PM,2,Session2,SessionsList,0,,-999999,13,708492,t,34653,743145,694516,2,1,2,2,,,908725,,,,,2,1,2,Cued3,MiniBlocks2,,,,,7,1,r,-999999,14,1010175,r,904,1011079,White,Congruent,r,Green,0,,0,16,1005177,,0,0,,,,,,,7,1,7,,,,Pictures\green.bmp,4000,16000,Pictures\left.bmp,,,,,,,,,,,,,StimulusPr,Pictures\black.bmp,CuedStim3,Left
POP_2,27010,1,"<?xml version=""1.0""?>\n<Clock xmlns:dt=""urn:schemas-microsoft-com:datatypes""><Description dt:dt=""string"">E-Prime Primary Realtime Clock</Description><StartTime><Timestamp dt:dt=""int"">0</Timestamp><DateUtc dt:dt=""string"">2014-05-21T20:49:05Z</DateUtc></StartTime><FrequencyChanges><FrequencyChange><Frequency dt:dt=""r8"">2793030000</Frequency><Timestamp dt:dt=""r8"">3.40315382380468E+15</Timestamp><Current dt:dt=""r8"">0</Current><DateUtc dt:dt=""string"">2014-05-21T20:49:05Z</DateUtc></FrequencyChange></FrequencyChanges></Clock>\n",60.03,1,-1613712062,0,,-999999,11,10524,t,51389,61913,5/21/2014,13:49:05,8:49:05 PM,2,Session2,SessionsList,0,,-999999,13,708492,t,34653,743145,694516,2,1,2,2,,,908725,,,,,2,1,2,Cued3,MiniBlocks2,,,,,8,1,b,-999999,3,1032147,b,844,1032991,White,Incongruent,b,Red,0,,0,6,1028166,,0,0,,,,,,,8,1,8,,,,Pictures\red.bmp,3000,2000,Pictures\left.bmp,,,,,,,,,,,,,StimulusPr,Pictures\black.bmp,CuedStim3,Left
POP_2,27010,1,"<?xml version=""1.0""?>\n<Clock xmlns:dt=""urn:schemas-microsoft-com:datatypes""><Description dt:dt=""string"">E-Prime Primary Realtime Clock</Description><StartTime><Timestamp dt:dt=""int"">0</Timestamp><DateUtc dt:dt=""string"">2014-05-21T20:49:05Z</DateUtc></StartTime><FrequencyChanges><FrequencyChange><Frequency dt:dt=""r8"">2793030000</Frequency><Timestamp dt:dt=""r8"">3.40315382380468E+15</Timestamp><Current dt:dt=""r8"">0</Current><DateUtc dt:dt=""string"">2014-05-21T20:49:05Z</DateUtc></FrequencyChange></FrequencyChanges></Clock>\n",60.03,1,-1613712062,0,,-999999,11,10524,t,51389,61913,5/21/2014,13:49:05,8:49:05 PM,2,Session2,SessionsList,0,,-999999,13,708492,t,34653,743145,694516,2,1,2,2,,,908725,,,,,2,1,2,Cued3,MiniBlocks2,,,,,9,0,r,0,16,1040176,,0,0,White,Congruent,r,Green,0,,0,2,1036162,,0,0,,,,,,,9,1,9,,,,Pictures\green.bmp,3000,2000,Pictures\left.bmp,,,,,,,,,,,,,StimulusPr,Pictures\black.bmp,CuedStim3,Left
POP_2,27010,1,"<?xml version=""1.0""?>\n<Clock xmlns:dt=""urn:schemas-microsoft-com:datatypes""><Description dt:dt=""string"">E-Prime Primary Realtime Clock</Description><StartTime><Timestamp dt:dt=""int"">0</Timestamp><DateUtc dt:dt=""string"">2014-05-21T20:49:05Z</DateUtc></StartTime><FrequencyChanges><FrequencyChange><Frequency dt:dt=""r8"">2793030000</Frequency><Timestamp dt:dt=""r8"">3.40315382380468E+15</Timestamp><Current dt:dt=""r8"">0</Current><DateUtc dt:dt=""string"">2014-05-21T20:49:05Z</DateUtc></FrequencyChange></FrequencyChanges></Clock>\n",60.03,1,-1613712062,0,,-999999,11,10524,t,51389,61913,5/21/2014,13:49:05,8:49:05 PM,2,Session2,SessionsList,0,,-999999,13,708492,t,34653,743145,694516,2,1,2,2,,,908725,,,,,2,1,2,Cued3,MiniBlocks2,,,,,10,1,b,-999999,9,1057168,b,643,1057811,White,Congruent,b,Green,0,,0,13,1047173,,0,0,,,,,,,10,1,10,,,,Pictures\green.bmp,9000,10000,Pictures\black.bmp,,,,,,,,,,,,,StimulusPr,Pictures\right.bmp,CuedStim3,Right
POP_2,27010,1,"<?xml version=""1.0""?>\n<Clock xmlns:dt=""urn:schemas-microsoft-com:datatypes""><Description dt:dt=""string"">E-Prime Primary Realtime Clock</Description><StartTime><Timestamp dt:dt=""int"">0</Timestamp><DateUtc dt:dt=""string"">2014-05-21T20:49:05Z</DateUtc></StartTime><FrequencyChanges><FrequencyChange><Frequency dt:dt=""r8"">2793030000</Frequency><Timestamp dt:dt=""r8"">3.40315382380468E+15</Timestamp><Current dt:dt=""r8"">0</Current><DateUtc dt:dt=""string"">2014-05-21T20:49:05Z</DateUtc></FrequencyChange></FrequencyChanges></Clock>\n",60.03,1,-1613712062,0,,-999999,11,10524,t,51389,61913,5/21/2014,13:49:05,8:49:05 PM,2,Session2,SessionsList,0,,-999999,13,708492,t,34653,743145,694516,2,1,2,3,,,,1067829,,,,3,1,3,Cued4,MiniBlocks2,,,,,1,1,b,-999999,12,1085171,b,715,1085886,White,Congruent,b,Green,0,,0,6,1078157,,0,0,,,,,,,,,,1,1,1,Pictures\green.bmp,6000,2000,Pictures\black.bmp,,,,,,,,,,,,,StimulusPr,Pictures\right.bmp,CuedStim4,Right
POP_2,27010,1,"<?xml version=""1.0""?>\n<Clock xmlns:dt=""urn:schemas-microsoft-com:datatypes""><Description dt:dt=""string"">E-Prime Primary Realtime Clock</Description><StartTime><Timestamp dt:dt=""int"">0</Timestamp><DateUtc dt:dt=""string"">2014-05-21T20:49:05Z</DateUtc></StartTime><FrequencyChanges><FrequencyChange><Frequency dt:dt=""r8"">2793030000</Frequency><Timestamp dt:dt=""r8"">3.40315382380468E+15</Timestamp><Current dt:dt=""r8"">0</Current><DateUtc dt:dt=""string"">2014-05-21T20:49:05Z</DateUtc></FrequencyChange></FrequencyChanges></Clock>\n",60.03,1,-1613712062,0,,-999999,11,10524,t,51389,61913,5/21/2014,13:49:05,8:49:05 PM,2,Session2,SessionsList,0,,-999999,13,708492,t,34653,743145,694516,2,1,2,3,,,,1067829,,,,3,1,3,Cued4,MiniBlocks2,,,,,2,1,r,-999999,14,1099164,r,608,1099772,White,Incongruent,r,Red,0,,0,9,1089169,,0,0,,,,,,,,,,2,1,2,Pictures\red.bmp,9000,2000,Pictures\black.bmp,,,,,,,,,,,,,StimulusPr,Pictures\right.bmp,CuedStim4,Right
POP_2,27010,1,"<?xml version=""1.0""?>\n<Clock xmlns:dt=""urn:schemas-microsoft-com:datatypes""><Description dt:dt=""string"">E-Prime Primary Realtime Clock</Description><StartTime><Timestamp dt:dt=""int"">0</Timestamp><DateUtc dt:dt=""string"">2014-05-21T20:49:05Z</DateUtc></StartTime><FrequencyChanges><FrequencyChange><Frequency dt:dt=""r8"">2793030000</Frequency><Timestamp dt:dt=""r8"">3.40315382380468E+15</Timestamp><Current dt:dt=""r8"">0</Current><DateUtc dt:dt=""string"">2014-05-21T20:49:05Z</DateUtc></FrequencyChange></FrequencyChanges></Clock>\n",60.03,1,-1613712062,0,,-999999,11,10524,t,51389,61913,5/21/2014,13:49:05,8:49:05 PM,2,Session2,SessionsList,0,,-999999,13,708492,t,34653,743145,694516,2,1,2,3,,,,1067829,,,,3,1,3,Cued4,MiniBlocks2,,,,,3,1,b,-999999,16,1107176,b,911,1108087,White,Congruent,b,Green,0,,0,6,1103162,,0,0,,,,,,,,,,3,1,3,Pictures\green.bmp,3000,4000,Pictures\black.bmp,,,,,,,,,,,,,StimulusPr,Pictures\right.bmp,CuedStim4,Right
POP_2,27010,1,"<?xml version=""1.0""?>\n<Clock xmlns:dt=""urn:schemas-microsoft-com:datatypes""><Description dt:dt=""string"">E-Prime Primary Realtime Clock</Description><StartTime><Timestamp dt:dt=""int"">0</Timestamp><DateUtc dt:dt=""string"">2014-05-21T20:49:05Z</DateUtc></StartTime><FrequencyChanges><FrequencyChange><Frequency dt:dt=""r8"">2793030000</Frequency><Timestamp dt:dt=""r8"">3.40315382380468E+15</Timestamp><Current dt:dt=""r8"">0</Current><DateUtc dt:dt=""string"">2014-05-21T20:49:05Z</DateUtc></FrequencyChange></FrequencyChanges></Clock>\n",60.03,1,-1613712062,0,,-999999,11,10524,t,51389,61913,5/21/2014,13:49:05,8:49:05 PM,2,Session2,SessionsList,0,,-999999,13,708492,t,34653,743145,694516,2,1,2,3,,,,1067829,,,,3,1,3,Cued4,MiniBlocks2,,,,,4,1,r,-999999,11,1117171,r,459,1117630,White,Congruent,r,Green,0,,0,13,1113173,,0,0,,,,,,,,,,4,1,4,Pictures\green.bmp,3000,4000,Pictures\left.bmp,,,,,,,,,,,,,StimulusPr,Pictures\black.bmp,CuedStim4,Left
POP_2,27010,1,"<?xml version=""1.0""?>\n<Clock xmlns:dt=""urn:schemas-microsoft-com:datatypes""><Description dt:dt=""string"">E-Prime Primary Realtime Clock</Description><StartTime><Timestamp dt:dt=""int"">0</Timestamp><DateUtc dt:dt=""string"">2014-05-21T20:49:05Z</DateUtc></StartTime><FrequencyChanges><FrequencyChange><Frequency dt:dt=""r8"">2793030000</Frequency><Timestamp dt:dt=""r8"">3.40315382380468E+15</Timestamp><Current dt:dt=""r8"">0</Current><DateUtc dt:dt=""string"">2014-05-21T20:49:05Z</DateUtc></FrequencyChange></FrequencyChanges></Clock>\n",60.03,1,-1613712062,0,,-999999,11,10524,t,51389,61913,5/21/2014,13:49:05,8:49:05 PM,2,Session2,SessionsList,0,,-999999,13,708492,t,34653,743145,694516,2,1,2,3,,,,1067829,,,,3,1,3,Cued4,MiniBlocks2,,,,,5,1,b,-999999,6,1128166,b,725,1128891,White,Incongruent,b,Red,0,,0,8,1123152,,0,0,,,,,,,,,,5,1,5,Pictures\red.bmp,4000,16000,Pictures\left.bmp,,,,,,,,,,,,,StimulusPr,Pictures\black.bmp,CuedStim4,Left
POP_2,27010,1,"<?xml version=""1.0""?>\n<Clock xmlns:dt=""urn:schemas-microsoft-com:datatypes""><Description dt:dt=""string"">E-Prime Primary Realtime Clock</Description><StartTime><Timestamp dt:dt=""int"">0</Timestamp><DateUtc dt:dt=""string"">2014-05-21T20:49:05Z</DateUtc></StartTime><FrequencyChanges><FrequencyChange><Frequency dt:dt=""r8"">2793030000</Frequency><Timestamp dt:dt=""r8"">3.40315382380468E+15</Timestamp><Current dt:dt=""r8"">0</Current><DateUtc dt:dt=""string"">2014-05-21T20:49:05Z</DateUtc></FrequencyChange></FrequencyChanges></Clock>\n",60.03,1,-1613712062,0,,-999999,11,10524,t,51389,61913,5/21/2014,13:49:05,8:49:05 PM,2,Session2,SessionsList,0,,-999999,13,708492,t,34653,743145,694516,2,1,2,3,,,,1067829,,,,3,1,3,Cued4,MiniBlocks2,,,,,6,1,b,-999999,11,1150171,b,473,1150644,White,Congruent,b,Green,0,,0,13,1146173,,0,0,,,,,,,,,,6,1,6,Pictures\green.bmp,3000,2000,Pictures\black.bmp,,,,,,,,,,,,,StimulusPr,Pictures\right.bmp,CuedStim4,Right
POP_2,27010,1,"<?xml version=""1.0""?>\n<Clock xmlns:dt=""urn:schemas-microsoft-com:datatypes""><Description dt:dt=""string"">E-Prime Primary Realtime Clock</Description><StartTime><Timestamp dt:dt=""int"">0</Timestamp><DateUtc dt:dt=""string"">2014-05-21T20:49:05Z</DateUtc></StartTime><FrequencyChanges><FrequencyChange><Frequency dt:dt=""r8"">2793030000</Frequency><Timestamp dt:dt=""r8"">3.40315382380468E+15</Timestamp><Current dt:dt=""r8"">0</Current><DateUtc dt:dt=""string"">2014-05-21T20:49:05Z</DateUtc></FrequencyChange></FrequencyChanges></Clock>\n",60.03,1,-1613712062,0,,-999999,11,10524,t,51389,61913,5/21/2014,13:49:05,8:49:05 PM,2,Session2,SessionsList,0,,-999999,13,708492,t,34653,743145,694516,2,1,2,3,,,,1067829,,,,3,1,3,Cued4,MiniBlocks2,,,,,7,1,b,-999999,7,1164164,b,621,1164785,White,Congruent,b,Green,0,,0,3,1154153,,0,0,,,,,,,,,,7,1,7,Pictures\green.bmp,9000,10000,Pictures\black.bmp,,,,,,,,,,,,,StimulusPr,Pictures\right.bmp,CuedStim4,Right
POP_2,27010,1,"<?xml version=""1.0""?>\n<Clock xmlns:dt=""urn:schemas-microsoft-com:datatypes""><Description dt:dt=""string"">E-Prime Primary Realtime Clock</Description><StartTime><Timestamp dt:dt=""int"">0</Timestamp><DateUtc dt:dt=""string"">2014-05-21T20:49:05Z</DateUtc></StartTime><FrequencyChanges><FrequencyChange><Frequency dt:dt=""r8"">2793030000</Frequency><Timestamp dt:dt=""r8"">3.40315382380468E+15</Timestamp><Current dt:dt=""r8"">0</Current><DateUtc dt:dt=""string"">2014-05-21T20:49:05Z</DateUtc></FrequencyChange></FrequencyChanges></Clock>\n",60.03,1,-1613712062,0,,-999999,11,10524,t,51389,61913,5/21/2014,13:49:05,8:49:05 PM,2,Session2,SessionsList,0,,-999999,13,708492,t,34653,743145,694516,2,1,2,3,,,,1067829,,,,3,1,3,Cued4,MiniBlocks2,,,,,8,1,b,-999999,19,1183172,b,1680,1184852,White,Incongruent,b,Red,0,,0,5,1176158,,0,0,,,,,,,,,,8,1,8,Pictures\red.bmp,6000,10000,Pictures\left.bmp,,,,,,,,,,,,,StimulusPr,Pictures\black.bmp,CuedStim4,Left
POP_2,27010,1,"<?xml version=""1.0""?>\n<Clock xmlns:dt=""urn:schemas-microsoft-com:datatypes""><Description dt:dt=""string"">E-Prime Primary Realtime Clock</Description><StartTime><Timestamp dt:dt=""int"">0</Timestamp><DateUtc dt:dt=""string"">2014-05-21T20:49:05Z</DateUtc></StartTime><FrequencyChanges><FrequencyChange><Frequency dt:dt=""r8"">2793030000</Frequency><Timestamp dt:dt=""r8"">3.40315382380468E+15</Timestamp><Current dt:dt=""r8"">0</Current><DateUtc dt:dt=""string"">2014-05-21T20:49:05Z</DateUtc></FrequencyChange></FrequencyChanges></Clock>\n",60.03,1,-1613712062,0,,-999999,11,10524,t,51389,61913,5/21/2014,13:49:05,8:49:05 PM,2,Session2,SessionsList,0,,-999999,13,708492,t,34653,743145,694516,2,1,2,3,,,,1067829,,,,3,1,3,Cued4,MiniBlocks2,,,,,9,1,r,-999999,18,1203178,r,498,1203676,White,Congruent,r,Green,0,,0,5,1196165,,0,0,,,,,,,,,,9,1,9,Pictures\green.bmp,6000,16000,Pictures\left.bmp,,,,,,,,,,,,,StimulusPr,Pictures\black.bmp,CuedStim4,Left
POP_2,27010,1,"<?xml version=""1.0""?>\n<Clock xmlns:dt=""urn:schemas-microsoft-com:datatypes""><Description dt:dt=""string"">E-Prime Primary Realtime Clock</Description><StartTime><Timestamp dt:dt=""int"">0</Timestamp><DateUtc dt:dt=""string"">2014-05-21T20:49:05Z</DateUtc></StartTime><FrequencyChanges><FrequencyChange><Frequency dt:dt=""r8"">2793030000</Frequency><Timestamp dt:dt=""r8"">3.40315382380468E+15</Timestamp><Current dt:dt=""r8"">0</Current><DateUtc dt:dt=""string"">2014-05-21T20:49:05Z</DateUtc></FrequencyChange></FrequencyChanges></Clock>\n",60.03,1,-1613712062,0,,-999999,11,10524,t,51389,61913,5/21/2014,13:49:05,8:49:05 PM,2,Session2,SessionsList,0,,-999999,13,708492,t,34653,743145,694516,2,1,2,3,,,,1067829,,,,3,1,3,Cued4,MiniBlocks2,,,,,10,1,r,-999999,7,1226167,r,494,1226661,White,Congruent,r,Green,0,,0,9,1221169,,0,0,,,,,,,,,,10,1,10,Pictures\green.bmp,4000,2000,Pictures\left.bmp,,,,,,,,,,,,,StimulusPr,Pictures\black.bmp,CuedStim4,Left
POP_2,27010,1,"<?xml version=""1.0""?>\n<Clock xmlns:dt=""urn:schemas-microsoft-com:datatypes""><Description dt:dt=""string"">E-Prime Primary Realtime Clock</Description><StartTime><Timestamp dt:dt=""int"">0</Timestamp><DateUtc dt:dt=""string"">2014-05-21T20:49:05Z</DateUtc></StartTime><FrequencyChanges><FrequencyChange><Frequency dt:dt=""r8"">2793030000</Frequency><Timestamp dt:dt=""r8"">3.40315382380468E+15</Timestamp><Current dt:dt=""r8"">0</Current><DateUtc dt:dt=""string"">2014-05-21T20:49:05Z</DateUtc></FrequencyChange></FrequencyChanges></Clock>\n",60.03,1,-1613712062,0,,-999999,11,10524,t,51389,61913,5/21/2014,13:49:05,8:49:05 PM,2,Session2,SessionsList,0,,-999999,13,708492,t,34653,743145,694516,2,1,2,4,,,,,,,,4,1,4,NonCued4,MiniBlocks2,,,,1228682,1,0,r,0,16,1243175,,0,0,Green,Congruent,r,White,0,,0,3,1239144,,0,0,,,,,,,,,,,,,Pictures\white.bmp,3000,2000,Pictures\GreenLeft.bmp,,,,,,,,,,1,1,1,StimulusPr,Pictures\black.bmp,NonCuedStim4,Left
POP_2,27010,1,"<?xml version=""1.0""?>\n<Clock xmlns:dt=""urn:schemas-microsoft-com:datatypes""><Description dt:dt=""string"">E-Prime Primary Realtime Clock</Description><StartTime><Timestamp dt:dt=""int"">0</Timestamp><DateUtc dt:dt=""string"">2014-05-21T20:49:05Z</DateUtc></StartTime><FrequencyChanges><FrequencyChange><Frequency dt:dt=""r8"">2793030000</Frequency><Timestamp dt:dt=""r8"">3.40315382380468E+15</Timestamp><Current dt:dt=""r8"">0</Current><DateUtc dt:dt=""string"">2014-05-21T20:49:05Z</DateUtc></FrequencyChange></FrequencyChanges></Clock>\n",60.03,1,-1613712062,0,,-999999,11,10524,t,51389,61913,5/21/2014,13:49:05,8:49:05 PM,2,Session2,SessionsList,0,,-999999,13,708492,t,34653,743145,694516,2,1,2,4,,,,,,,,4,1,4,NonCued4,MiniBlocks2,,,,1228682,2,1,r,-999999,9,1255169,r,432,1255601,Green,Congruent,r,White,0,,0,10,1250171,,0,0,,,,,,,,,,,,,Pictures\white.bmp,4000,2000,Pictures\GreenLeft.bmp,,,,,,,,,,2,1,2,StimulusPr,Pictures\black.bmp,NonCuedStim4,Left
POP_2,27010,1,"<?xml version=""1.0""?>\n<Clock xmlns:dt=""urn:schemas-microsoft-com:datatypes""><Description dt:dt=""string"">E-Prime Primary Realtime Clock</Description><StartTime><Timestamp dt:dt=""int"">0</Timestamp><DateUtc dt:dt=""string"">2014-05-21T20:49:05Z</DateUtc></StartTime><FrequencyChanges><FrequencyChange><Frequency dt:dt=""r8"">2793030000</Frequency><Timestamp dt:dt=""r8"">3.40315382380468E+15</Timestamp><Current dt:dt=""r8"">0</Current><DateUtc dt:dt=""string"">2014-05-21T20:49:05Z</DateUtc></FrequencyChange></FrequencyChanges></Clock>\n",60.03,1,-1613712062,0,,-999999,11,10524,t,51389,61913,5/21/2014,13:49:05,8:49:05 PM,2,Session2,SessionsList,0,,-999999,13,708492,t,34653,743145,694516,2,1,2,4,,,,,,,,4,1,4,NonCued4,MiniBlocks2,,,,1228682,3,1,r,-999999,5,1264165,r,856,1265021,Red,Incongruent,r,White,0,,0,9,1259150,,0,0,,,,,,,,,,,,,Pictures\white.bmp,4000,2000,Pictures\black.bmp,,,,,,,,,,3,1,3,StimulusPr,Pictures\RedRight.bmp,NonCuedStim4,Right
POP_2,27010,1,"<?xml version=""1.0""?>\n<Clock xmlns:dt=""urn:schemas-microsoft-com:datatypes""><Description dt:dt=""string"">E-Prime Primary Realtime Clock</Description><StartTime><Timestamp dt:dt=""int"">0</Timestamp><DateUtc dt:dt=""string"">2014-05-21T20:49:05Z</DateUtc></StartTime><FrequencyChanges><FrequencyChange><Frequency dt:dt=""r8"">2793030000</Frequency><Timestamp dt:dt=""r8"">3.40315382380468E+15</Timestamp><Current dt:dt=""r8"">0</Current><DateUtc dt:dt=""string"">2014-05-21T20:49:05Z</DateUtc></FrequencyChange></FrequencyChanges></Clock>\n",60.03,1,-1613712062,0,,-999999,11,10524,t,51389,61913,5/21/2014,13:49:05,8:49:05 PM,2,Session2,SessionsList,0,,-999999,13,708492,t,34653,743145,694516,2,1,2,4,,,,,,,,4,1,4,NonCued4,MiniBlocks2,,,,1228682,4,1,b,-999999,9,1272161,b,616,1272777,Green,Congruent,b,White,0,,0,2,1268163,,0,0,,,,,,,,,,,,,Pictures\white.bmp,3000,16000,Pictures\black.bmp,,,,,,,,,,4,1,4,StimulusPr,Pictures\GreenRight.bmp,NonCuedStim4,Right
POP_2,27010,1,"<?xml version=""1.0""?>\n<Clock xmlns:dt=""urn:schemas-microsoft-com:datatypes""><Description dt:dt=""string"">E-Prime Primary Realtime Clock</Description><StartTime><Timestamp dt:dt=""int"">0</Timestamp><DateUtc dt:dt=""string"">2014-05-21T20:49:05Z</DateUtc></StartTime><FrequencyChanges><FrequencyChange><Frequency dt:dt=""r8"">2793030000</Frequency><Timestamp dt:dt=""r8"">3.40315382380468E+15</Timestamp><Current dt:dt=""r8"">0</Current><DateUtc dt:dt=""string"">2014-05-21T20:49:05Z</DateUtc></FrequencyChange></FrequencyChanges></Clock>\n",60.03,1,-1613712062,0,,-999999,11,10524,t,51389,61913,5/21/2014,13:49:05,8:49:05 PM,2,Session2,SessionsList,0,,-999999,13,708492,t,34653,743145,694516,2,1,2,4,,,,,,,,4,1,4,NonCued4,MiniBlocks2,,,,1228682,5,1,r,-999999,3,1300163,r,451,1300614,Green,Congruent,r,White,0,,0,8,1290168,,0,0,,,,,,,,,,,,,Pictures\white.bmp,9000,10000,Pictures\GreenLeft.bmp,,,,,,,,,,5,1,5,StimulusPr,Pictures\black.bmp,NonCuedStim4,Left
POP_2,27010,1,"<?xml version=""1.0""?>\n<Clock xmlns:dt=""urn:schemas-microsoft-com:datatypes""><Description dt:dt=""string"">E-Prime Primary Realtime Clock</Description><StartTime><Timestamp dt:dt=""int"">0</Timestamp><DateUtc dt:dt=""string"">2014-05-21T20:49:05Z</DateUtc></StartTime><FrequencyChanges><FrequencyChange><Frequency dt:dt=""r8"">2793030000</Frequency><Timestamp dt:dt=""r8"">3.40315382380468E+15</Timestamp><Current dt:dt=""r8"">0</Current><DateUtc dt:dt=""string"">2014-05-21T20:49:05Z</DateUtc></FrequencyChange></FrequencyChanges></Clock>\n",60.03,1,-1613712062,0,,-999999,11,10524,t,51389,61913,5/21/2014,13:49:05,8:49:05 PM,2,Session2,SessionsList,0,,-999999,13,708492,t,34653,743145,694516,2,1,2,4,,,,,,,,4,1,4,NonCued4,MiniBlocks2,,,,1228682,6,1,b,-999999,10,1316155,b,436,1316591,Green,Congruent,b,White,0,,0,14,1312174,,0,0,,,,,,,,,,,,,Pictures\white.bmp,3000,16000,Pictures\black.bmp,,,,,,,,,,6,1,6,StimulusPr,Pictures\GreenRight.bmp,NonCuedStim4,Right
POP_2,27010,1,"<?xml version=""1.0""?>\n<Clock xmlns:dt=""urn:schemas-microsoft-com:datatypes""><Description dt:dt=""string"">E-Prime Primary Realtime Clock</Description><StartTime><Timestamp dt:dt=""int"">0</Timestamp><DateUtc dt:dt=""string"">2014-05-21T20:49:05Z</DateUtc></StartTime><FrequencyChanges><FrequencyChange><Frequency dt:dt=""r8"">2793030000</Frequency><Timestamp dt:dt=""r8"">3.40315382380468E+15</Timestamp><Current dt:dt=""r8"">0</Current><DateUtc dt:dt=""string"">2014-05-21T20:49:05Z</DateUtc></FrequencyChange></FrequencyChanges></Clock>\n",60.03,1,-1613712062,0,,-999999,11,10524,t,51389,61913,5/21/2014,13:49:05,8:49:05 PM,2,Session2,SessionsList,0,,-999999,13,708492,t,34653,743145,694516,2,1,2,4,,,,,,,,4,1,4,NonCued4,MiniBlocks2,,,,1228682,7,0,b,0,17,1338178,,0,0,Red,Incongruent,b,White,0,,0,4,1334146,,0,0,,,,,,,,,,,,,Pictures\white.bmp,3000,16000,Pictures\RedLeft.bmp,,,,,,,,,,7,1,7,StimulusPr,Pictures\black.bmp,NonCuedStim4,Left
POP_2,27010,1,"<?xml version=""1.0""?>\n<Clock xmlns:dt=""urn:schemas-microsoft-com:datatypes""><Description dt:dt=""string"">E-Prime Primary Realtime Clock</Description><StartTime><Timestamp dt:dt=""int"">0</Timestamp><DateUtc dt:dt=""string"">2014-05-21T20:49:05Z</DateUtc></StartTime><FrequencyChanges><FrequencyChange><Frequency dt:dt=""r8"">2793030000</Frequency><Timestamp dt:dt=""r8"">3.40315382380468E+15</Timestamp><Current dt:dt=""r8"">0</Current><DateUtc dt:dt=""string"">2014-05-21T20:49:05Z</DateUtc></FrequencyChange></FrequencyChanges></Clock>\n",60.03,1,-1613712062,0,,-999999,11,10524,t,51389,61913,5/21/2014,13:49:05,8:49:05 PM,2,Session2,SessionsList,0,,-999999,13,708492,t,34653,743145,694516,2,1,2,4,,,,,,,,4,1,4,NonCued4,MiniBlocks2,,,,1228682,8,1,r,-999999,5,1363165,r,502,1363667,Green,Congruent,r,White,0,,0,17,1359167,,0,0,,,,,,,,,,,,,Pictures\white.bmp,3000,2000,Pictures\GreenLeft.bmp,,,,,,,,,,8,1,8,StimulusPr,Pictures\black.bmp,NonCuedStim4,Left
POP_2,27010,1,"<?xml version=""1.0""?>\n<Clock xmlns:dt=""urn:schemas-microsoft-com:datatypes""><Description dt:dt=""string"">E-Prime Primary Realtime Clock</Description><StartTime><Timestamp dt:dt=""int"">0</Timestamp><DateUtc dt:dt=""string"">2014-05-21T20:49:05Z</DateUtc></StartTime><FrequencyChanges><FrequencyChange><Frequency dt:dt=""r8"">2793030000</Frequency><Timestamp dt:dt=""r8"">3.40315382380468E+15</Timestamp><Current dt:dt=""r8"">0</Current><DateUtc dt:dt=""string"">2014-05-21T20:49:05Z</DateUtc></FrequencyChange></FrequencyChanges></Clock>\n",60.03,1,-1613712062,0,,-999999,11,10524,t,51389,61913,5/21/2014,13:49:05,8:49:05 PM,2,Session2,SessionsList,0,,-999999,13,708492,t,34653,743145,694516,2,1,2,4,,,,,,,,4,1,4,NonCued4,MiniBlocks2,,,,1228682,9,1,b,-999999,15,1374160,b,799,1374959,Green,Congruent,b,White,0,,0,3,1367163,,0,0,,,,,,,,,,,,,Pictures\white.bmp,6000,2000,Pictures\black.bmp,,,,,,,,,,9,1,9,StimulusPr,Pictures\GreenRight.bmp,NonCuedStim4,Right
POP_2,27010,1,"<?xml version=""1.0""?>\n<Clock xmlns:dt=""urn:schemas-microsoft-com:datatypes""><Description dt:dt=""string"">E-Prime Primary Realtime Clock</Description><StartTime><Timestamp dt:dt=""int"">0</Timestamp><DateUtc dt:dt=""string"">2014-05-21T20:49:05Z</DateUtc></StartTime><FrequencyChanges><FrequencyChange><Frequency dt:dt=""r8"">2793030000</Frequency><Timestamp dt:dt=""r8"">3.40315382380468E+15</Timestamp><Current dt:dt=""r8"">0</Current><DateUtc dt:dt=""string"">2014-05-21T20:49:05Z</DateUtc></FrequencyChange></FrequencyChanges></Clock>\n",60.03,1,-1613712062,0,,-999999,11,10524,t,51389,61913,5/21/2014,13:49:05,8:49:05 PM,2,Session2,SessionsList,0,,-999999,13,708492,t,34653,743145,694516,2,1,2,4,,,,,,,,4,1,4,NonCued4,MiniBlocks2,,,,1228682,10,1,b,-999999,14,1383155,b,1371,1384526,Green,Congruent,b,White,0,,0,8,1378158,,0,0,,,,,,,,,,,,,Pictures\white.bmp,4000,4000,Pictures\black.bmp,,,,,,,,,,10,1,10,StimulusPr,Pictures\GreenRight.bmp,NonCuedStim4,Right
