ExperimentName,Subject,Session,Clock.Information,Display.RefreshRate,Group,RandomSeed,Session1Onset.ACC,Session1Onset.CRESP,Session1Onset.DurationError,Session1Onset.OnsetDelay,Session1Onset.OnsetTime,Session1Onset.RESP,Session1Onset.RT,Session1Onset.RTTime,SessionDate,SessionTime,SessionTimeUtc,Block,Procedure[Block],Running[Block],Session2Onset.ACC,Session2Onset.CRESP,Session2Onset.DurationError,Session2Onset.OnsetDelay,Session2Onset.OnsetTime,Session2Onset.RESP,Session2Onset.RT,Session2Onset.RTTime,SessionBreak.OnsetTime,SessionsList,SessionsList.Cycle,SessionsList.Sample,Trial,CuedPrompt1.OnsetTime,CuedPrompt2.OnsetTime,CuedPrompt3.OnsetTime,CuedPrompt4.OnsetTime,MiniBlocks1,MiniBlocks1.Cycle,MiniBlocks1.Sample,MiniBlocks2,MiniBlocks2.Cycle,MiniBlocks2.Sample,Procedure[Trial],Running[Trial],UncuedPrompt1.OnsetTime,UncuedPrompt2.OnsetTime,UncuedPrompt3.OnsetTime,UncuedPrompt4.OnsetTime,SubTrial,Arrow1.ACC,Arrow1.CRESP,Arrow1.DurationError,Arrow1.OnsetDelay,Arrow1.OnsetTime,Arrow1.RESP,Arrow1.RT,Arrow1.RTTime,ArrowColor,Congruence,CorrectResp,Cue,Cue.ACC,Cue.CRESP,Cue.DurationError,Cue.OnsetDelay,Cue.OnsetTime,Cue.RESP,Cue.RT,Cue.RTTime,CuedStim1,CuedStim1.Cycle,CuedStim1.Sample,CuedStim2,CuedStim2.Cycle,CuedStim2.Sample,CuedStim3,CuedStim3.Cycle,CuedStim3.Sample,CuedStim4,CuedStim4.Cycle,CuedStim4.Sample,CueImage,JitterCue,JitterTrial,LeftImage,NonCuedStim1,NonCuedStim1.Cycle,NonCuedStim1.Sample,NonCuedStim2,NonCuedStim2.Cycle,NonCuedStim2.Sample,NonCuedStim3,NonCuedStim3.Cycle,NonCuedStim3.Sample,NonCuedStim4,NonCuedStim4.Cycle,NonCuedStim4.Sample,Procedure[SubTrial],RightImage,Running[SubTrial],Stimulus
POP_2,16055,1,"<?xml version=""1.0""?>\n<Clock xmlns:dt=""urn:schemas-microsoft-com:datatypes""><Description dt:dt=""string"">E-Prime Primary Realtime Clock</Description><StartTime><Timestamp dt:dt=""int"">0</Timestamp><DateUtc dt:dt=""string"">2014-05-12T20:38:08Z</DateUtc></StartTime><FrequencyChanges><FrequencyChange><Frequency dt:dt=""r8"">2793030000</Frequency><Timestamp dt:dt=""r8"">1.22939914995431E+15</Timestamp><Current dt:dt=""r8"">0</Current><DateUtc dt:dt=""string"">2014-05-12T20:38:08Z</DateUtc></FrequencyChange></FrequencyChanges></Clock>\n",60.034,1,-332443982,0,,-999999,16,65079,t,43929,109008,5/12/2014,13:38:08,8:38:08 PM,1,Session1,SessionsList,,,,,,,,,,1,1,1,1,,,,,,,,1,1,1,NonCued3,MiniBlocks2,,,109024,,1,0,b,-999999,6,129014,r,595,129609,Green,Congruent,b,White,0,,0,11,119019,,0,0,,,,,,,,,,,,,Pictures\white.bmp,9000,10000,Pictures\black.bmp,,,,,,,1,1,1,,,,StimulusPr,Pictures\GreenRight.bmp,NonCuedStim3,Right
POP_2,16055,1,"<?xml version=""1.0""?>\n<Clock xmlns:dt=""urn:schemas-microsoft-com:datatypes""><Description dt:dt=""string"">E-Prime Primary Realtime Clock</Description><StartTime><Timestamp dt:dt=""int"">0</Timestamp><DateUtc dt:dt=""string"">2014-05-12T20:38:08Z</DateUtc></StartTime><FrequencyChanges><FrequencyChange><Frequency dt:dt=""r8"">2793030000</Frequency><Timestamp dt:dt=""r8"">1.22939914995431E+15</Timestamp><Current dt:dt=""r8"">0</Current><DateUtc dt:dt=""string"">2014-05-12T20:38:08Z</DateUtc></FrequencyChange></FrequencyChanges></Clock>\n",60.034,1,-332443982,0,,-999999,16,65079,t,43929,109008,5/12/2014,13:38:08,8:38:08 PM,1,Session1,SessionsList,,,,,,,,,,1,1,1,1,,,,,,,,1,1,1,NonCued3,MiniBlocks2,,,109024,,2,1,r,-999999,11,151019,r,685,151704,Red,Incongruent,r,White,0,,0,16,141024,,0,0,,,,,,,,,,,,,Pictures\white.bmp,9000,10000,Pictures\black.bmp,,,,,,,2,1,2,,,,StimulusPr,Pictures\RedRight.bmp,NonCuedStim3,Right
POP_2,16055,1,"<?xml version=""1.0""?>\n<Clock xmlns:dt=""urn:schemas-microsoft-com:datatypes""><Description dt:dt=""string"">E-Prime Primary Realtime Clock</Description><StartTime><Timestamp dt:dt=""int"">0</Timestamp><DateUtc dt:dt=""string"">2014-05-12T20:38:08Z</DateUtc></StartTime><FrequencyChanges><FrequencyChange><Frequency dt:dt=""r8"">2793030000</Frequency><Timestamp dt:dt=""r8"">1.22939914995431E+15</Timestamp><Current dt:dt=""r8"">0</Current><DateUtc dt:dt=""string"">2014-05-12T20:38:08Z</DateUtc></FrequencyChange></FrequencyChanges></Clock>\n",60.034,1,-332443982,0,,-999999,16,65079,t,43929,109008,5/12/2014,13:38:08,8:38:08 PM,1,Session1,SessionsList,,,,,,,,,,1,1,1,1,,,,,,,,1,1,1,NonCued3,MiniBlocks2,,,109024,,3,1,r,-999999,3,168011,r,424,168435,Green,Congruent,r,White,0,,0,5,163013,,0,0,,,,,,,,,,,,,Pictures\white.bmp,4000,4000,Pictures\GreenLeft.bmp,,,,,,,3,1,3,,,,StimulusPr,Pictures\black.bmp,NonCuedStim3,Left
POP_2,16055,1,"<?xml version=""1.0""?>\n<Clock xmlns:dt=""urn:schemas-microsoft-com:datatypes""><Description dt:dt=""string"">E-Prime Primary Realtime Clock</Description><StartTime><Timestamp dt:dt=""int"">0</Timestamp><DateUtc dt:dt=""string"">2014-05-12T20:38:08Z</DateUtc></StartTime><FrequencyChanges><FrequencyChange><Frequency dt:dt=""r8"">2793030000</Frequency><Timestamp dt:dt=""r8"">1.22939914995431E+15</Timestamp><Current dt:dt=""r8"">0</Current><DateUtc dt:dt=""string"">2014-05-12T20:38:08Z</DateUtc></FrequencyChange></FrequencyChanges></Clock>\n",60.034,1,-332443982,0,,-999999,16,65079,t,43929,109008,5/12/2014,13:38:08,8:38:08 PM,1,Session1,SessionsList,,,,,,,,,,1,1,1,1,,,,,,,,1,1,1,NonCued3,MiniBlocks2,,,109024,,4,1,b,-999999,13,181021,b,731,181752,Red,Incongruent,b,White,0,,0,17,174025,,0,0,,,,,,,,,,,,,Pictures\white.bmp,6000,4000,Pictures\RedLeft.bmp,,,,,,,4,1,4,,,,StimulusPr,Pictures\black.bmp,NonCuedStim3,Left
POP_2,16055,1,"<?xml version=""1.0""?>\n<Clock xmlns:dt=""urn:schemas-microsoft-com:datatypes""><Description dt:dt=""string"">E-Prime Primary Realtime Clock</Description><StartTime><Timestamp dt:dt=""int"">0</Timestamp><DateUtc dt:dt=""string"">2014-05-12T20:38:08Z</DateUtc></StartTime><FrequencyChanges><FrequencyChange><Frequency dt:dt=""r8"">2793030000</Frequency><Timestamp dt:dt=""r8"">1.22939914995431E+15</Timestamp><Current dt:dt=""r8"">0</Current><DateUtc dt:dt=""string"">2014-05-12T20:38:08Z</DateUtc></FrequencyChange></FrequencyChanges></Clock>\n",60.034,1,-332443982,0,,-999999,16,65079,t,43929,109008,5/12/2014,13:38:08,8:38:08 PM,1,Session1,SessionsList,,,,,,,,,,1,1,1,1,,,,,,,,1,1,1,NonCued3,MiniBlocks2,,,109024,,5,1,b,-999999,8,191016,b,525,191541,Green,Congruent,b,White,0,,0,10,187018,,0,0,,,,,,,,,,,,,Pictures\white.bmp,3000,2000,Pictures\black.bmp,,,,,,,5,1,5,,,,StimulusPr,Pictures\GreenRight.bmp,NonCuedStim3,Right
POP_2,16055,1,"<?xml version=""1.0""?>\n<Clock xmlns:dt=""urn:schemas-microsoft-com:datatypes""><Description dt:dt=""string"">E-Prime Primary Realtime Clock</Description><StartTime><Timestamp dt:dt=""int"">0</Timestamp><DateUtc dt:dt=""string"">2014-05-12T20:38:08Z</DateUtc></StartTime><FrequencyChanges><FrequencyChange><Frequency dt:dt=""r8"">2793030000</Frequency><Timestamp dt:dt=""r8"">1.22939914995431E+15</Timestamp><Current dt:dt=""r8"">0</Current><DateUtc dt:dt=""string"">2014-05-12T20:38:08Z</DateUtc></FrequencyChange></FrequencyChanges></Clock>\n",60.034,1,-332443982,0,,-999999,16,65079,t,43929,109008,5/12/2014,13:38:08,8:38:08 PM,1,Session1,SessionsList,,,,,,,,,,1,1,1,1,,,,,,,,1,1,1,NonCued3,MiniBlocks2,,,109024,,6,1,r,-999999,4,199012,r,477,199489,Green,Congruent,r,White,0,,0,6,195014,,0,0,,,,,,,,,,,,,Pictures\white.bmp,3000,2000,Pictures\GreenLeft.bmp,,,,,,,6,1,6,,,,StimulusPr,Pictures\black.bmp,NonCuedStim3,Left
POP_2,16055,1,"<?xml version=""1.0""?>\n<Clock xmlns:dt=""urn:schemas-microsoft-com:datatypes""><Description dt:dt=""string"">E-Prime Primary Realtime Clock</Description><StartTime><Timestamp dt:dt=""int"">0</Timestamp><DateUtc dt:dt=""string"">2014-05-12T20:38:08Z</DateUtc></StartTime><FrequencyChanges><FrequencyChange><Frequency dt:dt=""r8"">2793030000</Frequency><Timestamp dt:dt=""r8"">1.22939914995431E+15</Timestamp><Current dt:dt=""r8"">0</Current><DateUtc dt:dt=""string"">2014-05-12T20:38:08Z</DateUtc></FrequencyChange></FrequencyChanges></Clock>\n",60.034,1,-332443982,0,,-999999,16,65079,t,43929,109008,5/12/2014,13:38:08,8:38:08 PM,1,Session1,SessionsList,,,,,,,,,,1,1,1,1,,,,,,,,1,1,1,NonCued3,MiniBlocks2,,,109024,,7,1,b,-999999,15,210023,b,394,210417,Green,Congruent,b,White,0,,0,2,203010,,0,0,,,,,,,,,,,,,Pictures\white.bmp,6000,16000,Pictures\black.bmp,,,,,,,7,1,7,,,,StimulusPr,Pictures\GreenRight.bmp,NonCuedStim3,Right
POP_2,16055,1,"<?xml version=""1.0""?>\n<Clock xmlns:dt=""urn:schemas-microsoft-com:datatypes""><Description dt:dt=""string"">E-Prime Primary Realtime Clock</Description><StartTime><Timestamp dt:dt=""int"">0</Timestamp><DateUtc dt:dt=""string"">2014-05-12T20:38:08Z</DateUtc></StartTime><FrequencyChanges><FrequencyChange><Frequency dt:dt=""r8"">2793030000</Frequency><Timestamp dt:dt=""r8"">1.22939914995431E+15</Timestamp><Current dt:dt=""r8"">0</Current><DateUtc dt:dt=""string"">2014-05-12T20:38:08Z</DateUtc></FrequencyChange></FrequencyChanges></Clock>\n",60.034,1,-332443982,0,,-999999,16,65079,t,43929,109008,5/12/2014,13:38:08,8:38:08 PM,1,Session1,SessionsList,,,,,,,,,,1,1,1,1,,,,,,,,1,1,1,NonCued3,MiniBlocks2,,,109024,,8,1,r,-999999,4,232012,r,625,232637,Red,Incongruent,r,White,0,,0,6,228014,,0,0,,,,,,,,,,,,,Pictures\white.bmp,3000,2000,Pictures\black.bmp,,,,,,,8,1,8,,,,StimulusPr,Pictures\RedRight.bmp,NonCuedStim3,Right
POP_2,16055,1,"<?xml version=""1.0""?>\n<Clock xmlns:dt=""urn:schemas-microsoft-com:datatypes""><Description dt:dt=""string"">E-Prime Primary Realtime Clock</Description><StartTime><Timestamp dt:dt=""int"">0</Timestamp><DateUtc dt:dt=""string"">2014-05-12T20:38:08Z</DateUtc></StartTime><FrequencyChanges><FrequencyChange><Frequency dt:dt=""r8"">2793030000</Frequency><Timestamp dt:dt=""r8"">1.22939914995431E+15</Timestamp><Current dt:dt=""r8"">0</Current><DateUtc dt:dt=""string"">2014-05-12T20:38:08Z</DateUtc></FrequencyChange></FrequencyChanges></Clock>\n",60.034,1,-332443982,0,,-999999,16,65079,t,43929,109008,5/12/2014,13:38:08,8:38:08 PM,1,Session1,SessionsList,,,,,,,,,,1,1,1,1,,,,,,,,1,1,1,NonCued3,MiniBlocks2,,,109024,,9,1,r,-999999,14,246022,r,632,246654,Green,Congruent,r,White,0,,0,2,236010,,0,0,,,,,,,,,,,,,Pictures\white.bmp,9000,10000,Pictures\GreenLeft.bmp,,,,,,,9,1,9,,,,StimulusPr,Pictures\black.bmp,NonCuedStim3,Left
POP_2,16055,1,"<?xml version=""1.0""?>\n<Clock xmlns:dt=""urn:schemas-microsoft-com:datatypes""><Description dt:dt=""string"">E-Prime Primary Realtime Clock</Description><StartTime><Timestamp dt:dt=""int"">0</Timestamp><DateUtc dt:dt=""string"">2014-05-12T20:38:08Z</DateUtc></StartTime><FrequencyChanges><FrequencyChange><Frequency dt:dt=""r8"">2793030000</Frequency><Timestamp dt:dt=""r8"">1.22939914995431E+15</Timestamp><Current dt:dt=""r8"">0</Current><DateUtc dt:dt=""string"">2014-05-12T20:38:08Z</DateUtc></FrequencyChange></FrequencyChanges></Clock>\n",60.034,1,-332443982,0,,-999999,16,65079,t,43929,109008,5/12/2014,13:38:08,8:38:08 PM,1,Session1,SessionsList,,,,,,,,,,1,1,1,1,,,,,,,,1,1,1,NonCued3,MiniBlocks2,,,109024,,10,1,r,-999999,4,265012,r,347,265359,Green,Congruent,r,White,0,,0,8,258016,,0,0,,,,,,,,,,,,,Pictures\white.bmp,6000,4000,Pictures\GreenLeft.bmp,,,,,,,10,1,10,,,,StimulusPr,Pictures\black.bmp,NonCuedStim3,Left
POP_2,16055,1,"<?xml version=""1.0""?>\n<Clock xmlns:dt=""urn:schemas-microsoft-com:datatypes""><Description dt:dt=""string"">E-Prime Primary Realtime Clock</Description><StartTime><Timestamp dt:dt=""int"">0</Timestamp><DateUtc dt:dt=""string"">2014-05-12T20:38:08Z</DateUtc></StartTime><FrequencyChanges><FrequencyChange><Frequency dt:dt=""r8"">2793030000</Frequency><Timestamp dt:dt=""r8"">1.22939914995431E+15</Timestamp><Current dt:dt=""r8"">0</Current><DateUtc dt:dt=""string"">2014-05-12T20:38:08Z</DateUtc></FrequencyChange></FrequencyChanges></Clock>\n",60.034,1,-332443982,0,,-999999,16,65079,t,43929,109008,5/12/2014,13:38:08,8:38:08 PM,1,Session1,SessionsList,,,,,,,,,,1,1,1,2,,,269377,,,,,2,1,2,Cued3,MiniBlocks2,,,,,1,1,b,-999999,12,283020,b,315,283335,White,Congruent,b,Green,0,,0,14,279022,,0,0,,,,,,,1,1,1,,,,Pictures\green.bmp,3000,2000,Pictures\black.bmp,,,,,,,,,,,,,StimulusPr,Pictures\right.bmp,CuedStim3,Right
POP_2,16055,1,"<?xml version=""1.0""?>\n<Clock xmlns:dt=""urn:schemas-microsoft-com:datatypes""><Description dt:dt=""string"">E-Prime Primary Realtime Clock</Description><StartTime><Timestamp dt:dt=""int"">0</Timestamp><DateUtc dt:dt=""string"">2014-05-12T20:38:08Z</DateUtc></StartTime><FrequencyChanges><FrequencyChange><Frequency dt:dt=""r8"">2793030000</Frequency><Timestamp dt:dt=""r8"">1.22939914995431E+15</Timestamp><Current dt:dt=""r8"">0</Current><DateUtc dt:dt=""string"">2014-05-12T20:38:08Z</DateUtc></FrequencyChange></FrequencyChanges></Clock>\n",60.034,1,-332443982,0,,-999999,16,65079,t,43929,109008,5/12/2014,13:38:08,8:38:08 PM,1,Session1,SessionsList,,,,,,,,,,1,1,1,2,,,269377,,,,,2,1,2,Cued3,MiniBlocks2,,,,,2,1,b,-999999,8,291016,b,305,291321,White,Congruent,b,Green,0,,0,10,287018,,0,0,,,,,,,2,1,2,,,,Pictures\green.bmp,3000,10000,Pictures\black.bmp,,,,,,,,,,,,,StimulusPr,Pictures\right.bmp,CuedStim3,Right
POP_2,16055,1,"<?xml version=""1.0""?>\n<Clock xmlns:dt=""urn:schemas-microsoft-com:datatypes""><Description dt:dt=""string"">E-Prime Primary Realtime Clock</Description><StartTime><Timestamp dt:dt=""int"">0</Timestamp><DateUtc dt:dt=""string"">2014-05-12T20:38:08Z</DateUtc></StartTime><FrequencyChanges><FrequencyChange><Frequency dt:dt=""r8"">2793030000</Frequency><Timestamp dt:dt=""r8"">1.22939914995431E+15</Timestamp><Current dt:dt=""r8"">0</Current><DateUtc dt:dt=""string"">2014-05-12T20:38:08Z</DateUtc></FrequencyChange></FrequencyChanges></Clock>\n",60.034,1,-332443982,0,,-999999,16,65079,t,43929,109008,5/12/2014,13:38:08,8:38:08 PM,1,Session1,SessionsList,,,,,,,,,,1,1,1,2,,,269377,,,,,2,1,2,Cued3,MiniBlocks2,,,,,3,1,r,-999999,14,313022,r,342,313364,White,Congruent,r,Green,0,,0,2,303010,,0,0,,,,,,,3,1,3,,,,Pictures\green.bmp,9000,2000,Pictures\left.bmp,,,,,,,,,,,,,StimulusPr,Pictures\black.bmp,CuedStim3,Left
POP_2,16055,1,"<?xml version=""1.0""?>\n<Clock xmlns:dt=""urn:schemas-microsoft-com:datatypes""><Description dt:dt=""string"">E-Prime Primary Realtime Clock</Description><StartTime><Timestamp dt:dt=""int"">0</Timestamp><DateUtc dt:dt=""string"">2014-05-12T20:38:08Z</DateUtc></StartTime><FrequencyChanges><FrequencyChange><Frequency dt:dt=""r8"">2793030000</Frequency><Timestamp dt:dt=""r8"">1.22939914995431E+15</Timestamp><Current dt:dt=""r8"">0</Current><DateUtc dt:dt=""string"">2014-05-12T20:38:08Z</DateUtc></FrequencyChange></FrequencyChanges></Clock>\n",60.034,1,-332443982,0,,-999999,16,65079,t,43929,109008,5/12/2014,13:38:08,8:38:08 PM,1,Session1,SessionsList,,,,,,,,,,1,1,1,2,,,269377,,,,,2,1,2,Cued3,MiniBlocks2,,,,,4,1,r,-999999,9,322017,r,346,322363,White,Congruent,r,Green,0,,0,12,317020,,0,0,,,,,,,4,1,4,,,,Pictures\green.bmp,4000,16000,Pictures\left.bmp,,,,,,,,,,,,,StimulusPr,Pictures\black.bmp,CuedStim3,Left
POP_2,16055,1,"<?xml version=""1.0""?>\n<Clock xmlns:dt=""urn:schemas-microsoft-com:datatypes""><Description dt:dt=""string"">E-Prime Primary Realtime Clock</Description><StartTime><Timestamp dt:dt=""int"">0</Timestamp><DateUtc dt:dt=""string"">2014-05-12T20:38:08Z</DateUtc></StartTime><FrequencyChanges><FrequencyChange><Frequency dt:dt=""r8"">2793030000</Frequency><Timestamp dt:dt=""r8"">1.22939914995431E+15</Timestamp><Current dt:dt=""r8"">0</Current><DateUtc dt:dt=""string"">2014-05-12T20:38:08Z</DateUtc></FrequencyChange></FrequencyChanges></Clock>\n",60.034,1,-332443982,0,,-999999,16,65079,t,43929,109008,5/12/2014,13:38:08,8:38:08 PM,1,Session1,SessionsList,,,,,,,,,,1,1,1,2,,,269377,,,,,2,1,2,Cued3,MiniBlocks2,,,,,5,1,r,-999999,15,344023,r,356,344379,White,Incongruent,r,Red,0,,0,17,340025,,0,0,,,,,,,5,1,5,,,,Pictures\red.bmp,3000,4000,Pictures\black.bmp,,,,,,,,,,,,,StimulusPr,Pictures\right.bmp,CuedStim3,Right
POP_2,16055,1,"<?xml version=""1.0""?>\n<Clock xmlns:dt=""urn:schemas-microsoft-com:datatypes""><Description dt:dt=""string"">E-Prime Primary Realtime Clock</Description><StartTime><Timestamp dt:dt=""int"">0</Timestamp><DateUtc dt:dt=""string"">2014-05-12T20:38:08Z</DateUtc></StartTime><FrequencyChanges><FrequencyChange><Frequency dt:dt=""r8"">2793030000</Frequency><Timestamp dt:dt=""r8"">1.22939914995431E+15</Timestamp><Current dt:dt=""r8"">0</Current><DateUtc dt:dt=""string"">2014-05-12T20:38:08Z</DateUtc></FrequencyChange></FrequencyChanges></Clock>\n",60.034,1,-332443982,0,,-999999,16,65079,t,43929,109008,5/12/2014,13:38:08,8:38:08 PM,1,Session1,SessionsList,,,,,,,,,,1,1,1,2,,,269377,,,,,2,1,2,Cued3,MiniBlocks2,,,,,6,1,b,-999999,9,357017,b,316,357333,White,Congruent,b,Green,0,,0,12,350020,,0,0,,,,,,,6,1,6,,,,Pictures\green.bmp,6000,4000,Pictures\black.bmp,,,,,,,,,,,,,StimulusPr,Pictures\right.bmp,CuedStim3,Right
POP_2,16055,1,"<?xml version=""1.0""?>\n<Clock xmlns:dt=""urn:schemas-microsoft-com:datatypes""><Description dt:dt=""string"">E-Prime Primary Realtime Clock</Description><StartTime><Timestamp dt:dt=""int"">0</Timestamp><DateUtc dt:dt=""string"">2014-05-12T20:38:08Z</DateUtc></StartTime><FrequencyChanges><FrequencyChange><Frequency dt:dt=""r8"">2793030000</Frequency><Timestamp dt:dt=""r8"">1.22939914995431E+15</Timestamp><Current dt:dt=""r8"">0</Current><DateUtc dt:dt=""string"">2014-05-12T20:38:08Z</DateUtc></FrequencyChange></FrequencyChanges></Clock>\n",60.034,1,-332443982,0,,-999999,16,65079,t,43929,109008,5/12/2014,13:38:08,8:38:08 PM,1,Session1,SessionsList,,,,,,,,,,1,1,1,2,,,269377,,,,,2,1,2,Cued3,MiniBlocks2,,,,,7,1,r,-999999,3,368011,r,357,368368,White,Congruent,r,Green,0,,0,6,363014,,0,0,,,,,,,7,1,7,,,,Pictures\green.bmp,4000,16000,Pictures\left.bmp,,,,,,,,,,,,,StimulusPr,Pictures\black.bmp,CuedStim3,Left
POP_2,16055,1,"<?xml version=""1.0""?>\n<Clock xmlns:dt=""urn:schemas-microsoft-com:datatypes""><Description dt:dt=""string"">E-Prime Primary Realtime Clock</Description><StartTime><Timestamp dt:dt=""int"">0</Timestamp><DateUtc dt:dt=""string"">2014-05-12T20:38:08Z</DateUtc></StartTime><FrequencyChanges><FrequencyChange><Frequency dt:dt=""r8"">2793030000</Frequency><Timestamp dt:dt=""r8"">1.22939914995431E+15</Timestamp><Current dt:dt=""r8"">0</Current><DateUtc dt:dt=""string"">2014-05-12T20:38:08Z</DateUtc></FrequencyChange></FrequencyChanges></Clock>\n",60.034,1,-332443982,0,,-999999,16,65079,t,43929,109008,5/12/2014,13:38:08,8:38:08 PM,1,Session1,SessionsList,,,,,,,,,,1,1,1,2,,,269377,,,,,2,1,2,Cued3,MiniBlocks2,,,,,8,1,b,-999999,9,390017,b,320,390337,White,Incongruent,b,Red,0,,0,11,386019,,0,0,,,,,,,8,1,8,,,,Pictures\red.bmp,3000,2000,Pictures\left.bmp,,,,,,,,,,,,,StimulusPr,Pictures\black.bmp,CuedStim3,Left
POP_2,16055,1,"<?xml version=""1.0""?>\n<Clock xmlns:dt=""urn:schemas-microsoft-com:datatypes""><Description dt:dt=""string"">E-Prime Primary Realtime Clock</Description><StartTime><Timestamp dt:dt=""int"">0</Timestamp><DateUtc dt:dt=""string"">2014-05-12T20:38:08Z</DateUtc></StartTime><FrequencyChanges><FrequencyChange><Frequency dt:dt=""r8"">2793030000</Frequency><Timestamp dt:dt=""r8"">1.22939914995431E+15</Timestamp><Current dt:dt=""r8"">0</Current><DateUtc dt:dt=""string"">2014-05-12T20:38:08Z</DateUtc></FrequencyChange></FrequencyChanges></Clock>\n",60.034,1,-332443982,0,,-999999,16,65079,t,43929,109008,5/12/2014,13:38:08,8:38:08 PM,1,Session1,SessionsList,,,,,,,,,,1,1,1,2,,,269377,,,,,2,1,2,Cued3,MiniBlocks2,,,,,9,1,r,-999999,5,398013,r,299,398312,White,Congruent,r,Green,0,,0,7,394015,,0,0,,,,,,,9,1,9,,,,Pictures\green.bmp,3000,2000,Pictures\left.bmp,,,,,,,,,,,,,StimulusPr,Pictures\black.bmp,CuedStim3,Left
POP_2,16055,1,"<?xml version=""1.0""?>\n<Clock xmlns:dt=""urn:schemas-microsoft-com:datatypes""><Description dt:dt=""string"">E-Prime Primary Realtime Clock</Description><StartTime><Timestamp dt:dt=""int"">0</Timestamp><DateUtc dt:dt=""string"">2014-05-12T20:38:08Z</DateUtc></StartTime><FrequencyChanges><FrequencyChange><Frequency dt:dt=""r8"">2793030000</Frequency><Timestamp dt:dt=""r8"">1.22939914995431E+15</Timestamp><Current dt:dt=""r8"">0</Current><DateUtc dt:dt=""string"">2014-05-12T20:38:08Z</DateUtc></FrequencyChange></FrequencyChanges></Clock>\n",60.034,1,-332443982,0,,-999999,16,65079,t,43929,109008,5/12/2014,13:38:08,8:38:08 PM,1,Session1,SessionsList,,,,,,,,,,1,1,1,2,,,269377,,,,,2,1,2,Cued3,MiniBlocks2,,,,,10,1,b,-999999,14,412022,b,325,412347,White,Congruent,b,Green,0,,0,3,402011,,0,0,,,,,,,10,1,10,,,,Pictures\green.bmp,9000,10000,Pictures\black.bmp,,,,,,,,,,,,,StimulusPr,Pictures\right.bmp,CuedStim3,Right
POP_2,16055,1,"<?xml version=""1.0""?>\n<Clock xmlns:dt=""urn:schemas-microsoft-com:datatypes""><Description dt:dt=""string"">E-Prime Primary Realtime Clock</Description><StartTime><Timestamp dt:dt=""int"">0</Timestamp><DateUtc dt:dt=""string"">2014-05-12T20:38:08Z</DateUtc></StartTime><FrequencyChanges><FrequencyChange><Frequency dt:dt=""r8"">2793030000</Frequency><Timestamp dt:dt=""r8"">1.22939914995431E+15</Timestamp><Current dt:dt=""r8"">0</Current><DateUtc dt:dt=""string"">2014-05-12T20:38:08Z</DateUtc></FrequencyChange></FrequencyChanges></Clock>\n",60.034,1,-332443982,0,,-999999,16,65079,t,43929,109008,5/12/2014,13:38:08,8:38:08 PM,1,Session1,SessionsList,,,,,,,,,,1,1,1,3,,,,422367,,,,3,1,3,Cued4,MiniBlocks2,,,,,1,1,b,-999999,18,439026,b,345,439371,White,Congruent,b,Green,0,,0,4,432012,,0,0,,,,,,,,,,1,1,1,Pictures\green.bmp,6000,2000,Pictures\black.bmp,,,,,,,,,,,,,StimulusPr,Pictures\right.bmp,CuedStim4,Right
POP_2,16055,1,"<?xml version=""1.0""?>\n<Clock xmlns:dt=""urn:schemas-microsoft-com:datatypes""><Description dt:dt=""string"">E-Prime Primary Realtime Clock</Description><StartTime><Timestamp dt:dt=""int"">0</Timestamp><DateUtc dt:dt=""string"">2014-05-12T20:38:08Z</DateUtc></StartTime><FrequencyChanges><FrequencyChange><Frequency dt:dt=""r8"">2793030000</Frequency><Timestamp dt:dt=""r8"">1.22939914995431E+15</Timestamp><Current dt:dt=""r8"">0</Current><DateUtc dt:dt=""string"">2014-05-12T20:38:08Z</DateUtc></FrequencyChange></FrequencyChanges></Clock>\n",60.034,1,-332443982,0,,-999999,16,65079,t,43929,109008,5/12/2014,13:38:08,8:38:08 PM,1,Session1,SessionsList,,,,,,,,,,1,1,1,3,,,,422367,,,,3,1,3,Cued4,MiniBlocks2,,,,,2,1,r,-999999,11,453019,r,320,453339,White,Incongruent,r,Red,0,,0,16,443024,,0,0,,,,,,,,,,2,1,2,Pictures\red.bmp,9000,2000,Pictures\black.bmp,,,,,,,,,,,,,StimulusPr,Pictures\right.bmp,CuedStim4,Right
POP_2,16055,1,"<?xml version=""1.0""?>\n<Clock xmlns:dt=""urn:schemas-microsoft-com:datatypes""><Description dt:dt=""string"">E-Prime Primary Realtime Clock</Description><StartTime><Timestamp dt:dt=""int"">0</Timestamp><DateUtc dt:dt=""string"">2014-05-12T20:38:08Z</DateUtc></StartTime><FrequencyChanges><FrequencyChange><Frequency dt:dt=""r8"">2793030000</Frequency><Timestamp dt:dt=""r8"">1.22939914995431E+15</Timestamp><Current dt:dt=""r8"">0</Current><DateUtc dt:dt=""string"">2014-05-12T20:38:08Z</DateUtc></FrequencyChange></FrequencyChanges></Clock>\n",60.034,1,-332443982,0,,-999999,16,65079,t,43929,109008,5/12/2014,13:38:08,8:38:08 PM,1,Session1,SessionsList,,,,,,,,,,1,1,1,3,,,,422367,,,,3,1,3,Cued4,MiniBlocks2,,,,,3,1,b,-999999,7,461015,b,284,461299,White,Congruent,b,Green,0,,0,10,457017,,0,0,,,,,,,,,,3,1,3,Pictures\green.bmp,3000,4000,Pictures\black.bmp,,,,,,,,,,,,,StimulusPr,Pictures\right.bmp,CuedStim4,Right
POP_2,16055,1,"<?xml version=""1.0""?>\n<Clock xmlns:dt=""urn:schemas-microsoft-com:datatypes""><Description dt:dt=""string"">E-Prime Primary Realtime Clock</Description><StartTime><Timestamp dt:dt=""int"">0</Timestamp><DateUtc dt:dt=""string"">2014-05-12T20:38:08Z</DateUtc></StartTime><FrequencyChanges><FrequencyChange><Frequency dt:dt=""r8"">2793030000</Frequency><Timestamp dt:dt=""r8"">1.22939914995431E+15</Timestamp><Current dt:dt=""r8"">0</Current><DateUtc dt:dt=""string"">2014-05-12T20:38:08Z</DateUtc></FrequencyChange></FrequencyChanges></Clock>\n",60.034,1,-332443982,0,,-999999,16,65079,t,43929,109008,5/12/2014,13:38:08,8:38:08 PM,1,Session1,SessionsList,,,,,,,,,,1,1,1,3,,,,422367,,,,3,1,3,Cued4,MiniBlocks2,,,,,4,1,r,-999999,2,471010,r,348,471358,White,Congruent,r,Green,0,,0,4,467012,,0,0,,,,,,,,,,4,1,4,Pictures\green.bmp,3000,4000,Pictures\left.bmp,,,,,,,,,,,,,StimulusPr,Pictures\black.bmp,CuedStim4,Left
POP_2,16055,1,"<?xml version=""1.0""?>\n<Clock xmlns:dt=""urn:schemas-microsoft-com:datatypes""><Description dt:dt=""string"">E-Prime Primary Realtime Clock</Description><StartTime><Timestamp dt:dt=""int"">0</Timestamp><DateUtc dt:dt=""string"">2014-05-12T20:38:08Z</DateUtc></StartTime><FrequencyChanges><FrequencyChange><Frequency dt:dt=""r8"">2793030000</Frequency><Timestamp dt:dt=""r8"">1.22939914995431E+15</Timestamp><Current dt:dt=""r8"">0</Current><DateUtc dt:dt=""string"">2014-05-12T20:38:08Z</DateUtc></FrequencyChange></FrequencyChanges></Clock>\n",60.034,1,-332443982,0,,-999999,16,65079,t,43929,109008,5/12/2014,13:38:08,8:38:08 PM,1,Session1,SessionsList,,,,,,,,,,1,1,1,3,,,,422367,,,,3,1,3,Cued4,MiniBlocks2,,,,,5,0,b,-999999,14,482021,r,370,482391,White,Incongruent,b,Red,0,,0,15,477023,,0,0,,,,,,,,,,5,1,5,Pictures\red.bmp,4000,16000,Pictures\left.bmp,,,,,,,,,,,,,StimulusPr,Pictures\black.bmp,CuedStim4,Left
POP_2,16055,1,"<?xml version=""1.0""?>\n<Clock xmlns:dt=""urn:schemas-microsoft-com:datatypes""><Description dt:dt=""string"">E-Prime Primary Realtime Clock</Description><StartTime><Timestamp dt:dt=""int"">0</Timestamp><DateUtc dt:dt=""string"">2014-05-12T20:38:08Z</DateUtc></StartTime><FrequencyChanges><FrequencyChange><Frequency dt:dt=""r8"">2793030000</Frequency><Timestamp dt:dt=""r8"">1.22939914995431E+15</Timestamp><Current dt:dt=""r8"">0</Current><DateUtc dt:dt=""string"">2014-05-12T20:38:08Z</DateUtc></FrequencyChange></FrequencyChanges></Clock>\n",60.034,1,-332443982,0,,-999999,16,65079,t,43929,109008,5/12/2014,13:38:08,8:38:08 PM,1,Session1,SessionsList,,,,,,,,,,1,1,1,3,,,,422367,,,,3,1,3,Cued4,MiniBlocks2,,,,,6,1,b,-999999,2,504010,b,339,504349,White,Congruent,b,Green,0,,0,4,500012,,0,0,,,,,,,,,,6,1,6,Pictures\green.bmp,3000,2000,Pictures\black.bmp,,,,,,,,,,,,,StimulusPr,Pictures\right.bmp,CuedStim4,Right
POP_2,16055,1,"<?xml version=""1.0""?>\n<Clock xmlns:dt=""urn:schemas-microsoft-com:datatypes""><Description dt:dt=""string"">E-Prime Primary Realtime Clock</Description><StartTime><Timestamp dt:dt=""int"">0</Timestamp><DateUtc dt:dt=""string"">2014-05-12T20:38:08Z</DateUtc></StartTime><FrequencyChanges><FrequencyChange><Frequency dt:dt=""r8"">2793030000</Frequency><Timestamp dt:dt=""r8"">1.22939914995431E+15</Timestamp><Current dt:dt=""r8"">0</Current><DateUtc dt:dt=""string"">2014-05-12T20:38:08Z</DateUtc></FrequencyChange></FrequencyChanges></Clock>\n",60.034,1,-332443982,0,,-999999,16,65079,t,43929,109008,5/12/2014,13:38:08,8:38:08 PM,1,Session1,SessionsList,,,,,,,,,,1,1,1,3,,,,422367,,,,3,1,3,Cued4,MiniBlocks2,,,,,7,1,b,-999999,11,518019,b,326,518345,White,Congruent,b,Green,0,,0,16,508024,,0,0,,,,,,,,,,7,1,7,Pictures\green.bmp,9000,10000,Pictures\black.bmp,,,,,,,,,,,,,StimulusPr,Pictures\right.bmp,CuedStim4,Right
POP_2,16055,1,"<?xml version=""1.0""?>\n<Clock xmlns:dt=""urn:schemas-microsoft-com:datatypes""><Description dt:dt=""string"">E-Prime Primary Realtime Clock</Description><StartTime><Timestamp dt:dt=""int"">0</Timestamp><DateUtc dt:dt=""string"">2014-05-12T20:38:08Z</DateUtc></StartTime><FrequencyChanges><FrequencyChange><Frequency dt:dt=""r8"">2793030000</Frequency><Timestamp dt:dt=""r8"">1.22939914995431E+15</Timestamp><Current dt:dt=""r8"">0</Current><DateUtc dt:dt=""string"">2014-05-12T20:38:08Z</DateUtc></FrequencyChange></FrequencyChanges></Clock>\n",60.034,1,-332443982,0,,-999999,16,65079,t,43929,109008,5/12/2014,13:38:08,8:38:08 PM,1,Session1,SessionsList,,,,,,,,,,1,1,1,3,,,,422367,,,,3,1,3,Cued4,MiniBlocks2,,,,,8,1,b,-999999,3,537011,b,586,537597,White,Incongruent,b,Red,0,,0,5,530013,,0,0,,,,,,,,,,8,1,8,Pictures\red.bmp,6000,10000,Pictures\left.bmp,,,,,,,,,,,,,StimulusPr,Pictures\black.bmp,CuedStim4,Left
POP_2,16055,1,"<?xml version=""1.0""?>\n<Clock xmlns:dt=""urn:schemas-microsoft-com:datatypes""><Description dt:dt=""string"">E-Prime Primary Realtime Clock</Description><StartTime><Timestamp dt:dt=""int"">0</Timestamp><DateUtc dt:dt=""string"">2014-05-12T20:38:08Z</DateUtc></StartTime><FrequencyChanges><FrequencyChange><Frequency dt:dt=""r8"">2793030000</Frequency><Timestamp dt:dt=""r8"">1.22939914995431E+15</Timestamp><Current dt:dt=""r8"">0</Current><DateUtc dt:dt=""string"">2014-05-12T20:38:08Z</DateUtc></FrequencyChange></FrequencyChanges></Clock>\n",60.034,1,-332443982,0,,-999999,16,65079,t,43929,109008,5/12/2014,13:38:08,8:38:08 PM,1,Session1,SessionsList,,,,,,,,,,1,1,1,3,,,,422367,,,,3,1,3,Cued4,MiniBlocks2,,,,,9,1,r,-999999,9,556017,r,354,556371,White,Congruent,r,Green,0,,0,13,549021,,0,0,,,,,,,,,,9,1,9,Pictures\green.bmp,6000,16000,Pictures\left.bmp,,,,,,,,,,,,,StimulusPr,Pictures\black.bmp,CuedStim4,Left
POP_2,16055,1,"<?xml version=""1.0""?>\n<Clock xmlns:dt=""urn:schemas-microsoft-com:datatypes""><Description dt:dt=""string"">E-Prime Primary Realtime Clock</Description><StartTime><Timestamp dt:dt=""int"">0</Timestamp><DateUtc dt:dt=""string"">2014-05-12T20:38:08Z</DateUtc></StartTime><FrequencyChanges><FrequencyChange><Frequency dt:dt=""r8"">2793030000</Frequency><Timestamp dt:dt=""r8"">1.22939914995431E+15</Timestamp><Current dt:dt=""r8"">0</Current><DateUtc dt:dt=""string"">2014-05-12T20:38:08Z</DateUtc></FrequencyChange></FrequencyChanges></Clock>\n",60.034,1,-332443982,0,,-999999,16,65079,t,43929,109008,5/12/2014,13:38:08,8:38:08 PM,1,Session1,SessionsList,,,,,,,,,,1,1,1,3,,,,422367,,,,3,1,3,Cued4,MiniBlocks2,,,,,10,1,r,-999999,14,579022,r,369,579391,White,Congruent,r,Green,0,,0,18,574025,,0,0,,,,,,,,,,10,1,10,Pictures\green.bmp,4000,2000,Pictures\left.bmp,,,,,,,,,,,,,StimulusPr,Pictures\black.bmp,CuedStim4,Left
POP_2,16055,1,"<?xml version=""1.0""?>\n<Clock xmlns:dt=""urn:schemas-microsoft-com:datatypes""><Description dt:dt=""string"">E-Prime Primary Realtime Clock</Description><StartTime><Timestamp dt:dt=""int"">0</Timestamp><DateUtc dt:dt=""string"">2014-05-12T20:38:08Z</DateUtc></StartTime><FrequencyChanges><FrequencyChange><Frequency dt:dt=""r8"">2793030000</Frequency><Timestamp dt:dt=""r8"">1.22939914995431E+15</Timestamp><Current dt:dt=""r8"">0</Current><DateUtc dt:dt=""string"">2014-05-12T20:38:08Z</DateUtc></FrequencyChange></FrequencyChanges></Clock>\n",60.034,1,-332443982,0,,-999999,16,65079,t,43929,109008,5/12/2014,13:38:08,8:38:08 PM,1,Session1,SessionsList,,,,,,,,,,1,1,1,4,,,,,,,,4,1,4,NonCued4,MiniBlocks2,,,,581421,1,1,r,-999999,6,595014,r,780,595794,Green,Congruent,r,White,0,,0,9,591016,,0,0,,,,,,,,,,,,,Pictures\white.bmp,3000,2000,Pictures\GreenLeft.bmp,,,,,,,,,,1,1,1,StimulusPr,Pictures\black.bmp,NonCuedStim4,Left
POP_2,16055,1,"<?xml version=""1.0""?>\n<Clock xmlns:dt=""urn:schemas-microsoft-com:datatypes""><Description dt:dt=""string"">E-Prime Primary Realtime Clock</Description><StartTime><Timestamp dt:dt=""int"">0</Timestamp><DateUtc dt:dt=""string"">2014-05-12T20:38:08Z</DateUtc></StartTime><FrequencyChanges><FrequencyChange><Frequency dt:dt=""r8"">2793030000</Frequency><Timestamp dt:dt=""r8"">1.22939914995431E+15</Timestamp><Current dt:dt=""r8"">0</Current><DateUtc dt:dt=""string"">2014-05-12T20:38:08Z</DateUtc></FrequencyChange></FrequencyChanges></Clock>\n",60.034,1,-332443982,0,,-999999,16,65079,t,43929,109008,5/12/2014,13:38:08,8:38:08 PM,1,Session1,SessionsList,,,,,,,,,,1,1,1,4,,,,,,,,4,1,4,NonCued4,MiniBlocks2,,,,581421,2,1,r,-999999,3,604011,r,355,604366,Green,Congruent,r,White,0,,0,4,599012,,0,0,,,,,,,,,,,,,Pictures\white.bmp,4000,2000,Pictures\GreenLeft.bmp,,,,,,,,,,2,1,2,StimulusPr,Pictures\black.bmp,NonCuedStim4,Left
POP_2,16055,1,"<?xml version=""1.0""?>\n<Clock xmlns:dt=""urn:schemas-microsoft-com:datatypes""><Description dt:dt=""string"">E-Prime Primary Realtime Clock</Description><StartTime><Timestamp dt:dt=""int"">0</Timestamp><DateUtc dt:dt=""string"">2014-05-12T20:38:08Z</DateUtc></StartTime><FrequencyChanges><FrequencyChange><Frequency dt:dt=""r8"">2793030000</Frequency><Timestamp dt:dt=""r8"">1.22939914995431E+15</Timestamp><Current dt:dt=""r8"">0</Current><DateUtc dt:dt=""string"">2014-05-12T20:38:08Z</DateUtc></FrequencyChange></FrequencyChanges></Clock>\n",60.034,1,-332443982,0,,-999999,16,65079,t,43929,109008,5/12/2014,13:38:08,8:38:08 PM,1,Session1,SessionsList,,,,,,,,,,1,1,1,4,,,,,,,,4,1,4,NonCued4,MiniBlocks2,,,,581421,3,1,r,-999999,14,613022,r,547,613569,Red,Incongruent,r,White,0,,0,18,608025,,0,0,,,,,,,,,,,,,Pictures\white.bmp,4000,2000,Pictures\black.bmp,,,,,,,,,,3,1,3,StimulusPr,Pictures\RedRight.bmp,NonCuedStim4,Right
POP_2,16055,1,"<?xml version=""1.0""?>\n<Clock xmlns:dt=""urn:schemas-microsoft-com:datatypes""><Description dt:dt=""string"">E-Prime Primary Realtime Clock</Description><StartTime><Timestamp dt:dt=""int"">0</Timestamp><DateUtc dt:dt=""string"">2014-05-12T20:38:08Z</DateUtc></StartTime><FrequencyChanges><FrequencyChange><Frequency dt:dt=""r8"">2793030000</Frequency><Timestamp dt:dt=""r8"">1.22939914995431E+15</Timestamp><Current dt:dt=""r8"">0</Current><DateUtc dt:dt=""string"">2014-05-12T20:38:08Z</DateUtc></FrequencyChange></FrequencyChanges></Clock>\n",60.034,1,-332443982,0,,-999999,16,65079,t,43929,109008,5/12/2014,13:38:08,8:38:08 PM,1,Session1,SessionsList,,,,,,,,,,1,1,1,4,,,,,,,,4,1,4,NonCued4,MiniBlocks2,,,,581421,4,0,b,-999999,10,621018,r,411,621429,Green,Congruent,b,White,0,,0,12,617020,,0,0,,,,,,,,,,,,,Pictures\white.bmp,3000,16000,Pictures\black.bmp,,,,,,,,,,4,1,4,StimulusPr,Pictures\GreenRight.bmp,NonCuedStim4,Right
POP_2,16055,1,"<?xml version=""1.0""?>\n<Clock xmlns:dt=""urn:schemas-microsoft-com:datatypes""><Description dt:dt=""string"">E-Prime Primary Realtime Clock</Description><StartTime><Timestamp dt:dt=""int"">0</Timestamp><DateUtc dt:dt=""string"">2014-05-12T20:38:08Z</DateUtc></StartTime><FrequencyChanges><FrequencyChange><Frequency dt:dt=""r8"">2793030000</Frequency><Timestamp dt:dt=""r8"">1.22939914995431E+15</Timestamp><Current dt:dt=""r8"">0</Current><DateUtc dt:dt=""string"">2014-05-12T20:38:08Z</DateUtc></FrequencyChange></FrequencyChanges></Clock>\n",60.034,1,-332443982,0,,-999999,16,65079,t,43929,109008,5/12/2014,13:38:08,8:38:08 PM,1,Session1,SessionsList,,,,,,,,,,1,1,1,4,,,,,,,,4,1,4,NonCued4,MiniBlocks2,,,,581421,5,1,r,-999999,13,649021,r,507,649528,Green,Congruent,r,White,0,,0,2,639009,,0,0,,,,,,,,,,,,,Pictures\white.bmp,9000,10000,Pictures\GreenLeft.bmp,,,,,,,,,,5,1,5,StimulusPr,Pictures\black.bmp,NonCuedStim4,Left
POP_2,16055,1,"<?xml version=""1.0""?>\n<Clock xmlns:dt=""urn:schemas-microsoft-com:datatypes""><Description dt:dt=""string"">E-Prime Primary Realtime Clock</Description><StartTime><Timestamp dt:dt=""int"">0</Timestamp><DateUtc dt:dt=""string"">2014-05-12T20:38:08Z</DateUtc></StartTime><FrequencyChanges><FrequencyChange><Frequency dt:dt=""r8"">2793030000</Frequency><Timestamp dt:dt=""r8"">1.22939914995431E+15</Timestamp><Current dt:dt=""r8"">0</Current><DateUtc dt:dt=""string"">2014-05-12T20:38:08Z</DateUtc></FrequencyChange></FrequencyChanges></Clock>\n",60.034,1,-332443982,0,,-999999,16,65079,t,43929,109008,5/12/2014,13:38:08,8:38:08 PM,1,Session1,SessionsList,,,,,,,,,,1,1,1,4,,,,,,,,4,1,4,NonCued4,MiniBlocks2,,,,581421,6,1,b,-999999,6,665013,b,438,665451,Green,Congruent,b,White,0,,0,7,661015,,0,0,,,,,,,,,,,,,Pictures\white.bmp,3000,16000,Pictures\black.bmp,,,,,,,,,,6,1,6,StimulusPr,Pictures\GreenRight.bmp,NonCuedStim4,Right
POP_2,16055,1,"<?xml version=""1.0""?>\n<Clock xmlns:dt=""urn:schemas-microsoft-com:datatypes""><Description dt:dt=""string"">E-Prime Primary Realtime Clock</Description><StartTime><Timestamp dt:dt=""int"">0</Timestamp><DateUtc dt:dt=""string"">2014-05-12T20:38:08Z</DateUtc></StartTime><FrequencyChanges><FrequencyChange><Frequency dt:dt=""r8"">2793030000</Frequency><Timestamp dt:dt=""r8"">1.22939914995431E+15</Timestamp><Current dt:dt=""r8"">0</Current><DateUtc dt:dt=""string"">2014-05-12T20:38:08Z</DateUtc></FrequencyChange></FrequencyChanges></Clock>\n",60.034,1,-332443982,0,,-999999,16,65079,t,43929,109008,5/12/2014,13:38:08,8:38:08 PM,1,Session1,SessionsList,,,,,,,,,,1,1,1,4,,,,,,,,4,1,4,NonCued4,MiniBlocks2,,,,581421,7,1,b,-999999,11,687018,b,476,687494,Red,Incongruent,b,White,0,,0,12,683020,,0,0,,,,,,,,,,,,,Pictures\white.bmp,3000,16000,Pictures\RedLeft.bmp,,,,,,,,,,7,1,7,StimulusPr,Pictures\black.bmp,NonCuedStim4,Left
POP_2,16055,1,"<?xml version=""1.0""?>\n<Clock xmlns:dt=""urn:schemas-microsoft-com:datatypes""><Description dt:dt=""string"">E-Prime Primary Realtime Clock</Description><StartTime><Timestamp dt:dt=""int"">0</Timestamp><DateUtc dt:dt=""string"">2014-05-12T20:38:08Z</DateUtc></StartTime><FrequencyChanges><FrequencyChange><Frequency dt:dt=""r8"">2793030000</Frequency><Timestamp dt:dt=""r8"">1.22939914995431E+15</Timestamp><Current dt:dt=""r8"">0</Current><DateUtc dt:dt=""string"">2014-05-12T20:38:08Z</DateUtc></FrequencyChange></FrequencyChanges></Clock>\n",60.034,1,-332443982,0,,-999999,16,65079,t,43929,109008,5/12/2014,13:38:08,8:38:08 PM,1,Session1,SessionsList,,,,,,,,,,1,1,1,4,,,,,,,,4,1,4,NonCued4,MiniBlocks2,,,,581421,8,1,r,-999999,17,709024,r,503,709527,Green,Congruent,r,White,0,,0,2,705009,,0,0,,,,,,,,,,,,,Pictures\white.bmp,3000,2000,Pictures\GreenLeft.bmp,,,,,,,,,,8,1,8,StimulusPr,Pictures\black.bmp,NonCuedStim4,Left
POP_2,16055,1,"<?xml version=""1.0""?>\n<Clock xmlns:dt=""urn:schemas-microsoft-com:datatypes""><Description dt:dt=""string"">E-Prime Primary Realtime Clock</Description><StartTime><Timestamp dt:dt=""int"">0</Timestamp><DateUtc dt:dt=""string"">2014-05-12T20:38:08Z</DateUtc></StartTime><FrequencyChanges><FrequencyChange><Frequency dt:dt=""r8"">2793030000</Frequency><Timestamp dt:dt=""r8"">1.22939914995431E+15</Timestamp><Current dt:dt=""r8"">0</Current><DateUtc dt:dt=""string"">2014-05-12T20:38:08Z</DateUtc></FrequencyChange></FrequencyChanges></Clock>\n",60.034,1,-332443982,0,,-999999,16,65079,t,43929,109008,5/12/2014,13:38:08,8:38:08 PM,1,Session1,SessionsList,,,,,,,,,,1,1,1,4,,,,,,,,4,1,4,NonCued4,MiniBlocks2,,,,581421,9,1,b,-999999,12,720019,b,364,720383,Green,Congruent,b,White,0,,0,14,713022,,0,0,,,,,,,,,,,,,Pictures\white.bmp,6000,2000,Pictures\black.bmp,,,,,,,,,,9,1,9,StimulusPr,Pictures\GreenRight.bmp,NonCuedStim4,Right
POP_2,16055,1,"<?xml version=""1.0""?>\n<Clock xmlns:dt=""urn:schemas-microsoft-com:datatypes""><Description dt:dt=""string"">E-Prime Primary Realtime Clock</Description><StartTime><Timestamp dt:dt=""int"">0</Timestamp><DateUtc dt:dt=""string"">2014-05-12T20:38:08Z</DateUtc></StartTime><FrequencyChanges><FrequencyChange><Frequency dt:dt=""r8"">2793030000</Frequency><Timestamp dt:dt=""r8"">1.22939914995431E+15</Timestamp><Current dt:dt=""r8"">0</Current><DateUtc dt:dt=""string"">2014-05-12T20:38:08Z</DateUtc></FrequencyChange></FrequencyChanges></Clock>\n",60.034,1,-332443982,0,,-999999,16,65079,t,43929,109008,5/12/2014,13:38:08,8:38:08 PM,1,Session1,SessionsList,,,,,,,,,,1,1,1,4,,,,,,,,4,1,4,NonCued4,MiniBlocks2,,,,581421,10,1,b,-999999,7,729014,b,367,729381,Green,Congruent,b,White,0,,0,9,724017,,0,0,,,,,,,,,,,,,Pictures\white.bmp,4000,4000,Pictures\black.bmp,,,,,,,,,,10,1,10,StimulusPr,Pictures\GreenRight.bmp,NonCuedStim4,Right
POP_2,16055,1,"<?xml version=""1.0""?>\n<Clock xmlns:dt=""urn:schemas-microsoft-com:datatypes""><Description dt:dt=""string"">E-Prime Primary Realtime Clock</Description><StartTime><Timestamp dt:dt=""int"">0</Timestamp><DateUtc dt:dt=""string"">2014-05-12T20:38:08Z</DateUtc></StartTime><FrequencyChanges><FrequencyChange><Frequency dt:dt=""r8"">2793030000</Frequency><Timestamp dt:dt=""r8"">1.22939914995431E+15</Timestamp><Current dt:dt=""r8"">0</Current><DateUtc dt:dt=""string"">2014-05-12T20:38:08Z</DateUtc></FrequencyChange></FrequencyChanges></Clock>\n",60.034,1,-332443982,0,,-999999,16,65079,t,43929,109008,5/12/2014,13:38:08,8:38:08 PM,2,Session2,SessionsList,0,,-999999,8,751453,t,41893,793346,733412,2,1,2,1,793349,,,,1,1,1,,,,Cued1,MiniBlocks1,,,,,1,1,r,-999999,8,807342,r,1060,808402,White,Congruent,r,Green,0,,0,15,802361,,0,0,1,1,1,,,,,,,,,,Pictures\green.bmp,4000,4000,Pictures\left.bmp,,,,,,,,,,,,,StimulusPr,Pictures\black.bmp,CuedStim1,Left
POP_2,16055,1,"<?xml version=""1.0""?>\n<Clock xmlns:dt=""urn:schemas-microsoft-com:datatypes""><Description dt:dt=""string"">E-Prime Primary Realtime Clock</Description><StartTime><Timestamp dt:dt=""int"">0</Timestamp><DateUtc dt:dt=""string"">2014-05-12T20:38:08Z</DateUtc></StartTime><FrequencyChanges><FrequencyChange><Frequency dt:dt=""r8"">2793030000</Frequency><Timestamp dt:dt=""r8"">1.22939914995431E+15</Timestamp><Current dt:dt=""r8"">0</Current><DateUtc dt:dt=""string"">2014-05-12T20:38:08Z</DateUtc></FrequencyChange></FrequencyChanges></Clock>\n",60.034,1,-332443982,0,,-999999,16,65079,t,43929,109008,5/12/2014,13:38:08,8:38:08 PM,2,Session2,SessionsList,0,,-999999,8,751453,t,41893,793346,733412,2,1,2,1,793349,,,,1,1,1,,,,Cued1,MiniBlocks1,,,,,2,1,b,-999999,4,821351,b,273,821624,White,Congruent,b,Green,0,,0,9,814355,,0,0,2,1,2,,,,,,,,,,Pictures\green.bmp,6000,2000,Pictures\black.bmp,,,,,,,,,,,,,StimulusPr,Pictures\right.bmp,CuedStim1,Right
POP_2,16055,1,"<?xml version=""1.0""?>\n<Clock xmlns:dt=""urn:schemas-microsoft-com:datatypes""><Description dt:dt=""string"">E-Prime Primary Realtime Clock</Description><StartTime><Timestamp dt:dt=""int"">0</Timestamp><DateUtc dt:dt=""string"">2014-05-12T20:38:08Z</DateUtc></StartTime><FrequencyChanges><FrequencyChange><Frequency dt:dt=""r8"">2793030000</Frequency><Timestamp dt:dt=""r8"">1.22939914995431E+15</Timestamp><Current dt:dt=""r8"">0</Current><DateUtc dt:dt=""string"">2014-05-12T20:38:08Z</DateUtc></FrequencyChange></FrequencyChanges></Clock>\n",60.034,1,-332443982,0,,-999999,16,65079,t,43929,109008,5/12/2014,13:38:08,8:38:08 PM,2,Session2,SessionsList,0,,-999999,8,751453,t,41893,793346,733412,2,1,2,1,793349,,,,1,1,1,,,,Cued1,MiniBlocks1,,,,,3,1,b,-999999,18,829364,b,371,829735,White,Congruent,b,Green,0,,0,3,825349,,0,0,3,1,3,,,,,,,,,,Pictures\green.bmp,3000,2000,Pictures\black.bmp,,,,,,,,,,,,,StimulusPr,Pictures\right.bmp,CuedStim1,Right
POP_2,16055,1,"<?xml version=""1.0""?>\n<Clock xmlns:dt=""urn:schemas-microsoft-com:datatypes""><Description dt:dt=""string"">E-Prime Primary Realtime Clock</Description><StartTime><Timestamp dt:dt=""int"">0</Timestamp><DateUtc dt:dt=""string"">2014-05-12T20:38:08Z</DateUtc></StartTime><FrequencyChanges><FrequencyChange><Frequency dt:dt=""r8"">2793030000</Frequency><Timestamp dt:dt=""r8"">1.22939914995431E+15</Timestamp><Current dt:dt=""r8"">0</Current><DateUtc dt:dt=""string"">2014-05-12T20:38:08Z</DateUtc></FrequencyChange></FrequencyChanges></Clock>\n",60.034,1,-332443982,0,,-999999,16,65079,t,43929,109008,5/12/2014,13:38:08,8:38:08 PM,2,Session2,SessionsList,0,,-999999,8,751453,t,41893,793346,733412,2,1,2,1,793349,,,,1,1,1,,,,Cued1,MiniBlocks1,,,,,4,1,b,-999999,14,837360,b,354,837714,White,Incongruent,b,Red,0,,0,16,833362,,0,0,4,1,4,,,,,,,,,,Pictures\red.bmp,3000,16000,Pictures\left.bmp,,,,,,,,,,,,,StimulusPr,Pictures\black.bmp,CuedStim1,Left
POP_2,16055,1,"<?xml version=""1.0""?>\n<Clock xmlns:dt=""urn:schemas-microsoft-com:datatypes""><Description dt:dt=""string"">E-Prime Primary Realtime Clock</Description><StartTime><Timestamp dt:dt=""int"">0</Timestamp><DateUtc dt:dt=""string"">2014-05-12T20:38:08Z</DateUtc></StartTime><FrequencyChanges><FrequencyChange><Frequency dt:dt=""r8"">2793030000</Frequency><Timestamp dt:dt=""r8"">1.22939914995431E+15</Timestamp><Current dt:dt=""r8"">0</Current><DateUtc dt:dt=""string"">2014-05-12T20:38:08Z</DateUtc></FrequencyChange></FrequencyChanges></Clock>\n",60.034,1,-332443982,0,,-999999,16,65079,t,43929,109008,5/12/2014,13:38:08,8:38:08 PM,2,Session2,SessionsList,0,,-999999,8,751453,t,41893,793346,733412,2,1,2,1,793349,,,,1,1,1,,,,Cued1,MiniBlocks1,,,,,5,1,r,-999999,14,859349,r,349,859698,White,Congruent,r,Green,0,,0,14,855351,,0,0,5,1,5,,,,,,,,,,Pictures\green.bmp,3000,16000,Pictures\left.bmp,,,,,,,,,,,,,StimulusPr,Pictures\black.bmp,CuedStim1,Left
POP_2,16055,1,"<?xml version=""1.0""?>\n<Clock xmlns:dt=""urn:schemas-microsoft-com:datatypes""><Description dt:dt=""string"">E-Prime Primary Realtime Clock</Description><StartTime><Timestamp dt:dt=""int"">0</Timestamp><DateUtc dt:dt=""string"">2014-05-12T20:38:08Z</DateUtc></StartTime><FrequencyChanges><FrequencyChange><Frequency dt:dt=""r8"">2793030000</Frequency><Timestamp dt:dt=""r8"">1.22939914995431E+15</Timestamp><Current dt:dt=""r8"">0</Current><DateUtc dt:dt=""string"">2014-05-12T20:38:08Z</DateUtc></FrequencyChange></FrequencyChanges></Clock>\n",60.034,1,-332443982,0,,-999999,16,65079,t,43929,109008,5/12/2014,13:38:08,8:38:08 PM,2,Session2,SessionsList,0,,-999999,8,751453,t,41893,793346,733412,2,1,2,1,793349,,,,1,1,1,,,,Cued1,MiniBlocks1,,,,,6,1,r,-999999,6,887352,r,466,887818,White,Congruent,r,Green,0,,0,11,877357,,0,0,6,1,6,,,,,,,,,,Pictures\green.bmp,9000,10000,Pictures\left.bmp,,,,,,,,,,,,,StimulusPr,Pictures\black.bmp,CuedStim1,Left
POP_2,16055,1,"<?xml version=""1.0""?>\n<Clock xmlns:dt=""urn:schemas-microsoft-com:datatypes""><Description dt:dt=""string"">E-Prime Primary Realtime Clock</Description><StartTime><Timestamp dt:dt=""int"">0</Timestamp><DateUtc dt:dt=""string"">2014-05-12T20:38:08Z</DateUtc></StartTime><FrequencyChanges><FrequencyChange><Frequency dt:dt=""r8"">2793030000</Frequency><Timestamp dt:dt=""r8"">1.22939914995431E+15</Timestamp><Current dt:dt=""r8"">0</Current><DateUtc dt:dt=""string"">2014-05-12T20:38:08Z</DateUtc></FrequencyChange></FrequencyChanges></Clock>\n",60.034,1,-332443982,0,,-999999,16,65079,t,43929,109008,5/12/2014,13:38:08,8:38:08 PM,2,Session2,SessionsList,0,,-999999,8,751453,t,41893,793346,733412,2,1,2,1,793349,,,,1,1,1,,,,Cued1,MiniBlocks1,,,,,7,1,b,-999999,14,903360,b,295,903655,White,Congruent,b,Green,0,,0,16,899362,,0,0,7,1,7,,,,,,,,,,Pictures\green.bmp,3000,16000,Pictures\black.bmp,,,,,,,,,,,,,StimulusPr,Pictures\right.bmp,CuedStim1,Right
POP_2,16055,1,"<?xml version=""1.0""?>\n<Clock xmlns:dt=""urn:schemas-microsoft-com:datatypes""><Description dt:dt=""string"">E-Prime Primary Realtime Clock</Description><StartTime><Timestamp dt:dt=""int"">0</Timestamp><DateUtc dt:dt=""string"">2014-05-12T20:38:08Z</DateUtc></StartTime><FrequencyChanges><FrequencyChange><Frequency dt:dt=""r8"">2793030000</Frequency><Timestamp dt:dt=""r8"">1.22939914995431E+15</Timestamp><Current dt:dt=""r8"">0</Current><DateUtc dt:dt=""string"">2014-05-12T20:38:08Z</DateUtc></FrequencyChange></FrequencyChanges></Clock>\n",60.034,1,-332443982,0,,-999999,16,65079,t,43929,109008,5/12/2014,13:38:08,8:38:08 PM,2,Session2,SessionsList,0,,-999999,8,751453,t,41893,793346,733412,2,1,2,1,793349,,,,1,1,1,,,,Cued1,MiniBlocks1,,,,,8,1,r,-999999,2,926349,r,340,926689,White,Incongruent,r,Red,0,,0,4,921351,,0,0,8,1,8,,,,,,,,,,Pictures\red.bmp,4000,2000,Pictures\black.bmp,,,,,,,,,,,,,StimulusPr,Pictures\right.bmp,CuedStim1,Right
POP_2,16055,1,"<?xml version=""1.0""?>\n<Clock xmlns:dt=""urn:schemas-microsoft-com:datatypes""><Description dt:dt=""string"">E-Prime Primary Realtime Clock</Description><StartTime><Timestamp dt:dt=""int"">0</Timestamp><DateUtc dt:dt=""string"">2014-05-12T20:38:08Z</DateUtc></StartTime><FrequencyChanges><FrequencyChange><Frequency dt:dt=""r8"">2793030000</Frequency><Timestamp dt:dt=""r8"">1.22939914995431E+15</Timestamp><Current dt:dt=""r8"">0</Current><DateUtc dt:dt=""string"">2014-05-12T20:38:08Z</DateUtc></FrequencyChange></FrequencyChanges></Clock>\n",60.034,1,-332443982,0,,-999999,16,65079,t,43929,109008,5/12/2014,13:38:08,8:38:08 PM,2,Session2,SessionsList,0,,-999999,8,751453,t,41893,793346,733412,2,1,2,1,793349,,,,1,1,1,,,,Cued1,MiniBlocks1,,,,,9,1,b,-999999,17,935361,b,279,935640,White,Congruent,b,Green,0,,0,18,930364,,0,0,9,1,9,,,,,,,,,,Pictures\green.bmp,4000,2000,Pictures\black.bmp,,,,,,,,,,,,,StimulusPr,Pictures\right.bmp,CuedStim1,Right
POP_2,16055,1,"<?xml version=""1.0""?>\n<Clock xmlns:dt=""urn:schemas-microsoft-com:datatypes""><Description dt:dt=""string"">E-Prime Primary Realtime Clock</Description><StartTime><Timestamp dt:dt=""int"">0</Timestamp><DateUtc dt:dt=""string"">2014-05-12T20:38:08Z</DateUtc></StartTime><FrequencyChanges><FrequencyChange><Frequency dt:dt=""r8"">2793030000</Frequency><Timestamp dt:dt=""r8"">1.22939914995431E+15</Timestamp><Current dt:dt=""r8"">0</Current><DateUtc dt:dt=""string"">2014-05-12T20:38:08Z</DateUtc></FrequencyChange></FrequencyChanges></Clock>\n",60.034,1,-332443982,0,,-999999,16,65079,t,43929,109008,5/12/2014,13:38:08,8:38:08 PM,2,Session2,SessionsList,0,,-999999,8,751453,t,41893,793346,733412,2,1,2,1,793349,,,,1,1,1,,,,Cued1,MiniBlocks1,,,,,10,1,r,-999999,11,943357,r,400,943757,White,Congruent,r,Green,0,,0,7,939342,,0,0,10,1,10,,,,,,,,,,Pictures\green.bmp,3000,2000,Pictures\left.bmp,,,,,,,,,,,,,StimulusPr,Pictures\black.bmp,CuedStim1,Left
POP_2,16055,1,"<?xml version=""1.0""?>\n<Clock xmlns:dt=""urn:schemas-microsoft-com:datatypes""><Description dt:dt=""string"">E-Prime Primary Realtime Clock</Description><StartTime><Timestamp dt:dt=""int"">0</Timestamp><DateUtc dt:dt=""string"">2014-05-12T20:38:08Z</DateUtc></StartTime><FrequencyChanges><FrequencyChange><Frequency dt:dt=""r8"">2793030000</Frequency><Timestamp dt:dt=""r8"">1.22939914995431E+15</Timestamp><Current dt:dt=""r8"">0</Current><DateUtc dt:dt=""string"">2014-05-12T20:38:08Z</DateUtc></FrequencyChange></FrequencyChanges></Clock>\n",60.034,1,-332443982,0,,-999999,16,65079,t,43929,109008,5/12/2014,13:38:08,8:38:08 PM,2,Session2,SessionsList,0,,-999999,8,751453,t,41893,793346,733412,2,1,2,2,,,,,2,1,2,,,,NonCued1,MiniBlocks1,945773,,,,1,1,r,-999999,4,960332,r,627,960959,Green,Congruent,r,White,0,,0,5,955351,,0,0,,,,,,,,,,,,,Pictures\white.bmp,4000,2000,Pictures\GreenLeft.bmp,1,1,1,,,,,,,,,,StimulusPr,Pictures\black.bmp,NonCuedStim1,Left
POP_2,16055,1,"<?xml version=""1.0""?>\n<Clock xmlns:dt=""urn:schemas-microsoft-com:datatypes""><Description dt:dt=""string"">E-Prime Primary Realtime Clock</Description><StartTime><Timestamp dt:dt=""int"">0</Timestamp><DateUtc dt:dt=""string"">2014-05-12T20:38:08Z</DateUtc></StartTime><FrequencyChanges><FrequencyChange><Frequency dt:dt=""r8"">2793030000</Frequency><Timestamp dt:dt=""r8"">1.22939914995431E+15</Timestamp><Current dt:dt=""r8"">0</Current><DateUtc dt:dt=""string"">2014-05-12T20:38:08Z</DateUtc></FrequencyChange></FrequencyChanges></Clock>\n",60.034,1,-332443982,0,,-999999,16,65079,t,43929,109008,5/12/2014,13:38:08,8:38:08 PM,2,Session2,SessionsList,0,,-999999,8,751453,t,41893,793346,733412,2,1,2,2,,,,,2,1,2,,,,NonCued1,MiniBlocks1,945773,,,,2,1,b,-999999,14,971360,b,432,971792,Green,Congruent,b,White,0,,0,17,964363,,0,0,,,,,,,,,,,,,Pictures\white.bmp,6000,16000,Pictures\black.bmp,2,1,2,,,,,,,,,,StimulusPr,Pictures\GreenRight.bmp,NonCuedStim1,Right
POP_2,16055,1,"<?xml version=""1.0""?>\n<Clock xmlns:dt=""urn:schemas-microsoft-com:datatypes""><Description dt:dt=""string"">E-Prime Primary Realtime Clock</Description><StartTime><Timestamp dt:dt=""int"">0</Timestamp><DateUtc dt:dt=""string"">2014-05-12T20:38:08Z</DateUtc></StartTime><FrequencyChanges><FrequencyChange><Frequency dt:dt=""r8"">2793030000</Frequency><Timestamp dt:dt=""r8"">1.22939914995431E+15</Timestamp><Current dt:dt=""r8"">0</Current><DateUtc dt:dt=""string"">2014-05-12T20:38:08Z</DateUtc></FrequencyChange></FrequencyChanges></Clock>\n",60.034,1,-332443982,0,,-999999,16,65079,t,43929,109008,5/12/2014,13:38:08,8:38:08 PM,2,Session2,SessionsList,0,,-999999,8,751453,t,41893,793346,733412,2,1,2,2,,,,,2,1,2,,,,NonCued1,MiniBlocks1,945773,,,,3,1,r,-999999,12,996347,r,482,996829,Red,Incongruent,r,White,0,,0,5,989351,,0,0,,,,,,,,,,,,,Pictures\white.bmp,6000,10000,Pictures\black.bmp,3,1,3,,,,,,,,,,StimulusPr,Pictures\RedRight.bmp,NonCuedStim1,Right
POP_2,16055,1,"<?xml version=""1.0""?>\n<Clock xmlns:dt=""urn:schemas-microsoft-com:datatypes""><Description dt:dt=""string"">E-Prime Primary Realtime Clock</Description><StartTime><Timestamp dt:dt=""int"">0</Timestamp><DateUtc dt:dt=""string"">2014-05-12T20:38:08Z</DateUtc></StartTime><FrequencyChanges><FrequencyChange><Frequency dt:dt=""r8"">2793030000</Frequency><Timestamp dt:dt=""r8"">1.22939914995431E+15</Timestamp><Current dt:dt=""r8"">0</Current><DateUtc dt:dt=""string"">2014-05-12T20:38:08Z</DateUtc></FrequencyChange></FrequencyChanges></Clock>\n",60.034,1,-332443982,0,,-999999,16,65079,t,43929,109008,5/12/2014,13:38:08,8:38:08 PM,2,Session2,SessionsList,0,,-999999,8,751453,t,41893,793346,733412,2,1,2,2,,,,,2,1,2,,,,NonCued1,MiniBlocks1,945773,,,,4,1,r,-999999,7,1018353,r,404,1018757,Green,Congruent,r,White,0,,0,11,1008358,,0,0,,,,,,,,,,,,,Pictures\white.bmp,9000,10000,Pictures\GreenLeft.bmp,4,1,4,,,,,,,,,,StimulusPr,Pictures\black.bmp,NonCuedStim1,Left
POP_2,16055,1,"<?xml version=""1.0""?>\n<Clock xmlns:dt=""urn:schemas-microsoft-com:datatypes""><Description dt:dt=""string"">E-Prime Primary Realtime Clock</Description><StartTime><Timestamp dt:dt=""int"">0</Timestamp><DateUtc dt:dt=""string"">2014-05-12T20:38:08Z</DateUtc></StartTime><FrequencyChanges><FrequencyChange><Frequency dt:dt=""r8"">2793030000</Frequency><Timestamp dt:dt=""r8"">1.22939914995431E+15</Timestamp><Current dt:dt=""r8"">0</Current><DateUtc dt:dt=""string"">2014-05-12T20:38:08Z</DateUtc></FrequencyChange></FrequencyChanges></Clock>\n",60.034,1,-332443982,0,,-999999,16,65079,t,43929,109008,5/12/2014,13:38:08,8:38:08 PM,2,Session2,SessionsList,0,,-999999,8,751453,t,41893,793346,733412,2,1,2,2,,,,,2,1,2,,,,NonCued1,MiniBlocks1,945773,,,,5,1,b,-999999,10,1034345,b,370,1034715,Green,Congruent,b,White,0,,0,12,1030347,,0,0,,,,,,,,,,,,,Pictures\white.bmp,3000,2000,Pictures\black.bmp,5,1,5,,,,,,,,,,StimulusPr,Pictures\GreenRight.bmp,NonCuedStim1,Right
POP_2,16055,1,"<?xml version=""1.0""?>\n<Clock xmlns:dt=""urn:schemas-microsoft-com:datatypes""><Description dt:dt=""string"">E-Prime Primary Realtime Clock</Description><StartTime><Timestamp dt:dt=""int"">0</Timestamp><DateUtc dt:dt=""string"">2014-05-12T20:38:08Z</DateUtc></StartTime><FrequencyChanges><FrequencyChange><Frequency dt:dt=""r8"">2793030000</Frequency><Timestamp dt:dt=""r8"">1.22939914995431E+15</Timestamp><Current dt:dt=""r8"">0</Current><DateUtc dt:dt=""string"">2014-05-12T20:38:08Z</DateUtc></FrequencyChange></FrequencyChanges></Clock>\n",60.034,1,-332443982,0,,-999999,16,65079,t,43929,109008,5/12/2014,13:38:08,8:38:08 PM,2,Session2,SessionsList,0,,-999999,8,751453,t,41893,793346,733412,2,1,2,2,,,,,2,1,2,,,,NonCued1,MiniBlocks1,945773,,,,6,1,b,-999999,9,1043341,b,576,1043917,Red,Incongruent,b,White,0,,0,14,1038360,,0,0,,,,,,,,,,,,,Pictures\white.bmp,4000,16000,Pictures\RedLeft.bmp,6,1,6,,,,,,,,,,StimulusPr,Pictures\black.bmp,NonCuedStim1,Left
POP_2,16055,1,"<?xml version=""1.0""?>\n<Clock xmlns:dt=""urn:schemas-microsoft-com:datatypes""><Description dt:dt=""string"">E-Prime Primary Realtime Clock</Description><StartTime><Timestamp dt:dt=""int"">0</Timestamp><DateUtc dt:dt=""string"">2014-05-12T20:38:08Z</DateUtc></StartTime><FrequencyChanges><FrequencyChange><Frequency dt:dt=""r8"">2793030000</Frequency><Timestamp dt:dt=""r8"">1.22939914995431E+15</Timestamp><Current dt:dt=""r8"">0</Current><DateUtc dt:dt=""string"">2014-05-12T20:38:08Z</DateUtc></FrequencyChange></FrequencyChanges></Clock>\n",60.034,1,-332443982,0,,-999999,16,65079,t,43929,109008,5/12/2014,13:38:08,8:38:08 PM,2,Session2,SessionsList,0,,-999999,8,751453,t,41893,793346,733412,2,1,2,2,,,,,2,1,2,,,,NonCued1,MiniBlocks1,945773,,,,7,1,b,-999999,17,1065363,b,419,1065782,Green,Congruent,b,White,0,,0,2,1061348,,0,0,,,,,,,,,,,,,Pictures\white.bmp,3000,4000,Pictures\black.bmp,7,1,7,,,,,,,,,,StimulusPr,Pictures\GreenRight.bmp,NonCuedStim1,Right
POP_2,16055,1,"<?xml version=""1.0""?>\n<Clock xmlns:dt=""urn:schemas-microsoft-com:datatypes""><Description dt:dt=""string"">E-Prime Primary Realtime Clock</Description><StartTime><Timestamp dt:dt=""int"">0</Timestamp><DateUtc dt:dt=""string"">2014-05-12T20:38:08Z</DateUtc></StartTime><FrequencyChanges><FrequencyChange><Frequency dt:dt=""r8"">2793030000</Frequency><Timestamp dt:dt=""r8"">1.22939914995431E+15</Timestamp><Current dt:dt=""r8"">0</Current><DateUtc dt:dt=""string"">2014-05-12T20:38:08Z</DateUtc></FrequencyChange></FrequencyChanges></Clock>\n",60.034,1,-332443982,0,,-999999,16,65079,t,43929,109008,5/12/2014,13:38:08,8:38:08 PM,2,Session2,SessionsList,0,,-999999,8,751453,t,41893,793346,733412,2,1,2,2,,,,,2,1,2,,,,NonCued1,MiniBlocks1,945773,,,,8,1,b,-999999,12,1075358,b,356,1075714,Green,Congruent,b,White,0,,0,14,1071360,,0,0,,,,,,,,,,,,,Pictures\white.bmp,3000,4000,Pictures\black.bmp,8,1,8,,,,,,,,,,StimulusPr,Pictures\GreenRight.bmp,NonCuedStim1,Right
POP_2,16055,1,"<?xml version=""1.0""?>\n<Clock xmlns:dt=""urn:schemas-microsoft-com:datatypes""><Description dt:dt=""string"">E-Prime Primary Realtime Clock</Description><StartTime><Timestamp dt:dt=""int"">0</Timestamp><DateUtc dt:dt=""string"">2014-05-12T20:38:08Z</DateUtc></StartTime><FrequencyChanges><FrequencyChange><Frequency dt:dt=""r8"">2793030000</Frequency><Timestamp dt:dt=""r8"">1.22939914995431E+15</Timestamp><Current dt:dt=""r8"">0</Current><DateUtc dt:dt=""string"">2014-05-12T20:38:08Z</DateUtc></FrequencyChange></FrequencyChanges></Clock>\n",60.034,1,-332443982,0,,-999999,16,65079,t,43929,109008,5/12/2014,13:38:08,8:38:08 PM,2,Session2,SessionsList,0,,-999999,8,751453,t,41893,793346,733412,2,1,2,2,,,,,2,1,2,,,,NonCued1,MiniBlocks1,945773,,,,9,1,b,-999999,3,1091350,b,384,1091734,Red,Incongruent,b,White,0,,0,8,1081355,,0,0,,,,,,,,,,,,,Pictures\white.bmp,9000,2000,Pictures\RedLeft.bmp,9,1,9,,,,,,,,,,StimulusPr,Pictures\black.bmp,NonCuedStim1,Left
POP_2,16055,1,"<?xml version=""1.0""?>\n<Clock xmlns:dt=""urn:schemas-microsoft-com:datatypes""><Description dt:dt=""string"">E-Prime Primary Realtime Clock</Description><StartTime><Timestamp dt:dt=""int"">0</Timestamp><DateUtc dt:dt=""string"">2014-05-12T20:38:08Z</DateUtc></StartTime><FrequencyChanges><FrequencyChange><Frequency dt:dt=""r8"">2793030000</Frequency><Timestamp dt:dt=""r8"">1.22939914995431E+15</Timestamp><Current dt:dt=""r8"">0</Current><DateUtc dt:dt=""string"">2014-05-12T20:38:08Z</DateUtc></FrequencyChange></FrequencyChanges></Clock>\n",60.034,1,-332443982,0,,-999999,16,65079,t,43929,109008,5/12/2014,13:38:08,8:38:08 PM,2,Session2,SessionsList,0,,-999999,8,751453,t,41893,793346,733412,2,1,2,2,,,,,2,1,2,,,,NonCued1,MiniBlocks1,945773,,,,10,1,r,-999999,14,1102361,r,486,1102847,Green,Congruent,r,White,0,,0,6,1095348,,0,0,,,,,,,,,,,,,Pictures\white.bmp,6000,2000,Pictures\GreenLeft.bmp,10,1,10,,,,,,,,,,StimulusPr,Pictures\black.bmp,NonCuedStim1,Left
POP_2,16055,1,"<?xml version=""1.0""?>\n<Clock xmlns:dt=""urn:schemas-microsoft-com:datatypes""><Description dt:dt=""string"">E-Prime Primary Realtime Clock</Description><StartTime><Timestamp dt:dt=""int"">0</Timestamp><DateUtc dt:dt=""string"">2014-05-12T20:38:08Z</DateUtc></StartTime><FrequencyChanges><FrequencyChange><Frequency dt:dt=""r8"">2793030000</Frequency><Timestamp dt:dt=""r8"">1.22939914995431E+15</Timestamp><Current dt:dt=""r8"">0</Current><DateUtc dt:dt=""string"">2014-05-12T20:38:08Z</DateUtc></FrequencyChange></FrequencyChanges></Clock>\n",60.034,1,-332443982,0,,-999999,16,65079,t,43929,109008,5/12/2014,13:38:08,8:38:08 PM,2,Session2,SessionsList,0,,-999999,8,751453,t,41893,793346,733412,2,1,2,3,,,,,3,1,3,,,,NonCued2,MiniBlocks1,,1104876,,,1,1,b,-999999,4,1125350,b,361,1125711,Green,Congruent,b,White,0,,0,8,1115355,,0,0,,,,,,,,,,,,,Pictures\white.bmp,9000,10000,Pictures\black.bmp,,,,1,1,1,,,,,,,StimulusPr,Pictures\GreenRight.bmp,NonCuedStim2,Right
POP_2,16055,1,"<?xml version=""1.0""?>\n<Clock xmlns:dt=""urn:schemas-microsoft-com:datatypes""><Description dt:dt=""string"">E-Prime Primary Realtime Clock</Description><StartTime><Timestamp dt:dt=""int"">0</Timestamp><DateUtc dt:dt=""string"">2014-05-12T20:38:08Z</DateUtc></StartTime><FrequencyChanges><FrequencyChange><Frequency dt:dt=""r8"">2793030000</Frequency><Timestamp dt:dt=""r8"">1.22939914995431E+15</Timestamp><Current dt:dt=""r8"">0</Current><DateUtc dt:dt=""string"">2014-05-12T20:38:08Z</DateUtc></FrequencyChange></FrequencyChanges></Clock>\n",60.034,1,-332443982,0,,-999999,16,65079,t,43929,109008,5/12/2014,13:38:08,8:38:08 PM,2,Session2,SessionsList,0,,-999999,8,751453,t,41893,793346,733412,2,1,2,3,,,,,3,1,3,,,,NonCued2,MiniBlocks1,,1104876,,,2,1,r,-999999,13,1141342,r,426,1141768,Green,Congruent,r,White,0,,0,14,1137360,,0,0,,,,,,,,,,,,,Pictures\white.bmp,3000,2000,Pictures\GreenLeft.bmp,,,,2,1,2,,,,,,,StimulusPr,Pictures\black.bmp,NonCuedStim2,Left
POP_2,16055,1,"<?xml version=""1.0""?>\n<Clock xmlns:dt=""urn:schemas-microsoft-com:datatypes""><Description dt:dt=""string"">E-Prime Primary Realtime Clock</Description><StartTime><Timestamp dt:dt=""int"">0</Timestamp><DateUtc dt:dt=""string"">2014-05-12T20:38:08Z</DateUtc></StartTime><FrequencyChanges><FrequencyChange><Frequency dt:dt=""r8"">2793030000</Frequency><Timestamp dt:dt=""r8"">1.22939914995431E+15</Timestamp><Current dt:dt=""r8"">0</Current><DateUtc dt:dt=""string"">2014-05-12T20:38:08Z</DateUtc></FrequencyChange></FrequencyChanges></Clock>\n",60.034,1,-332443982,0,,-999999,16,65079,t,43929,109008,5/12/2014,13:38:08,8:38:08 PM,2,Session2,SessionsList,0,,-999999,8,751453,t,41893,793346,733412,2,1,2,3,,,,,3,1,3,,,,NonCued2,MiniBlocks1,,1104876,,,3,1,r,-999999,8,1149354,r,452,1149806,Red,Incongruent,r,White,0,,0,10,1145356,,0,0,,,,,,,,,,,,,Pictures\white.bmp,3000,2000,Pictures\black.bmp,,,,3,1,3,,,,,,,StimulusPr,Pictures\RedRight.bmp,NonCuedStim2,Right
POP_2,16055,1,"<?xml version=""1.0""?>\n<Clock xmlns:dt=""urn:schemas-microsoft-com:datatypes""><Description dt:dt=""string"">E-Prime Primary Realtime Clock</Description><StartTime><Timestamp dt:dt=""int"">0</Timestamp><DateUtc dt:dt=""string"">2014-05-12T20:38:08Z</DateUtc></StartTime><FrequencyChanges><FrequencyChange><Frequency dt:dt=""r8"">2793030000</Frequency><Timestamp dt:dt=""r8"">1.22939914995431E+15</Timestamp><Current dt:dt=""r8"">0</Current><DateUtc dt:dt=""string"">2014-05-12T20:38:08Z</DateUtc></FrequencyChange></FrequencyChanges></Clock>\n",60.034,1,-332443982,0,,-999999,16,65079,t,43929,109008,5/12/2014,13:38:08,8:38:08 PM,2,Session2,SessionsList,0,,-999999,8,751453,t,41893,793346,733412,2,1,2,3,,,,,3,1,3,,,,NonCued2,MiniBlocks1,,1104876,,,4,1,r,-999999,4,1158350,r,465,1158815,Green,Congruent,r,White,0,,0,6,1153352,,0,0,,,,,,,,,,,,,Pictures\white.bmp,4000,16000,Pictures\GreenLeft.bmp,,,,4,1,4,,,,,,,StimulusPr,Pictures\black.bmp,NonCuedStim2,Left
POP_2,16055,1,"<?xml version=""1.0""?>\n<Clock xmlns:dt=""urn:schemas-microsoft-com:datatypes""><Description dt:dt=""string"">E-Prime Primary Realtime Clock</Description><StartTime><Timestamp dt:dt=""int"">0</Timestamp><DateUtc dt:dt=""string"">2014-05-12T20:38:08Z</DateUtc></StartTime><FrequencyChanges><FrequencyChange><Frequency dt:dt=""r8"">2793030000</Frequency><Timestamp dt:dt=""r8"">1.22939914995431E+15</Timestamp><Current dt:dt=""r8"">0</Current><DateUtc dt:dt=""string"">2014-05-12T20:38:08Z</DateUtc></FrequencyChange></FrequencyChanges></Clock>\n",60.034,1,-332443982,0,,-999999,16,65079,t,43929,109008,5/12/2014,13:38:08,8:38:08 PM,2,Session2,SessionsList,0,,-999999,8,751453,t,41893,793346,733412,2,1,2,3,,,,,3,1,3,,,,NonCued2,MiniBlocks1,,1104876,,,5,1,r,-999999,7,1183354,r,438,1183792,Green,Congruent,r,White,0,,0,4,1176341,,0,0,,,,,,,,,,,,,Pictures\white.bmp,6000,4000,Pictures\GreenLeft.bmp,,,,5,1,5,,,,,,,StimulusPr,Pictures\black.bmp,NonCuedStim2,Left
POP_2,16055,1,"<?xml version=""1.0""?>\n<Clock xmlns:dt=""urn:schemas-microsoft-com:datatypes""><Description dt:dt=""string"">E-Prime Primary Realtime Clock</Description><StartTime><Timestamp dt:dt=""int"">0</Timestamp><DateUtc dt:dt=""string"">2014-05-12T20:38:08Z</DateUtc></StartTime><FrequencyChanges><FrequencyChange><Frequency dt:dt=""r8"">2793030000</Frequency><Timestamp dt:dt=""r8"">1.22939914995431E+15</Timestamp><Current dt:dt=""r8"">0</Current><DateUtc dt:dt=""string"">2014-05-12T20:38:08Z</DateUtc></FrequencyChange></FrequencyChanges></Clock>\n",60.034,1,-332443982,0,,-999999,16,65079,t,43929,109008,5/12/2014,13:38:08,8:38:08 PM,2,Session2,SessionsList,0,,-999999,8,751453,t,41893,793346,733412,2,1,2,3,,,,,3,1,3,,,,NonCued2,MiniBlocks1,,1104876,,,6,1,b,-999999,16,1193349,b,465,1193814,Red,Incongruent,b,White,0,,0,17,1189351,,0,0,,,,,,,,,,,,,Pictures\white.bmp,3000,4000,Pictures\RedLeft.bmp,,,,6,1,6,,,,,,,StimulusPr,Pictures\black.bmp,NonCuedStim2,Left
POP_2,16055,1,"<?xml version=""1.0""?>\n<Clock xmlns:dt=""urn:schemas-microsoft-com:datatypes""><Description dt:dt=""string"">E-Prime Primary Realtime Clock</Description><StartTime><Timestamp dt:dt=""int"">0</Timestamp><DateUtc dt:dt=""string"">2014-05-12T20:38:08Z</DateUtc></StartTime><FrequencyChanges><FrequencyChange><Frequency dt:dt=""r8"">2793030000</Frequency><Timestamp dt:dt=""r8"">1.22939914995431E+15</Timestamp><Current dt:dt=""r8"">0</Current><DateUtc dt:dt=""string"">2014-05-12T20:38:08Z</DateUtc></FrequencyChange></FrequencyChanges></Clock>\n",60.034,1,-332443982,0,,-999999,16,65079,t,43929,109008,5/12/2014,13:38:08,8:38:08 PM,2,Session2,SessionsList,0,,-999999,8,751453,t,41893,793346,733412,2,1,2,3,,,,,3,1,3,,,,NonCued2,MiniBlocks1,,1104876,,,7,1,b,-999999,13,1204360,b,353,1204713,Green,Congruent,b,White,0,,0,16,1199363,,0,0,,,,,,,,,,,,,Pictures\white.bmp,4000,16000,Pictures\black.bmp,,,,7,1,7,,,,,,,StimulusPr,Pictures\GreenRight.bmp,NonCuedStim2,Right
POP_2,16055,1,"<?xml version=""1.0""?>\n<Clock xmlns:dt=""urn:schemas-microsoft-com:datatypes""><Description dt:dt=""string"">E-Prime Primary Realtime Clock</Description><StartTime><Timestamp dt:dt=""int"">0</Timestamp><DateUtc dt:dt=""string"">2014-05-12T20:38:08Z</DateUtc></StartTime><FrequencyChanges><FrequencyChange><Frequency dt:dt=""r8"">2793030000</Frequency><Timestamp dt:dt=""r8"">1.22939914995431E+15</Timestamp><Current dt:dt=""r8"">0</Current><DateUtc dt:dt=""string"">2014-05-12T20:38:08Z</DateUtc></FrequencyChange></FrequencyChanges></Clock>\n",60.034,1,-332443982,0,,-999999,16,65079,t,43929,109008,5/12/2014,13:38:08,8:38:08 PM,2,Session2,SessionsList,0,,-999999,8,751453,t,41893,793346,733412,2,1,2,3,,,,,3,1,3,,,,NonCued2,MiniBlocks1,,1104876,,,8,1,r,-999999,17,1232363,r,379,1232742,Green,Congruent,r,White,0,,0,5,1222351,,0,0,,,,,,,,,,,,,Pictures\white.bmp,9000,2000,Pictures\GreenLeft.bmp,,,,8,1,8,,,,,,,StimulusPr,Pictures\black.bmp,NonCuedStim2,Left
POP_2,16055,1,"<?xml version=""1.0""?>\n<Clock xmlns:dt=""urn:schemas-microsoft-com:datatypes""><Description dt:dt=""string"">E-Prime Primary Realtime Clock</Description><StartTime><Timestamp dt:dt=""int"">0</Timestamp><DateUtc dt:dt=""string"">2014-05-12T20:38:08Z</DateUtc></StartTime><FrequencyChanges><FrequencyChange><Frequency dt:dt=""r8"">2793030000</Frequency><Timestamp dt:dt=""r8"">1.22939914995431E+15</Timestamp><Current dt:dt=""r8"">0</Current><DateUtc dt:dt=""string"">2014-05-12T20:38:08Z</DateUtc></FrequencyChange></FrequencyChanges></Clock>\n",60.034,1,-332443982,0,,-999999,16,65079,t,43929,109008,5/12/2014,13:38:08,8:38:08 PM,2,Session2,SessionsList,0,,-999999,8,751453,t,41893,793346,733412,2,1,2,3,,,,,3,1,3,,,,NonCued2,MiniBlocks1,,1104876,,,9,1,b,-999999,13,1240359,b,360,1240719,Green,Congruent,b,White,0,,0,15,1236361,,0,0,,,,,,,,,,,,,Pictures\white.bmp,3000,10000,Pictures\black.bmp,,,,9,1,9,,,,,,,StimulusPr,Pictures\GreenRight.bmp,NonCuedStim2,Right
POP_2,16055,1,"<?xml version=""1.0""?>\n<Clock xmlns:dt=""urn:schemas-microsoft-com:datatypes""><Description dt:dt=""string"">E-Prime Primary Realtime Clock</Description><StartTime><Timestamp dt:dt=""int"">0</Timestamp><DateUtc dt:dt=""string"">2014-05-12T20:38:08Z</DateUtc></StartTime><FrequencyChanges><FrequencyChange><Frequency dt:dt=""r8"">2793030000</Frequency><Timestamp dt:dt=""r8"">1.22939914995431E+15</Timestamp><Current dt:dt=""r8"">0</Current><DateUtc dt:dt=""string"">2014-05-12T20:38:08Z</DateUtc></FrequencyChange></FrequencyChanges></Clock>\n",60.034,1,-332443982,0,,-999999,16,65079,t,43929,109008,5/12/2014,13:38:08,8:38:08 PM,2,Session2,SessionsList,0,,-999999,8,751453,t,41893,793346,733412,2,1,2,3,,,,,3,1,3,,,,NonCued2,MiniBlocks1,,1104876,,,10,1,b,-999999,4,1256351,b,335,1256686,Green,Congruent,b,White,0,,0,7,1252353,,0,0,,,,,,,,,,,,,Pictures\white.bmp,3000,2000,Pictures\black.bmp,,,,10,1,10,,,,,,,StimulusPr,Pictures\GreenRight.bmp,NonCuedStim2,Right
POP_2,16055,1,"<?xml version=""1.0""?>\n<Clock xmlns:dt=""urn:schemas-microsoft-com:datatypes""><Description dt:dt=""string"">E-Prime Primary Realtime Clock</Description><StartTime><Timestamp dt:dt=""int"">0</Timestamp><DateUtc dt:dt=""string"">2014-05-12T20:38:08Z</DateUtc></StartTime><FrequencyChanges><FrequencyChange><Frequency dt:dt=""r8"">2793030000</Frequency><Timestamp dt:dt=""r8"">1.22939914995431E+15</Timestamp><Current dt:dt=""r8"">0</Current><DateUtc dt:dt=""string"">2014-05-12T20:38:08Z</DateUtc></FrequencyChange></FrequencyChanges></Clock>\n",60.034,1,-332443982,0,,-999999,16,65079,t,43929,109008,5/12/2014,13:38:08,8:38:08 PM,2,Session2,SessionsList,0,,-999999,8,751453,t,41893,793346,733412,2,1,2,4,,1258716,,,4,1,4,,,,Cued2,MiniBlocks1,,,,,1,1,b,-999999,6,1275341,b,264,1275605,White,Congruent,b,Green,0,,0,14,1268361,,0,0,,,,1,1,1,,,,,,,Pictures\green.bmp,6000,4000,Pictures\black.bmp,,,,,,,,,,,,,StimulusPr,Pictures\right.bmp,CuedStim2,Right
POP_2,16055,1,"<?xml version=""1.0""?>\n<Clock xmlns:dt=""urn:schemas-microsoft-com:datatypes""><Description dt:dt=""string"">E-Prime Primary Realtime Clock</Description><StartTime><Timestamp dt:dt=""int"">0</Timestamp><DateUtc dt:dt=""string"">2014-05-12T20:38:08Z</DateUtc></StartTime><FrequencyChanges><FrequencyChange><Frequency dt:dt=""r8"">2793030000</Frequency><Timestamp dt:dt=""r8"">1.22939914995431E+15</Timestamp><Current dt:dt=""r8"">0</Current><DateUtc dt:dt=""string"">2014-05-12T20:38:08Z</DateUtc></FrequencyChange></FrequencyChanges></Clock>\n",60.034,1,-332443982,0,,-999999,16,65079,t,43929,109008,5/12/2014,13:38:08,8:38:08 PM,2,Session2,SessionsList,0,,-999999,8,751453,t,41893,793346,733412,2,1,2,4,,1258716,,,4,1,4,,,,Cued2,MiniBlocks1,,,,,2,1,b,-999999,3,1291350,b,257,1291607,White,Congruent,b,Green,0,,0,8,1281355,,0,0,,,,2,1,2,,,,,,,Pictures\green.bmp,9000,10000,Pictures\black.bmp,,,,,,,,,,,,,StimulusPr,Pictures\right.bmp,CuedStim2,Right
POP_2,16055,1,"<?xml version=""1.0""?>\n<Clock xmlns:dt=""urn:schemas-microsoft-com:datatypes""><Description dt:dt=""string"">E-Prime Primary Realtime Clock</Description><StartTime><Timestamp dt:dt=""int"">0</Timestamp><DateUtc dt:dt=""string"">2014-05-12T20:38:08Z</DateUtc></StartTime><FrequencyChanges><FrequencyChange><Frequency dt:dt=""r8"">2793030000</Frequency><Timestamp dt:dt=""r8"">1.22939914995431E+15</Timestamp><Current dt:dt=""r8"">0</Current><DateUtc dt:dt=""string"">2014-05-12T20:38:08Z</DateUtc></FrequencyChange></FrequencyChanges></Clock>\n",60.034,1,-332443982,0,,-999999,16,65079,t,43929,109008,5/12/2014,13:38:08,8:38:08 PM,2,Session2,SessionsList,0,,-999999,8,751453,t,41893,793346,733412,2,1,2,4,,1258716,,,4,1,4,,,,Cued2,MiniBlocks1,,,,,3,1,r,-999999,12,1307359,r,335,1307694,White,Incongruent,r,Red,0,,0,15,1303361,,0,0,,,,3,1,3,,,,,,,Pictures\red.bmp,3000,2000,Pictures\black.bmp,,,,,,,,,,,,,StimulusPr,Pictures\right.bmp,CuedStim2,Right
POP_2,16055,1,"<?xml version=""1.0""?>\n<Clock xmlns:dt=""urn:schemas-microsoft-com:datatypes""><Description dt:dt=""string"">E-Prime Primary Realtime Clock</Description><StartTime><Timestamp dt:dt=""int"">0</Timestamp><DateUtc dt:dt=""string"">2014-05-12T20:38:08Z</DateUtc></StartTime><FrequencyChanges><FrequencyChange><Frequency dt:dt=""r8"">2793030000</Frequency><Timestamp dt:dt=""r8"">1.22939914995431E+15</Timestamp><Current dt:dt=""r8"">0</Current><DateUtc dt:dt=""string"">2014-05-12T20:38:08Z</DateUtc></FrequencyChange></FrequencyChanges></Clock>\n",60.034,1,-332443982,0,,-999999,16,65079,t,43929,109008,5/12/2014,13:38:08,8:38:08 PM,2,Session2,SessionsList,0,,-999999,8,751453,t,41893,793346,733412,2,1,2,4,,1258716,,,4,1,4,,,,Cued2,MiniBlocks1,,,,,4,1,r,-999999,7,1318353,r,343,1318696,White,Congruent,r,Green,0,,0,11,1311357,,0,0,,,,4,1,4,,,,,,,Pictures\green.bmp,6000,16000,Pictures\left.bmp,,,,,,,,,,,,,StimulusPr,Pictures\black.bmp,CuedStim2,Left
POP_2,16055,1,"<?xml version=""1.0""?>\n<Clock xmlns:dt=""urn:schemas-microsoft-com:datatypes""><Description dt:dt=""string"">E-Prime Primary Realtime Clock</Description><StartTime><Timestamp dt:dt=""int"">0</Timestamp><DateUtc dt:dt=""string"">2014-05-12T20:38:08Z</DateUtc></StartTime><FrequencyChanges><FrequencyChange><Frequency dt:dt=""r8"">2793030000</Frequency><Timestamp dt:dt=""r8"">1.22939914995431E+15</Timestamp><Current dt:dt=""r8"">0</Current><DateUtc dt:dt=""string"">2014-05-12T20:38:08Z</DateUtc></FrequencyChange></FrequencyChanges></Clock>\n",60.034,1,-332443982,0,,-999999,16,65079,t,43929,109008,5/12/2014,13:38:08,8:38:08 PM,2,Session2,SessionsList,0,,-999999,8,751453,t,41893,793346,733412,2,1,2,4,,1258716,,,4,1,4,,,,Cued2,MiniBlocks1,,,,,5,1,b,-999999,7,1340342,b,298,1340640,White,Congruent,b,Green,0,,0,9,1336344,,0,0,,,,5,1,5,,,,,,,Pictures\green.bmp,3000,2000,Pictures\black.bmp,,,,,,,,,,,,,StimulusPr,Pictures\right.bmp,CuedStim2,Right
POP_2,16055,1,"<?xml version=""1.0""?>\n<Clock xmlns:dt=""urn:schemas-microsoft-com:datatypes""><Description dt:dt=""string"">E-Prime Primary Realtime Clock</Description><StartTime><Timestamp dt:dt=""int"">0</Timestamp><DateUtc dt:dt=""string"">2014-05-12T20:38:08Z</DateUtc></StartTime><FrequencyChanges><FrequencyChange><Frequency dt:dt=""r8"">2793030000</Frequency><Timestamp dt:dt=""r8"">1.22939914995431E+15</Timestamp><Current dt:dt=""r8"">0</Current><DateUtc dt:dt=""string"">2014-05-12T20:38:08Z</DateUtc></FrequencyChange></FrequencyChanges></Clock>\n",60.034,1,-332443982,0,,-999999,16,65079,t,43929,109008,5/12/2014,13:38:08,8:38:08 PM,2,Session2,SessionsList,0,,-999999,8,751453,t,41893,793346,733412,2,1,2,4,,1258716,,,4,1,4,,,,Cued2,MiniBlocks1,,,,,6,1,r,-999999,8,1348355,r,312,1348667,White,Congruent,r,Green,0,,0,5,1344340,,0,0,,,,6,1,6,,,,,,,Pictures\green.bmp,3000,2000,Pictures\left.bmp,,,,,,,,,,,,,StimulusPr,Pictures\black.bmp,CuedStim2,Left
POP_2,16055,1,"<?xml version=""1.0""?>\n<Clock xmlns:dt=""urn:schemas-microsoft-com:datatypes""><Description dt:dt=""string"">E-Prime Primary Realtime Clock</Description><StartTime><Timestamp dt:dt=""int"">0</Timestamp><DateUtc dt:dt=""string"">2014-05-12T20:38:08Z</DateUtc></StartTime><FrequencyChanges><FrequencyChange><Frequency dt:dt=""r8"">2793030000</Frequency><Timestamp dt:dt=""r8"">1.22939914995431E+15</Timestamp><Current dt:dt=""r8"">0</Current><DateUtc dt:dt=""string"">2014-05-12T20:38:08Z</DateUtc></FrequencyChange></FrequencyChanges></Clock>\n",60.034,1,-332443982,0,,-999999,16,65079,t,43929,109008,5/12/2014,13:38:08,8:38:08 PM,2,Session2,SessionsList,0,,-999999,8,751453,t,41893,793346,733412,2,1,2,4,,1258716,,,4,1,4,,,,Cued2,MiniBlocks1,,,,,7,1,b,-999999,2,1359349,b,408,1359757,White,Incongruent,b,Red,0,,0,6,1352353,,0,0,,,,7,1,7,,,,,,,Pictures\red.bmp,6000,4000,Pictures\left.bmp,,,,,,,,,,,,,StimulusPr,Pictures\black.bmp,CuedStim2,Left
POP_2,16055,1,"<?xml version=""1.0""?>\n<Clock xmlns:dt=""urn:schemas-microsoft-com:datatypes""><Description dt:dt=""string"">E-Prime Primary Realtime Clock</Description><StartTime><Timestamp dt:dt=""int"">0</Timestamp><DateUtc dt:dt=""string"">2014-05-12T20:38:08Z</DateUtc></StartTime><FrequencyChanges><FrequencyChange><Frequency dt:dt=""r8"">2793030000</Frequency><Timestamp dt:dt=""r8"">1.22939914995431E+15</Timestamp><Current dt:dt=""r8"">0</Current><DateUtc dt:dt=""string"">2014-05-12T20:38:08Z</DateUtc></FrequencyChange></FrequencyChanges></Clock>\n",60.034,1,-332443982,0,,-999999,16,65079,t,43929,109008,5/12/2014,13:38:08,8:38:08 PM,2,Session2,SessionsList,0,,-999999,8,751453,t,41893,793346,733412,2,1,2,4,,1258716,,,4,1,4,,,,Cued2,MiniBlocks1,,,,,8,1,b,-999999,14,1370361,b,236,1370597,White,Congruent,b,Green,0,,0,16,1365363,,0,0,,,,8,1,8,,,,,,,Pictures\green.bmp,4000,4000,Pictures\black.bmp,,,,,,,,,,,,,StimulusPr,Pictures\right.bmp,CuedStim2,Right
POP_2,16055,1,"<?xml version=""1.0""?>\n<Clock xmlns:dt=""urn:schemas-microsoft-com:datatypes""><Description dt:dt=""string"">E-Prime Primary Realtime Clock</Description><StartTime><Timestamp dt:dt=""int"">0</Timestamp><DateUtc dt:dt=""string"">2014-05-12T20:38:08Z</DateUtc></StartTime><FrequencyChanges><FrequencyChange><Frequency dt:dt=""r8"">2793030000</Frequency><Timestamp dt:dt=""r8"">1.22939914995431E+15</Timestamp><Current dt:dt=""r8"">0</Current><DateUtc dt:dt=""string"">2014-05-12T20:38:08Z</DateUtc></FrequencyChange></FrequencyChanges></Clock>\n",60.034,1,-332443982,0,,-999999,16,65079,t,43929,109008,5/12/2014,13:38:08,8:38:08 PM,2,Session2,SessionsList,0,,-999999,8,751453,t,41893,793346,733412,2,1,2,4,,1258716,,,4,1,4,,,,Cued2,MiniBlocks1,,,,,9,1,b,-999999,6,1386353,b,336,1386689,White,Incongruent,b,Red,0,,0,11,1376358,,0,0,,,,9,1,9,,,,,,,Pictures\red.bmp,9000,10000,Pictures\left.bmp,,,,,,,,,,,,,StimulusPr,Pictures\black.bmp,CuedStim2,Left
POP_2,16055,1,"<?xml version=""1.0""?>\n<Clock xmlns:dt=""urn:schemas-microsoft-com:datatypes""><Description dt:dt=""string"">E-Prime Primary Realtime Clock</Description><StartTime><Timestamp dt:dt=""int"">0</Timestamp><DateUtc dt:dt=""string"">2014-05-12T20:38:08Z</DateUtc></StartTime><FrequencyChanges><FrequencyChange><Frequency dt:dt=""r8"">2793030000</Frequency><Timestamp dt:dt=""r8"">1.22939914995431E+15</Timestamp><Current dt:dt=""r8"">0</Current><DateUtc dt:dt=""string"">2014-05-12T20:38:08Z</DateUtc></FrequencyChange></FrequencyChanges></Clock>\n",60.034,1,-332443982,0,,-999999,16,65079,t,43929,109008,5/12/2014,13:38:08,8:38:08 PM,2,Session2,SessionsList,0,,-999999,8,751453,t,41893,793346,733412,2,1,2,4,,1258716,,,4,1,4,,,,Cued2,MiniBlocks1,,,,,10,1,r,-999999,12,1408358,r,336,1408694,White,Congruent,r,Green,0,,0,3,1398330,,0,0,,,,10,1,10,,,,,,,Pictures\green.bmp,9000,10000,Pictures\left.bmp,,,,,,,,,,,,,StimulusPr,Pictures\black.bmp,CuedStim2,Left
