ExperimentName,Subject,Session,Clock.Information,Display.RefreshRate,Group,RandomSeed,Session1Onset.ACC,Session1Onset.CRESP,Session1Onset.DurationError,Session1Onset.OnsetDelay,Session1Onset.OnsetTime,Session1Onset.RESP,Session1Onset.RT,Session1Onset.RTTime,SessionDate,SessionTime,SessionTimeUtc,Block,Procedure[Block],Running[Block],Session2Onset.ACC,Session2Onset.CRESP,Session2Onset.DurationError,Session2Onset.OnsetDelay,Session2Onset.OnsetTime,Session2Onset.RESP,Session2Onset.RT,Session2Onset.RTTime,SessionBreak.OnsetTime,SessionsList,SessionsList.Cycle,SessionsList.Sample,Trial,CuedPrompt1.OnsetTime,CuedPrompt2.OnsetTime,CuedPrompt3.OnsetTime,CuedPrompt4.OnsetTime,MiniBlocks1,MiniBlocks1.Cycle,MiniBlocks1.Sample,MiniBlocks2,MiniBlocks2.Cycle,MiniBlocks2.Sample,Procedure[Trial],Running[Trial],UncuedPrompt1.OnsetTime,UncuedPrompt2.OnsetTime,UncuedPrompt3.OnsetTime,UncuedPrompt4.OnsetTime,SubTrial,Arrow1.ACC,Arrow1.CRESP,Arrow1.DurationError,Arrow1.OnsetDelay,Arrow1.OnsetTime,Arrow1.RESP,Arrow1.RT,Arrow1.RTTime,ArrowColor,Congruence,CorrectResp,Cue,Cue.ACC,Cue.CRESP,Cue.DurationError,Cue.OnsetDelay,Cue.OnsetTime,Cue.RESP,Cue.RT,Cue.RTTime,CuedStim1,CuedStim1.Cycle,CuedStim1.Sample,CuedStim2,CuedStim2.Cycle,CuedStim2.Sample,CuedStim3,CuedStim3.Cycle,CuedStim3.Sample,CuedStim4,CuedStim4.Cycle,CuedStim4.Sample,CueImage,JitterCue,JitterTrial,LeftImage,NonCuedStim1,NonCuedStim1.Cycle,NonCuedStim1.Sample,NonCuedStim2,NonCuedStim2.Cycle,NonCuedStim2.Sample,NonCuedStim3,NonCuedStim3.Cycle,NonCuedStim3.Sample,NonCuedStim4,NonCuedStim4.Cycle,NonCuedStim4.Sample,Procedure[SubTrial],RightImage,Running[SubTrial],Stimulus
POP_2,27023,1,"<?xml version=""1.0""?>\n<Clock xmlns:dt=""urn:schemas-microsoft-com:datatypes""><Description dt:dt=""string"">E-Prime Primary Realtime Clock</Description><StartTime><Timestamp dt:dt=""int"">0</Timestamp><DateUtc dt:dt=""string"">2014-05-22T21:04:40Z</DateUtc></StartTime><FrequencyChanges><FrequencyChange><Frequency dt:dt=""r8"">2793030000</Frequency><Timestamp dt:dt=""r8"">3.64700453677769E+15</Timestamp><Current dt:dt=""r8"">0</Current><DateUtc dt:dt=""string"">2014-05-22T21:04:40Z</DateUtc></FrequencyChange></FrequencyChanges></Clock>\n",60.034,1,-1950325025,0,,-999999,4,18670,t,70780,89450,5/22/2014,14:04:40,9:04:40 PM,1,Session1,SessionsList,,,,,,,,,,1,1,1,1,,,,,,,,1,1,1,NonCued3,MiniBlocks2,,,89468,,1,1,b,-999999,129,109591,b,412,110003,Green,Congruent,b,White,0,,0,67,99529,,0,0,,,,,,,,,,,,,Pictures\white.bmp,9000,10000,Pictures\black.bmp,,,,,,,1,1,1,,,,StimulusPr,Pictures\GreenRight.bmp,NonCuedStim3,Right
POP_2,27023,1,"<?xml version=""1.0""?>\n<Clock xmlns:dt=""urn:schemas-microsoft-com:datatypes""><Description dt:dt=""string"">E-Prime Primary Realtime Clock</Description><StartTime><Timestamp dt:dt=""int"">0</Timestamp><DateUtc dt:dt=""string"">2014-05-22T21:04:40Z</DateUtc></StartTime><FrequencyChanges><FrequencyChange><Frequency dt:dt=""r8"">2793030000</Frequency><Timestamp dt:dt=""r8"">3.64700453677769E+15</Timestamp><Current dt:dt=""r8"">0</Current><DateUtc dt:dt=""string"">2014-05-22T21:04:40Z</DateUtc></FrequencyChange></FrequencyChanges></Clock>\n",60.034,1,-1950325025,0,,-999999,4,18670,t,70780,89450,5/22/2014,14:04:40,9:04:40 PM,1,Session1,SessionsList,,,,,,,,,,1,1,1,1,,,,,,,,1,1,1,NonCued3,MiniBlocks2,,,89468,,2,1,r,-999999,68,131530,r,637,132167,Red,Incongruent,r,White,0,,0,7,121469,,0,0,,,,,,,,,,,,,Pictures\white.bmp,9000,10000,Pictures\black.bmp,,,,,,,2,1,2,,,,StimulusPr,Pictures\RedRight.bmp,NonCuedStim3,Right
POP_2,27023,1,"<?xml version=""1.0""?>\n<Clock xmlns:dt=""urn:schemas-microsoft-com:datatypes""><Description dt:dt=""string"">E-Prime Primary Realtime Clock</Description><StartTime><Timestamp dt:dt=""int"">0</Timestamp><DateUtc dt:dt=""string"">2014-05-22T21:04:40Z</DateUtc></StartTime><FrequencyChanges><FrequencyChange><Frequency dt:dt=""r8"">2793030000</Frequency><Timestamp dt:dt=""r8"">3.64700453677769E+15</Timestamp><Current dt:dt=""r8"">0</Current><DateUtc dt:dt=""string"">2014-05-22T21:04:40Z</DateUtc></FrequencyChange></FrequencyChanges></Clock>\n",60.034,1,-1950325025,0,,-999999,4,18670,t,70780,89450,5/22/2014,14:04:40,9:04:40 PM,1,Session1,SessionsList,,,,,,,,,,1,1,1,1,,,,,,,,1,1,1,NonCued3,MiniBlocks2,,,89468,,3,1,r,-999999,59,148522,r,490,149012,Green,Congruent,r,White,0,,0,11,143474,,0,0,,,,,,,,,,,,,Pictures\white.bmp,4000,4000,Pictures\GreenLeft.bmp,,,,,,,3,1,3,,,,StimulusPr,Pictures\black.bmp,NonCuedStim3,Left
POP_2,27023,1,"<?xml version=""1.0""?>\n<Clock xmlns:dt=""urn:schemas-microsoft-com:datatypes""><Description dt:dt=""string"">E-Prime Primary Realtime Clock</Description><StartTime><Timestamp dt:dt=""int"">0</Timestamp><DateUtc dt:dt=""string"">2014-05-22T21:04:40Z</DateUtc></StartTime><FrequencyChanges><FrequencyChange><Frequency dt:dt=""r8"">2793030000</Frequency><Timestamp dt:dt=""r8"">3.64700453677769E+15</Timestamp><Current dt:dt=""r8"">0</Current><DateUtc dt:dt=""string"">2014-05-22T21:04:40Z</DateUtc></FrequencyChange></FrequencyChanges></Clock>\n",60.034,1,-1950325025,0,,-999999,4,18670,t,70780,89450,5/22/2014,14:04:40,9:04:40 PM,1,Session1,SessionsList,,,,,,,,,,1,1,1,1,,,,,,,,1,1,1,NonCued3,MiniBlocks2,,,89468,,4,1,b,-999999,64,161515,b,713,162228,Red,Incongruent,b,White,0,,0,9,154469,,0,0,,,,,,,,,,,,,Pictures\white.bmp,6000,4000,Pictures\RedLeft.bmp,,,,,,,4,1,4,,,,StimulusPr,Pictures\black.bmp,NonCuedStim3,Left
POP_2,27023,1,"<?xml version=""1.0""?>\n<Clock xmlns:dt=""urn:schemas-microsoft-com:datatypes""><Description dt:dt=""string"">E-Prime Primary Realtime Clock</Description><StartTime><Timestamp dt:dt=""int"">0</Timestamp><DateUtc dt:dt=""string"">2014-05-22T21:04:40Z</DateUtc></StartTime><FrequencyChanges><FrequencyChange><Frequency dt:dt=""r8"">2793030000</Frequency><Timestamp dt:dt=""r8"">3.64700453677769E+15</Timestamp><Current dt:dt=""r8"">0</Current><DateUtc dt:dt=""string"">2014-05-22T21:04:40Z</DateUtc></FrequencyChange></FrequencyChanges></Clock>\n",60.034,1,-1950325025,0,,-999999,4,18670,t,70780,89450,5/22/2014,14:04:40,9:04:40 PM,1,Session1,SessionsList,,,,,,,,,,1,1,1,1,,,,,,,,1,1,1,NonCued3,MiniBlocks2,,,89468,,5,1,b,-999999,15,171477,b,523,172000,Green,Congruent,b,White,0,,0,17,167479,,0,0,,,,,,,,,,,,,Pictures\white.bmp,3000,2000,Pictures\black.bmp,,,,,,,5,1,5,,,,StimulusPr,Pictures\GreenRight.bmp,NonCuedStim3,Right
POP_2,27023,1,"<?xml version=""1.0""?>\n<Clock xmlns:dt=""urn:schemas-microsoft-com:datatypes""><Description dt:dt=""string"">E-Prime Primary Realtime Clock</Description><StartTime><Timestamp dt:dt=""int"">0</Timestamp><DateUtc dt:dt=""string"">2014-05-22T21:04:40Z</DateUtc></StartTime><FrequencyChanges><FrequencyChange><Frequency dt:dt=""r8"">2793030000</Frequency><Timestamp dt:dt=""r8"">3.64700453677769E+15</Timestamp><Current dt:dt=""r8"">0</Current><DateUtc dt:dt=""string"">2014-05-22T21:04:40Z</DateUtc></FrequencyChange></FrequencyChanges></Clock>\n",60.034,1,-1950325025,0,,-999999,4,18670,t,70780,89450,5/22/2014,14:04:40,9:04:40 PM,1,Session1,SessionsList,,,,,,,,,,1,1,1,1,,,,,,,,1,1,1,NonCued3,MiniBlocks2,,,89468,,6,1,r,-999999,11,179473,r,396,179869,Green,Congruent,r,White,0,,0,13,175475,,0,0,,,,,,,,,,,,,Pictures\white.bmp,3000,2000,Pictures\GreenLeft.bmp,,,,,,,6,1,6,,,,StimulusPr,Pictures\black.bmp,NonCuedStim3,Left
POP_2,27023,1,"<?xml version=""1.0""?>\n<Clock xmlns:dt=""urn:schemas-microsoft-com:datatypes""><Description dt:dt=""string"">E-Prime Primary Realtime Clock</Description><StartTime><Timestamp dt:dt=""int"">0</Timestamp><DateUtc dt:dt=""string"">2014-05-22T21:04:40Z</DateUtc></StartTime><FrequencyChanges><FrequencyChange><Frequency dt:dt=""r8"">2793030000</Frequency><Timestamp dt:dt=""r8"">3.64700453677769E+15</Timestamp><Current dt:dt=""r8"">0</Current><DateUtc dt:dt=""string"">2014-05-22T21:04:40Z</DateUtc></FrequencyChange></FrequencyChanges></Clock>\n",60.034,1,-1950325025,0,,-999999,4,18670,t,70780,89450,5/22/2014,14:04:40,9:04:40 PM,1,Session1,SessionsList,,,,,,,,,,1,1,1,1,,,,,,,,1,1,1,NonCued3,MiniBlocks2,,,89468,,7,1,b,-999999,5,190467,b,415,190882,Green,Congruent,b,White,0,,0,9,183471,,0,0,,,,,,,,,,,,,Pictures\white.bmp,6000,16000,Pictures\black.bmp,,,,,,,7,1,7,,,,StimulusPr,Pictures\GreenRight.bmp,NonCuedStim3,Right
POP_2,27023,1,"<?xml version=""1.0""?>\n<Clock xmlns:dt=""urn:schemas-microsoft-com:datatypes""><Description dt:dt=""string"">E-Prime Primary Realtime Clock</Description><StartTime><Timestamp dt:dt=""int"">0</Timestamp><DateUtc dt:dt=""string"">2014-05-22T21:04:40Z</DateUtc></StartTime><FrequencyChanges><FrequencyChange><Frequency dt:dt=""r8"">2793030000</Frequency><Timestamp dt:dt=""r8"">3.64700453677769E+15</Timestamp><Current dt:dt=""r8"">0</Current><DateUtc dt:dt=""string"">2014-05-22T21:04:40Z</DateUtc></FrequencyChange></FrequencyChanges></Clock>\n",60.034,1,-1950325025,0,,-999999,4,18670,t,70780,89450,5/22/2014,14:04:40,9:04:40 PM,1,Session1,SessionsList,,,,,,,,,,1,1,1,1,,,,,,,,1,1,1,NonCued3,MiniBlocks2,,,89468,,8,0,r,-999999,11,212473,b,405,212878,Red,Incongruent,r,White,0,,0,15,208458,,0,0,,,,,,,,,,,,,Pictures\white.bmp,3000,2000,Pictures\black.bmp,,,,,,,8,1,8,,,,StimulusPr,Pictures\RedRight.bmp,NonCuedStim3,Right
POP_2,27023,1,"<?xml version=""1.0""?>\n<Clock xmlns:dt=""urn:schemas-microsoft-com:datatypes""><Description dt:dt=""string"">E-Prime Primary Realtime Clock</Description><StartTime><Timestamp dt:dt=""int"">0</Timestamp><DateUtc dt:dt=""string"">2014-05-22T21:04:40Z</DateUtc></StartTime><FrequencyChanges><FrequencyChange><Frequency dt:dt=""r8"">2793030000</Frequency><Timestamp dt:dt=""r8"">3.64700453677769E+15</Timestamp><Current dt:dt=""r8"">0</Current><DateUtc dt:dt=""string"">2014-05-22T21:04:40Z</DateUtc></FrequencyChange></FrequencyChanges></Clock>\n",60.034,1,-1950325025,0,,-999999,4,18670,t,70780,89450,5/22/2014,14:04:40,9:04:40 PM,1,Session1,SessionsList,,,,,,,,,,1,1,1,1,,,,,,,,1,1,1,NonCued3,MiniBlocks2,,,89468,,9,1,r,-999999,3,226466,r,915,227381,Green,Congruent,r,White,0,,0,9,216471,,0,0,,,,,,,,,,,,,Pictures\white.bmp,9000,10000,Pictures\GreenLeft.bmp,,,,,,,9,1,9,,,,StimulusPr,Pictures\black.bmp,NonCuedStim3,Left
POP_2,27023,1,"<?xml version=""1.0""?>\n<Clock xmlns:dt=""urn:schemas-microsoft-com:datatypes""><Description dt:dt=""string"">E-Prime Primary Realtime Clock</Description><StartTime><Timestamp dt:dt=""int"">0</Timestamp><DateUtc dt:dt=""string"">2014-05-22T21:04:40Z</DateUtc></StartTime><FrequencyChanges><FrequencyChange><Frequency dt:dt=""r8"">2793030000</Frequency><Timestamp dt:dt=""r8"">3.64700453677769E+15</Timestamp><Current dt:dt=""r8"">0</Current><DateUtc dt:dt=""string"">2014-05-22T21:04:40Z</DateUtc></FrequencyChange></FrequencyChanges></Clock>\n",60.034,1,-1950325025,0,,-999999,4,18670,t,70780,89450,5/22/2014,14:04:40,9:04:40 PM,1,Session1,SessionsList,,,,,,,,,,1,1,1,1,,,,,,,,1,1,1,NonCued3,MiniBlocks2,,,89468,,10,1,r,-999999,10,245473,r,584,246057,Green,Congruent,r,White,0,,0,14,238477,,0,0,,,,,,,,,,,,,Pictures\white.bmp,6000,4000,Pictures\GreenLeft.bmp,,,,,,,10,1,10,,,,StimulusPr,Pictures\black.bmp,NonCuedStim3,Left
POP_2,27023,1,"<?xml version=""1.0""?>\n<Clock xmlns:dt=""urn:schemas-microsoft-com:datatypes""><Description dt:dt=""string"">E-Prime Primary Realtime Clock</Description><StartTime><Timestamp dt:dt=""int"">0</Timestamp><DateUtc dt:dt=""string"">2014-05-22T21:04:40Z</DateUtc></StartTime><FrequencyChanges><FrequencyChange><Frequency dt:dt=""r8"">2793030000</Frequency><Timestamp dt:dt=""r8"">3.64700453677769E+15</Timestamp><Current dt:dt=""r8"">0</Current><DateUtc dt:dt=""string"">2014-05-22T21:04:40Z</DateUtc></FrequencyChange></FrequencyChanges></Clock>\n",60.034,1,-1950325025,0,,-999999,4,18670,t,70780,89450,5/22/2014,14:04:40,9:04:40 PM,1,Session1,SessionsList,,,,,,,,,,1,1,1,2,,,250088,,,,,2,1,2,Cued3,MiniBlocks2,,,,,1,1,b,-999999,68,264530,b,409,264939,White,Congruent,b,Green,0,,0,73,260516,,0,0,,,,,,,1,1,1,,,,Pictures\green.bmp,3000,2000,Pictures\black.bmp,,,,,,,,,,,,,StimulusPr,Pictures\right.bmp,CuedStim3,Right
POP_2,27023,1,"<?xml version=""1.0""?>\n<Clock xmlns:dt=""urn:schemas-microsoft-com:datatypes""><Description dt:dt=""string"">E-Prime Primary Realtime Clock</Description><StartTime><Timestamp dt:dt=""int"">0</Timestamp><DateUtc dt:dt=""string"">2014-05-22T21:04:40Z</DateUtc></StartTime><FrequencyChanges><FrequencyChange><Frequency dt:dt=""r8"">2793030000</Frequency><Timestamp dt:dt=""r8"">3.64700453677769E+15</Timestamp><Current dt:dt=""r8"">0</Current><DateUtc dt:dt=""string"">2014-05-22T21:04:40Z</DateUtc></FrequencyChange></FrequencyChanges></Clock>\n",60.034,1,-1950325025,0,,-999999,4,18670,t,70780,89450,5/22/2014,14:04:40,9:04:40 PM,1,Session1,SessionsList,,,,,,,,,,1,1,1,2,,,250088,,,,,2,1,2,Cued3,MiniBlocks2,,,,,2,1,b,-999999,14,272476,b,396,272872,White,Congruent,b,Green,0,,0,9,268462,,0,0,,,,,,,2,1,2,,,,Pictures\green.bmp,3000,10000,Pictures\black.bmp,,,,,,,,,,,,,StimulusPr,Pictures\right.bmp,CuedStim3,Right
POP_2,27023,1,"<?xml version=""1.0""?>\n<Clock xmlns:dt=""urn:schemas-microsoft-com:datatypes""><Description dt:dt=""string"">E-Prime Primary Realtime Clock</Description><StartTime><Timestamp dt:dt=""int"">0</Timestamp><DateUtc dt:dt=""string"">2014-05-22T21:04:40Z</DateUtc></StartTime><FrequencyChanges><FrequencyChange><Frequency dt:dt=""r8"">2793030000</Frequency><Timestamp dt:dt=""r8"">3.64700453677769E+15</Timestamp><Current dt:dt=""r8"">0</Current><DateUtc dt:dt=""string"">2014-05-22T21:04:40Z</DateUtc></FrequencyChange></FrequencyChanges></Clock>\n",60.034,1,-1950325025,0,,-999999,4,18670,t,70780,89450,5/22/2014,14:04:40,9:04:40 PM,1,Session1,SessionsList,,,,,,,,,,1,1,1,2,,,250088,,,,,2,1,2,Cued3,MiniBlocks2,,,,,3,1,r,-999999,68,294515,r,638,295153,White,Congruent,r,Green,0,,0,12,284454,,0,0,,,,,,,3,1,3,,,,Pictures\green.bmp,9000,2000,Pictures\left.bmp,,,,,,,,,,,,,StimulusPr,Pictures\black.bmp,CuedStim3,Left
POP_2,27023,1,"<?xml version=""1.0""?>\n<Clock xmlns:dt=""urn:schemas-microsoft-com:datatypes""><Description dt:dt=""string"">E-Prime Primary Realtime Clock</Description><StartTime><Timestamp dt:dt=""int"">0</Timestamp><DateUtc dt:dt=""string"">2014-05-22T21:04:40Z</DateUtc></StartTime><FrequencyChanges><FrequencyChange><Frequency dt:dt=""r8"">2793030000</Frequency><Timestamp dt:dt=""r8"">3.64700453677769E+15</Timestamp><Current dt:dt=""r8"">0</Current><DateUtc dt:dt=""string"">2014-05-22T21:04:40Z</DateUtc></FrequencyChange></FrequencyChanges></Clock>\n",60.034,1,-1950325025,0,,-999999,4,18670,t,70780,89450,5/22/2014,14:04:40,9:04:40 PM,1,Session1,SessionsList,,,,,,,,,,1,1,1,2,,,250088,,,,,2,1,2,Cued3,MiniBlocks2,,,,,4,1,r,-999999,8,303461,r,477,303938,White,Congruent,r,Green,0,,0,2,298464,,0,0,,,,,,,4,1,4,,,,Pictures\green.bmp,4000,16000,Pictures\left.bmp,,,,,,,,,,,,,StimulusPr,Pictures\black.bmp,CuedStim3,Left
POP_2,27023,1,"<?xml version=""1.0""?>\n<Clock xmlns:dt=""urn:schemas-microsoft-com:datatypes""><Description dt:dt=""string"">E-Prime Primary Realtime Clock</Description><StartTime><Timestamp dt:dt=""int"">0</Timestamp><DateUtc dt:dt=""string"">2014-05-22T21:04:40Z</DateUtc></StartTime><FrequencyChanges><FrequencyChange><Frequency dt:dt=""r8"">2793030000</Frequency><Timestamp dt:dt=""r8"">3.64700453677769E+15</Timestamp><Current dt:dt=""r8"">0</Current><DateUtc dt:dt=""string"">2014-05-22T21:04:40Z</DateUtc></FrequencyChange></FrequencyChanges></Clock>\n",60.034,1,-1950325025,0,,-999999,4,18670,t,70780,89450,5/22/2014,14:04:40,9:04:40 PM,1,Session1,SessionsList,,,,,,,,,,1,1,1,2,,,250088,,,,,2,1,2,Cued3,MiniBlocks2,,,,,5,1,r,-999999,4,325467,r,616,326083,White,Incongruent,r,Red,0,,0,56,321519,,0,0,,,,,,,5,1,5,,,,Pictures\red.bmp,3000,4000,Pictures\black.bmp,,,,,,,,,,,,,StimulusPr,Pictures\right.bmp,CuedStim3,Right
POP_2,27023,1,"<?xml version=""1.0""?>\n<Clock xmlns:dt=""urn:schemas-microsoft-com:datatypes""><Description dt:dt=""string"">E-Prime Primary Realtime Clock</Description><StartTime><Timestamp dt:dt=""int"">0</Timestamp><DateUtc dt:dt=""string"">2014-05-22T21:04:40Z</DateUtc></StartTime><FrequencyChanges><FrequencyChange><Frequency dt:dt=""r8"">2793030000</Frequency><Timestamp dt:dt=""r8"">3.64700453677769E+15</Timestamp><Current dt:dt=""r8"">0</Current><DateUtc dt:dt=""string"">2014-05-22T21:04:40Z</DateUtc></FrequencyChange></FrequencyChanges></Clock>\n",60.034,1,-1950325025,0,,-999999,4,18670,t,70780,89450,5/22/2014,14:04:40,9:04:40 PM,1,Session1,SessionsList,,,,,,,,,,1,1,1,2,,,250088,,,,,2,1,2,Cued3,MiniBlocks2,,,,,6,1,b,-999999,18,338477,b,370,338847,White,Congruent,b,Green,0,,0,17,331480,,0,0,,,,,,,6,1,6,,,,Pictures\green.bmp,6000,4000,Pictures\black.bmp,,,,,,,,,,,,,StimulusPr,Pictures\right.bmp,CuedStim3,Right
POP_2,27023,1,"<?xml version=""1.0""?>\n<Clock xmlns:dt=""urn:schemas-microsoft-com:datatypes""><Description dt:dt=""string"">E-Prime Primary Realtime Clock</Description><StartTime><Timestamp dt:dt=""int"">0</Timestamp><DateUtc dt:dt=""string"">2014-05-22T21:04:40Z</DateUtc></StartTime><FrequencyChanges><FrequencyChange><Frequency dt:dt=""r8"">2793030000</Frequency><Timestamp dt:dt=""r8"">3.64700453677769E+15</Timestamp><Current dt:dt=""r8"">0</Current><DateUtc dt:dt=""string"">2014-05-22T21:04:40Z</DateUtc></FrequencyChange></FrequencyChanges></Clock>\n",60.034,1,-1950325025,0,,-999999,4,18670,t,70780,89450,5/22/2014,14:04:40,9:04:40 PM,1,Session1,SessionsList,,,,,,,,,,1,1,1,2,,,250088,,,,,2,1,2,Cued3,MiniBlocks2,,,,,7,1,r,-999999,12,349455,r,442,349897,White,Congruent,r,Green,0,,0,17,344474,,0,0,,,,,,,7,1,7,,,,Pictures\green.bmp,4000,16000,Pictures\left.bmp,,,,,,,,,,,,,StimulusPr,Pictures\black.bmp,CuedStim3,Left
POP_2,27023,1,"<?xml version=""1.0""?>\n<Clock xmlns:dt=""urn:schemas-microsoft-com:datatypes""><Description dt:dt=""string"">E-Prime Primary Realtime Clock</Description><StartTime><Timestamp dt:dt=""int"">0</Timestamp><DateUtc dt:dt=""string"">2014-05-22T21:04:40Z</DateUtc></StartTime><FrequencyChanges><FrequencyChange><Frequency dt:dt=""r8"">2793030000</Frequency><Timestamp dt:dt=""r8"">3.64700453677769E+15</Timestamp><Current dt:dt=""r8"">0</Current><DateUtc dt:dt=""string"">2014-05-22T21:04:40Z</DateUtc></FrequencyChange></FrequencyChanges></Clock>\n",60.034,1,-1950325025,0,,-999999,4,18670,t,70780,89450,5/22/2014,14:04:40,9:04:40 PM,1,Session1,SessionsList,,,,,,,,,,1,1,1,2,,,250088,,,,,2,1,2,Cued3,MiniBlocks2,,,,,8,1,b,-999999,15,371477,b,624,372101,White,Incongruent,b,Red,0,,0,17,367479,,0,0,,,,,,,8,1,8,,,,Pictures\red.bmp,3000,2000,Pictures\left.bmp,,,,,,,,,,,,,StimulusPr,Pictures\black.bmp,CuedStim3,Left
POP_2,27023,1,"<?xml version=""1.0""?>\n<Clock xmlns:dt=""urn:schemas-microsoft-com:datatypes""><Description dt:dt=""string"">E-Prime Primary Realtime Clock</Description><StartTime><Timestamp dt:dt=""int"">0</Timestamp><DateUtc dt:dt=""string"">2014-05-22T21:04:40Z</DateUtc></StartTime><FrequencyChanges><FrequencyChange><Frequency dt:dt=""r8"">2793030000</Frequency><Timestamp dt:dt=""r8"">3.64700453677769E+15</Timestamp><Current dt:dt=""r8"">0</Current><DateUtc dt:dt=""string"">2014-05-22T21:04:40Z</DateUtc></FrequencyChange></FrequencyChanges></Clock>\n",60.034,1,-1950325025,0,,-999999,4,18670,t,70780,89450,5/22/2014,14:04:40,9:04:40 PM,1,Session1,SessionsList,,,,,,,,,,1,1,1,2,,,250088,,,,,2,1,2,Cued3,MiniBlocks2,,,,,9,1,r,-999999,7,379456,r,430,379886,White,Congruent,r,Green,0,,0,8,375458,,0,0,,,,,,,9,1,9,,,,Pictures\green.bmp,3000,2000,Pictures\left.bmp,,,,,,,,,,,,,StimulusPr,Pictures\black.bmp,CuedStim3,Left
POP_2,27023,1,"<?xml version=""1.0""?>\n<Clock xmlns:dt=""urn:schemas-microsoft-com:datatypes""><Description dt:dt=""string"">E-Prime Primary Realtime Clock</Description><StartTime><Timestamp dt:dt=""int"">0</Timestamp><DateUtc dt:dt=""string"">2014-05-22T21:04:40Z</DateUtc></StartTime><FrequencyChanges><FrequencyChange><Frequency dt:dt=""r8"">2793030000</Frequency><Timestamp dt:dt=""r8"">3.64700453677769E+15</Timestamp><Current dt:dt=""r8"">0</Current><DateUtc dt:dt=""string"">2014-05-22T21:04:40Z</DateUtc></FrequencyChange></FrequencyChanges></Clock>\n",60.034,1,-1950325025,0,,-999999,4,18670,t,70780,89450,5/22/2014,14:04:40,9:04:40 PM,1,Session1,SessionsList,,,,,,,,,,1,1,1,2,,,250088,,,,,2,1,2,Cued3,MiniBlocks2,,,,,10,1,b,-999999,7,393466,b,431,393897,White,Congruent,b,Green,0,,0,11,383454,,0,0,,,,,,,10,1,10,,,,Pictures\green.bmp,9000,10000,Pictures\black.bmp,,,,,,,,,,,,,StimulusPr,Pictures\right.bmp,CuedStim3,Right
POP_2,27023,1,"<?xml version=""1.0""?>\n<Clock xmlns:dt=""urn:schemas-microsoft-com:datatypes""><Description dt:dt=""string"">E-Prime Primary Realtime Clock</Description><StartTime><Timestamp dt:dt=""int"">0</Timestamp><DateUtc dt:dt=""string"">2014-05-22T21:04:40Z</DateUtc></StartTime><FrequencyChanges><FrequencyChange><Frequency dt:dt=""r8"">2793030000</Frequency><Timestamp dt:dt=""r8"">3.64700453677769E+15</Timestamp><Current dt:dt=""r8"">0</Current><DateUtc dt:dt=""string"">2014-05-22T21:04:40Z</DateUtc></FrequencyChange></FrequencyChanges></Clock>\n",60.034,1,-1950325025,0,,-999999,4,18670,t,70780,89450,5/22/2014,14:04:40,9:04:40 PM,1,Session1,SessionsList,,,,,,,,,,1,1,1,3,,,,403911,,,,3,1,3,Cued4,MiniBlocks2,,,,,1,1,b,-999999,6,420469,b,463,420932,White,Congruent,b,Green,0,,0,10,413473,,0,0,,,,,,,,,,1,1,1,Pictures\green.bmp,6000,2000,Pictures\black.bmp,,,,,,,,,,,,,StimulusPr,Pictures\right.bmp,CuedStim4,Right
POP_2,27023,1,"<?xml version=""1.0""?>\n<Clock xmlns:dt=""urn:schemas-microsoft-com:datatypes""><Description dt:dt=""string"">E-Prime Primary Realtime Clock</Description><StartTime><Timestamp dt:dt=""int"">0</Timestamp><DateUtc dt:dt=""string"">2014-05-22T21:04:40Z</DateUtc></StartTime><FrequencyChanges><FrequencyChange><Frequency dt:dt=""r8"">2793030000</Frequency><Timestamp dt:dt=""r8"">3.64700453677769E+15</Timestamp><Current dt:dt=""r8"">0</Current><DateUtc dt:dt=""string"">2014-05-22T21:04:40Z</DateUtc></FrequencyChange></FrequencyChanges></Clock>\n",60.034,1,-1950325025,0,,-999999,4,18670,t,70780,89450,5/22/2014,14:04:40,9:04:40 PM,1,Session1,SessionsList,,,,,,,,,,1,1,1,3,,,,403911,,,,3,1,3,Cued4,MiniBlocks2,,,,,2,0,r,-999999,17,434479,b,480,434959,White,Incongruent,r,Red,0,,0,5,424467,,0,0,,,,,,,,,,2,1,2,Pictures\red.bmp,9000,2000,Pictures\black.bmp,,,,,,,,,,,,,StimulusPr,Pictures\right.bmp,CuedStim4,Right
POP_2,27023,1,"<?xml version=""1.0""?>\n<Clock xmlns:dt=""urn:schemas-microsoft-com:datatypes""><Description dt:dt=""string"">E-Prime Primary Realtime Clock</Description><StartTime><Timestamp dt:dt=""int"">0</Timestamp><DateUtc dt:dt=""string"">2014-05-22T21:04:40Z</DateUtc></StartTime><FrequencyChanges><FrequencyChange><Frequency dt:dt=""r8"">2793030000</Frequency><Timestamp dt:dt=""r8"">3.64700453677769E+15</Timestamp><Current dt:dt=""r8"">0</Current><DateUtc dt:dt=""string"">2014-05-22T21:04:40Z</DateUtc></FrequencyChange></FrequencyChanges></Clock>\n",60.034,1,-1950325025,0,,-999999,4,18670,t,70780,89450,5/22/2014,14:04:40,9:04:40 PM,1,Session1,SessionsList,,,,,,,,,,1,1,1,3,,,,403911,,,,3,1,3,Cued4,MiniBlocks2,,,,,3,1,b,-999999,15,442458,b,509,442967,White,Congruent,b,Green,0,,0,15,438477,,0,0,,,,,,,,,,3,1,3,Pictures\green.bmp,3000,4000,Pictures\black.bmp,,,,,,,,,,,,,StimulusPr,Pictures\right.bmp,CuedStim4,Right
POP_2,27023,1,"<?xml version=""1.0""?>\n<Clock xmlns:dt=""urn:schemas-microsoft-com:datatypes""><Description dt:dt=""string"">E-Prime Primary Realtime Clock</Description><StartTime><Timestamp dt:dt=""int"">0</Timestamp><DateUtc dt:dt=""string"">2014-05-22T21:04:40Z</DateUtc></StartTime><FrequencyChanges><FrequencyChange><Frequency dt:dt=""r8"">2793030000</Frequency><Timestamp dt:dt=""r8"">3.64700453677769E+15</Timestamp><Current dt:dt=""r8"">0</Current><DateUtc dt:dt=""string"">2014-05-22T21:04:40Z</DateUtc></FrequencyChange></FrequencyChanges></Clock>\n",60.034,1,-1950325025,0,,-999999,4,18670,t,70780,89450,5/22/2014,14:04:40,9:04:40 PM,1,Session1,SessionsList,,,,,,,,,,1,1,1,3,,,,403911,,,,3,1,3,Cued4,MiniBlocks2,,,,,4,1,r,-999999,8,452470,r,429,452899,White,Congruent,r,Green,0,,0,10,448472,,0,0,,,,,,,,,,4,1,4,Pictures\green.bmp,3000,4000,Pictures\left.bmp,,,,,,,,,,,,,StimulusPr,Pictures\black.bmp,CuedStim4,Left
POP_2,27023,1,"<?xml version=""1.0""?>\n<Clock xmlns:dt=""urn:schemas-microsoft-com:datatypes""><Description dt:dt=""string"">E-Prime Primary Realtime Clock</Description><StartTime><Timestamp dt:dt=""int"">0</Timestamp><DateUtc dt:dt=""string"">2014-05-22T21:04:40Z</DateUtc></StartTime><FrequencyChanges><FrequencyChange><Frequency dt:dt=""r8"">2793030000</Frequency><Timestamp dt:dt=""r8"">3.64700453677769E+15</Timestamp><Current dt:dt=""r8"">0</Current><DateUtc dt:dt=""string"">2014-05-22T21:04:40Z</DateUtc></FrequencyChange></FrequencyChanges></Clock>\n",60.034,1,-1950325025,0,,-999999,4,18670,t,70780,89450,5/22/2014,14:04:40,9:04:40 PM,1,Session1,SessionsList,,,,,,,,,,1,1,1,3,,,,403911,,,,3,1,3,Cued4,MiniBlocks2,,,,,5,1,b,-999999,14,463464,b,614,464078,White,Incongruent,b,Red,0,,0,14,458467,,0,0,,,,,,,,,,5,1,5,Pictures\red.bmp,4000,16000,Pictures\left.bmp,,,,,,,,,,,,,StimulusPr,Pictures\black.bmp,CuedStim4,Left
POP_2,27023,1,"<?xml version=""1.0""?>\n<Clock xmlns:dt=""urn:schemas-microsoft-com:datatypes""><Description dt:dt=""string"">E-Prime Primary Realtime Clock</Description><StartTime><Timestamp dt:dt=""int"">0</Timestamp><DateUtc dt:dt=""string"">2014-05-22T21:04:40Z</DateUtc></StartTime><FrequencyChanges><FrequencyChange><Frequency dt:dt=""r8"">2793030000</Frequency><Timestamp dt:dt=""r8"">3.64700453677769E+15</Timestamp><Current dt:dt=""r8"">0</Current><DateUtc dt:dt=""string"">2014-05-22T21:04:40Z</DateUtc></FrequencyChange></FrequencyChanges></Clock>\n",60.034,1,-1950325025,0,,-999999,4,18670,t,70780,89450,5/22/2014,14:04:40,9:04:40 PM,1,Session1,SessionsList,,,,,,,,,,1,1,1,3,,,,403911,,,,3,1,3,Cued4,MiniBlocks2,,,,,6,1,b,-999999,17,485470,b,405,485875,White,Congruent,b,Green,0,,0,2,481455,,0,0,,,,,,,,,,6,1,6,Pictures\green.bmp,3000,2000,Pictures\black.bmp,,,,,,,,,,,,,StimulusPr,Pictures\right.bmp,CuedStim4,Right
POP_2,27023,1,"<?xml version=""1.0""?>\n<Clock xmlns:dt=""urn:schemas-microsoft-com:datatypes""><Description dt:dt=""string"">E-Prime Primary Realtime Clock</Description><StartTime><Timestamp dt:dt=""int"">0</Timestamp><DateUtc dt:dt=""string"">2014-05-22T21:04:40Z</DateUtc></StartTime><FrequencyChanges><FrequencyChange><Frequency dt:dt=""r8"">2793030000</Frequency><Timestamp dt:dt=""r8"">3.64700453677769E+15</Timestamp><Current dt:dt=""r8"">0</Current><DateUtc dt:dt=""string"">2014-05-22T21:04:40Z</DateUtc></FrequencyChange></FrequencyChanges></Clock>\n",60.034,1,-1950325025,0,,-999999,4,18670,t,70780,89450,5/22/2014,14:04:40,9:04:40 PM,1,Session1,SessionsList,,,,,,,,,,1,1,1,3,,,,403911,,,,3,1,3,Cued4,MiniBlocks2,,,,,7,1,b,-999999,14,499463,b,454,499917,White,Congruent,b,Green,0,,0,5,489468,,0,0,,,,,,,,,,7,1,7,Pictures\green.bmp,9000,10000,Pictures\black.bmp,,,,,,,,,,,,,StimulusPr,Pictures\right.bmp,CuedStim4,Right
POP_2,27023,1,"<?xml version=""1.0""?>\n<Clock xmlns:dt=""urn:schemas-microsoft-com:datatypes""><Description dt:dt=""string"">E-Prime Primary Realtime Clock</Description><StartTime><Timestamp dt:dt=""int"">0</Timestamp><DateUtc dt:dt=""string"">2014-05-22T21:04:40Z</DateUtc></StartTime><FrequencyChanges><FrequencyChange><Frequency dt:dt=""r8"">2793030000</Frequency><Timestamp dt:dt=""r8"">3.64700453677769E+15</Timestamp><Current dt:dt=""r8"">0</Current><DateUtc dt:dt=""string"">2014-05-22T21:04:40Z</DateUtc></FrequencyChange></FrequencyChanges></Clock>\n",60.034,1,-1950325025,0,,-999999,4,18670,t,70780,89450,5/22/2014,14:04:40,9:04:40 PM,1,Session1,SessionsList,,,,,,,,,,1,1,1,3,,,,403911,,,,3,1,3,Cued4,MiniBlocks2,,,,,8,1,b,-999999,8,518470,b,602,519072,White,Incongruent,b,Red,0,,0,12,511474,,0,0,,,,,,,,,,8,1,8,Pictures\red.bmp,6000,10000,Pictures\left.bmp,,,,,,,,,,,,,StimulusPr,Pictures\black.bmp,CuedStim4,Left
POP_2,27023,1,"<?xml version=""1.0""?>\n<Clock xmlns:dt=""urn:schemas-microsoft-com:datatypes""><Description dt:dt=""string"">E-Prime Primary Realtime Clock</Description><StartTime><Timestamp dt:dt=""int"">0</Timestamp><DateUtc dt:dt=""string"">2014-05-22T21:04:40Z</DateUtc></StartTime><FrequencyChanges><FrequencyChange><Frequency dt:dt=""r8"">2793030000</Frequency><Timestamp dt:dt=""r8"">3.64700453677769E+15</Timestamp><Current dt:dt=""r8"">0</Current><DateUtc dt:dt=""string"">2014-05-22T21:04:40Z</DateUtc></FrequencyChange></FrequencyChanges></Clock>\n",60.034,1,-1950325025,0,,-999999,4,18670,t,70780,89450,5/22/2014,14:04:40,9:04:40 PM,1,Session1,SessionsList,,,,,,,,,,1,1,1,3,,,,403911,,,,3,1,3,Cued4,MiniBlocks2,,,,,9,1,r,-999999,16,537478,r,699,538177,White,Congruent,r,Green,0,,0,2,530464,,0,0,,,,,,,,,,9,1,9,Pictures\green.bmp,6000,16000,Pictures\left.bmp,,,,,,,,,,,,,StimulusPr,Pictures\black.bmp,CuedStim4,Left
POP_2,27023,1,"<?xml version=""1.0""?>\n<Clock xmlns:dt=""urn:schemas-microsoft-com:datatypes""><Description dt:dt=""string"">E-Prime Primary Realtime Clock</Description><StartTime><Timestamp dt:dt=""int"">0</Timestamp><DateUtc dt:dt=""string"">2014-05-22T21:04:40Z</DateUtc></StartTime><FrequencyChanges><FrequencyChange><Frequency dt:dt=""r8"">2793030000</Frequency><Timestamp dt:dt=""r8"">3.64700453677769E+15</Timestamp><Current dt:dt=""r8"">0</Current><DateUtc dt:dt=""string"">2014-05-22T21:04:40Z</DateUtc></FrequencyChange></FrequencyChanges></Clock>\n",60.034,1,-1950325025,0,,-999999,4,18670,t,70780,89450,5/22/2014,14:04:40,9:04:40 PM,1,Session1,SessionsList,,,,,,,,,,1,1,1,3,,,,403911,,,,3,1,3,Cued4,MiniBlocks2,,,,,10,1,r,-999999,3,560466,r,712,561178,White,Congruent,r,Green,0,,0,7,555469,,0,0,,,,,,,,,,10,1,10,Pictures\green.bmp,4000,2000,Pictures\left.bmp,,,,,,,,,,,,,StimulusPr,Pictures\black.bmp,CuedStim4,Left
POP_2,27023,1,"<?xml version=""1.0""?>\n<Clock xmlns:dt=""urn:schemas-microsoft-com:datatypes""><Description dt:dt=""string"">E-Prime Primary Realtime Clock</Description><StartTime><Timestamp dt:dt=""int"">0</Timestamp><DateUtc dt:dt=""string"">2014-05-22T21:04:40Z</DateUtc></StartTime><FrequencyChanges><FrequencyChange><Frequency dt:dt=""r8"">2793030000</Frequency><Timestamp dt:dt=""r8"">3.64700453677769E+15</Timestamp><Current dt:dt=""r8"">0</Current><DateUtc dt:dt=""string"">2014-05-22T21:04:40Z</DateUtc></FrequencyChange></FrequencyChanges></Clock>\n",60.034,1,-1950325025,0,,-999999,4,18670,t,70780,89450,5/22/2014,14:04:40,9:04:40 PM,1,Session1,SessionsList,,,,,,,,,,1,1,1,4,,,,,,,,4,1,4,NonCued4,MiniBlocks2,,,,563198,1,1,r,-999999,11,577474,r,632,578106,Green,Congruent,r,White,0,,0,11,573460,,0,0,,,,,,,,,,,,,Pictures\white.bmp,3000,2000,Pictures\GreenLeft.bmp,,,,,,,,,,1,1,1,StimulusPr,Pictures\black.bmp,NonCuedStim4,Left
POP_2,27023,1,"<?xml version=""1.0""?>\n<Clock xmlns:dt=""urn:schemas-microsoft-com:datatypes""><Description dt:dt=""string"">E-Prime Primary Realtime Clock</Description><StartTime><Timestamp dt:dt=""int"">0</Timestamp><DateUtc dt:dt=""string"">2014-05-22T21:04:40Z</DateUtc></StartTime><FrequencyChanges><FrequencyChange><Frequency dt:dt=""r8"">2793030000</Frequency><Timestamp dt:dt=""r8"">3.64700453677769E+15</Timestamp><Current dt:dt=""r8"">0</Current><DateUtc dt:dt=""string"">2014-05-22T21:04:40Z</DateUtc></FrequencyChange></FrequencyChanges></Clock>\n",60.034,1,-1950325025,0,,-999999,4,18670,t,70780,89450,5/22/2014,14:04:40,9:04:40 PM,1,Session1,SessionsList,,,,,,,,,,1,1,1,4,,,,,,,,4,1,4,NonCued4,MiniBlocks2,,,,563198,2,1,r,-999999,7,586470,r,526,586996,Green,Congruent,r,White,0,,0,9,581472,,0,0,,,,,,,,,,,,,Pictures\white.bmp,4000,2000,Pictures\GreenLeft.bmp,,,,,,,,,,2,1,2,StimulusPr,Pictures\black.bmp,NonCuedStim4,Left
POP_2,27023,1,"<?xml version=""1.0""?>\n<Clock xmlns:dt=""urn:schemas-microsoft-com:datatypes""><Description dt:dt=""string"">E-Prime Primary Realtime Clock</Description><StartTime><Timestamp dt:dt=""int"">0</Timestamp><DateUtc dt:dt=""string"">2014-05-22T21:04:40Z</DateUtc></StartTime><FrequencyChanges><FrequencyChange><Frequency dt:dt=""r8"">2793030000</Frequency><Timestamp dt:dt=""r8"">3.64700453677769E+15</Timestamp><Current dt:dt=""r8"">0</Current><DateUtc dt:dt=""string"">2014-05-22T21:04:40Z</DateUtc></FrequencyChange></FrequencyChanges></Clock>\n",60.034,1,-1950325025,0,,-999999,4,18670,t,70780,89450,5/22/2014,14:04:40,9:04:40 PM,1,Session1,SessionsList,,,,,,,,,,1,1,1,4,,,,,,,,4,1,4,NonCued4,MiniBlocks2,,,,563198,3,1,r,-999999,18,595465,r,512,595977,Red,Incongruent,r,White,0,,0,6,590451,,0,0,,,,,,,,,,,,,Pictures\white.bmp,4000,2000,Pictures\black.bmp,,,,,,,,,,3,1,3,StimulusPr,Pictures\RedRight.bmp,NonCuedStim4,Right
POP_2,27023,1,"<?xml version=""1.0""?>\n<Clock xmlns:dt=""urn:schemas-microsoft-com:datatypes""><Description dt:dt=""string"">E-Prime Primary Realtime Clock</Description><StartTime><Timestamp dt:dt=""int"">0</Timestamp><DateUtc dt:dt=""string"">2014-05-22T21:04:40Z</DateUtc></StartTime><FrequencyChanges><FrequencyChange><Frequency dt:dt=""r8"">2793030000</Frequency><Timestamp dt:dt=""r8"">3.64700453677769E+15</Timestamp><Current dt:dt=""r8"">0</Current><DateUtc dt:dt=""string"">2014-05-22T21:04:40Z</DateUtc></FrequencyChange></FrequencyChanges></Clock>\n",60.034,1,-1950325025,0,,-999999,4,18670,t,70780,89450,5/22/2014,14:04:40,9:04:40 PM,1,Session1,SessionsList,,,,,,,,,,1,1,1,4,,,,,,,,4,1,4,NonCued4,MiniBlocks2,,,,563198,4,1,b,-999999,9,603461,b,769,604230,Green,Congruent,b,White,0,,0,15,599463,,0,0,,,,,,,,,,,,,Pictures\white.bmp,3000,16000,Pictures\black.bmp,,,,,,,,,,4,1,4,StimulusPr,Pictures\GreenRight.bmp,NonCuedStim4,Right
POP_2,27023,1,"<?xml version=""1.0""?>\n<Clock xmlns:dt=""urn:schemas-microsoft-com:datatypes""><Description dt:dt=""string"">E-Prime Primary Realtime Clock</Description><StartTime><Timestamp dt:dt=""int"">0</Timestamp><DateUtc dt:dt=""string"">2014-05-22T21:04:40Z</DateUtc></StartTime><FrequencyChanges><FrequencyChange><Frequency dt:dt=""r8"">2793030000</Frequency><Timestamp dt:dt=""r8"">3.64700453677769E+15</Timestamp><Current dt:dt=""r8"">0</Current><DateUtc dt:dt=""string"">2014-05-22T21:04:40Z</DateUtc></FrequencyChange></FrequencyChanges></Clock>\n",60.034,1,-1950325025,0,,-999999,4,18670,t,70780,89450,5/22/2014,14:04:40,9:04:40 PM,1,Session1,SessionsList,,,,,,,,,,1,1,1,4,,,,,,,,4,1,4,NonCued4,MiniBlocks2,,,,563198,5,1,r,-999999,4,631447,r,625,632072,Green,Congruent,r,White,0,,0,6,621469,,0,0,,,,,,,,,,,,,Pictures\white.bmp,9000,10000,Pictures\GreenLeft.bmp,,,,,,,,,,5,1,5,StimulusPr,Pictures\black.bmp,NonCuedStim4,Left
POP_2,27023,1,"<?xml version=""1.0""?>\n<Clock xmlns:dt=""urn:schemas-microsoft-com:datatypes""><Description dt:dt=""string"">E-Prime Primary Realtime Clock</Description><StartTime><Timestamp dt:dt=""int"">0</Timestamp><DateUtc dt:dt=""string"">2014-05-22T21:04:40Z</DateUtc></StartTime><FrequencyChanges><FrequencyChange><Frequency dt:dt=""r8"">2793030000</Frequency><Timestamp dt:dt=""r8"">3.64700453677769E+15</Timestamp><Current dt:dt=""r8"">0</Current><DateUtc dt:dt=""string"">2014-05-22T21:04:40Z</DateUtc></FrequencyChange></FrequencyChanges></Clock>\n",60.034,1,-1950325025,0,,-999999,4,18670,t,70780,89450,5/22/2014,14:04:40,9:04:40 PM,1,Session1,SessionsList,,,,,,,,,,1,1,1,4,,,,,,,,4,1,4,NonCued4,MiniBlocks2,,,,563198,6,1,b,-999999,11,647473,b,632,648105,Green,Congruent,b,White,0,,0,16,643475,,0,0,,,,,,,,,,,,,Pictures\white.bmp,3000,16000,Pictures\black.bmp,,,,,,,,,,6,1,6,StimulusPr,Pictures\GreenRight.bmp,NonCuedStim4,Right
POP_2,27023,1,"<?xml version=""1.0""?>\n<Clock xmlns:dt=""urn:schemas-microsoft-com:datatypes""><Description dt:dt=""string"">E-Prime Primary Realtime Clock</Description><StartTime><Timestamp dt:dt=""int"">0</Timestamp><DateUtc dt:dt=""string"">2014-05-22T21:04:40Z</DateUtc></StartTime><FrequencyChanges><FrequencyChange><Frequency dt:dt=""r8"">2793030000</Frequency><Timestamp dt:dt=""r8"">3.64700453677769E+15</Timestamp><Current dt:dt=""r8"">0</Current><DateUtc dt:dt=""string"">2014-05-22T21:04:40Z</DateUtc></FrequencyChange></FrequencyChanges></Clock>\n",60.034,1,-1950325025,0,,-999999,4,18670,t,70780,89450,5/22/2014,14:04:40,9:04:40 PM,1,Session1,SessionsList,,,,,,,,,,1,1,1,4,,,,,,,,4,1,4,NonCued4,MiniBlocks2,,,,563198,7,1,b,-999999,9,669462,b,696,670158,Red,Incongruent,b,White,0,,0,17,665480,,0,0,,,,,,,,,,,,,Pictures\white.bmp,3000,16000,Pictures\RedLeft.bmp,,,,,,,,,,7,1,7,StimulusPr,Pictures\black.bmp,NonCuedStim4,Left
POP_2,27023,1,"<?xml version=""1.0""?>\n<Clock xmlns:dt=""urn:schemas-microsoft-com:datatypes""><Description dt:dt=""string"">E-Prime Primary Realtime Clock</Description><StartTime><Timestamp dt:dt=""int"">0</Timestamp><DateUtc dt:dt=""string"">2014-05-22T21:04:40Z</DateUtc></StartTime><FrequencyChanges><FrequencyChange><Frequency dt:dt=""r8"">2793030000</Frequency><Timestamp dt:dt=""r8"">3.64700453677769E+15</Timestamp><Current dt:dt=""r8"">0</Current><DateUtc dt:dt=""string"">2014-05-22T21:04:40Z</DateUtc></FrequencyChange></FrequencyChanges></Clock>\n",60.034,1,-1950325025,0,,-999999,4,18670,t,70780,89450,5/22/2014,14:04:40,9:04:40 PM,1,Session1,SessionsList,,,,,,,,,,1,1,1,4,,,,,,,,4,1,4,NonCued4,MiniBlocks2,,,,563198,8,1,r,-999999,15,691467,r,614,692081,Green,Congruent,r,White,0,,0,6,687469,,0,0,,,,,,,,,,,,,Pictures\white.bmp,3000,2000,Pictures\GreenLeft.bmp,,,,,,,,,,8,1,8,StimulusPr,Pictures\black.bmp,NonCuedStim4,Left
POP_2,27023,1,"<?xml version=""1.0""?>\n<Clock xmlns:dt=""urn:schemas-microsoft-com:datatypes""><Description dt:dt=""string"">E-Prime Primary Realtime Clock</Description><StartTime><Timestamp dt:dt=""int"">0</Timestamp><DateUtc dt:dt=""string"">2014-05-22T21:04:40Z</DateUtc></StartTime><FrequencyChanges><FrequencyChange><Frequency dt:dt=""r8"">2793030000</Frequency><Timestamp dt:dt=""r8"">3.64700453677769E+15</Timestamp><Current dt:dt=""r8"">0</Current><DateUtc dt:dt=""string"">2014-05-22T21:04:40Z</DateUtc></FrequencyChange></FrequencyChanges></Clock>\n",60.034,1,-1950325025,0,,-999999,4,18670,t,70780,89450,5/22/2014,14:04:40,9:04:40 PM,1,Session1,SessionsList,,,,,,,,,,1,1,1,4,,,,,,,,4,1,4,NonCued4,MiniBlocks2,,,,563198,9,1,b,-999999,12,702462,b,613,703075,Green,Congruent,b,White,0,,0,13,695465,,0,0,,,,,,,,,,,,,Pictures\white.bmp,6000,2000,Pictures\black.bmp,,,,,,,,,,9,1,9,StimulusPr,Pictures\GreenRight.bmp,NonCuedStim4,Right
POP_2,27023,1,"<?xml version=""1.0""?>\n<Clock xmlns:dt=""urn:schemas-microsoft-com:datatypes""><Description dt:dt=""string"">E-Prime Primary Realtime Clock</Description><StartTime><Timestamp dt:dt=""int"">0</Timestamp><DateUtc dt:dt=""string"">2014-05-22T21:04:40Z</DateUtc></StartTime><FrequencyChanges><FrequencyChange><Frequency dt:dt=""r8"">2793030000</Frequency><Timestamp dt:dt=""r8"">3.64700453677769E+15</Timestamp><Current dt:dt=""r8"">0</Current><DateUtc dt:dt=""string"">2014-05-22T21:04:40Z</DateUtc></FrequencyChange></FrequencyChanges></Clock>\n",60.034,1,-1950325025,0,,-999999,4,18670,t,70780,89450,5/22/2014,14:04:40,9:04:40 PM,1,Session1,SessionsList,,,,,,,,,,1,1,1,4,,,,,,,,4,1,4,NonCued4,MiniBlocks2,,,,563198,10,1,b,-999999,11,711457,b,432,711889,Green,Congruent,b,White,0,,0,8,706460,,0,0,,,,,,,,,,,,,Pictures\white.bmp,4000,4000,Pictures\black.bmp,,,,,,,,,,10,1,10,StimulusPr,Pictures\GreenRight.bmp,NonCuedStim4,Right
POP_2,27023,1,"<?xml version=""1.0""?>\n<Clock xmlns:dt=""urn:schemas-microsoft-com:datatypes""><Description dt:dt=""string"">E-Prime Primary Realtime Clock</Description><StartTime><Timestamp dt:dt=""int"">0</Timestamp><DateUtc dt:dt=""string"">2014-05-22T21:04:40Z</DateUtc></StartTime><FrequencyChanges><FrequencyChange><Frequency dt:dt=""r8"">2793030000</Frequency><Timestamp dt:dt=""r8"">3.64700453677769E+15</Timestamp><Current dt:dt=""r8"">0</Current><DateUtc dt:dt=""string"">2014-05-22T21:04:40Z</DateUtc></FrequencyChange></FrequencyChanges></Clock>\n",60.034,1,-1950325025,0,,-999999,4,18670,t,70780,89450,5/22/2014,14:04:40,9:04:40 PM,2,Session2,SessionsList,0,,-999999,15,749405,t,33469,782874,715905,2,1,2,1,782888,,,,1,1,1,,,,Cued1,MiniBlocks1,,,,,1,1,r,-999999,7,796881,r,756,797637,White,Congruent,r,Green,0,,0,10,791884,,0,0,1,1,1,,,,,,,,,,Pictures\green.bmp,4000,4000,Pictures\left.bmp,,,,,,,,,,,,,StimulusPr,Pictures\black.bmp,CuedStim1,Left
POP_2,27023,1,"<?xml version=""1.0""?>\n<Clock xmlns:dt=""urn:schemas-microsoft-com:datatypes""><Description dt:dt=""string"">E-Prime Primary Realtime Clock</Description><StartTime><Timestamp dt:dt=""int"">0</Timestamp><DateUtc dt:dt=""string"">2014-05-22T21:04:40Z</DateUtc></StartTime><FrequencyChanges><FrequencyChange><Frequency dt:dt=""r8"">2793030000</Frequency><Timestamp dt:dt=""r8"">3.64700453677769E+15</Timestamp><Current dt:dt=""r8"">0</Current><DateUtc dt:dt=""string"">2014-05-22T21:04:40Z</DateUtc></FrequencyChange></FrequencyChanges></Clock>\n",60.034,1,-1950325025,0,,-999999,4,18670,t,70780,89450,5/22/2014,14:04:40,9:04:40 PM,2,Session2,SessionsList,0,,-999999,15,749405,t,33469,782874,715905,2,1,2,1,782888,,,,1,1,1,,,,Cued1,MiniBlocks1,,,,,2,1,b,-999999,18,809892,b,451,810343,White,Congruent,b,Green,0,,0,15,802878,,0,0,2,1,2,,,,,,,,,,Pictures\green.bmp,6000,2000,Pictures\black.bmp,,,,,,,,,,,,,StimulusPr,Pictures\right.bmp,CuedStim1,Right
POP_2,27023,1,"<?xml version=""1.0""?>\n<Clock xmlns:dt=""urn:schemas-microsoft-com:datatypes""><Description dt:dt=""string"">E-Prime Primary Realtime Clock</Description><StartTime><Timestamp dt:dt=""int"">0</Timestamp><DateUtc dt:dt=""string"">2014-05-22T21:04:40Z</DateUtc></StartTime><FrequencyChanges><FrequencyChange><Frequency dt:dt=""r8"">2793030000</Frequency><Timestamp dt:dt=""r8"">3.64700453677769E+15</Timestamp><Current dt:dt=""r8"">0</Current><DateUtc dt:dt=""string"">2014-05-22T21:04:40Z</DateUtc></FrequencyChange></FrequencyChanges></Clock>\n",60.034,1,-1950325025,0,,-999999,4,18670,t,70780,89450,5/22/2014,14:04:40,9:04:40 PM,2,Session2,SessionsList,0,,-999999,15,749405,t,33469,782874,715905,2,1,2,1,782888,,,,1,1,1,,,,Cued1,MiniBlocks1,,,,,3,1,b,-999999,13,817888,b,512,818400,White,Congruent,b,Green,0,,0,15,813890,,0,0,3,1,3,,,,,,,,,,Pictures\green.bmp,3000,2000,Pictures\black.bmp,,,,,,,,,,,,,StimulusPr,Pictures\right.bmp,CuedStim1,Right
POP_2,27023,1,"<?xml version=""1.0""?>\n<Clock xmlns:dt=""urn:schemas-microsoft-com:datatypes""><Description dt:dt=""string"">E-Prime Primary Realtime Clock</Description><StartTime><Timestamp dt:dt=""int"">0</Timestamp><DateUtc dt:dt=""string"">2014-05-22T21:04:40Z</DateUtc></StartTime><FrequencyChanges><FrequencyChange><Frequency dt:dt=""r8"">2793030000</Frequency><Timestamp dt:dt=""r8"">3.64700453677769E+15</Timestamp><Current dt:dt=""r8"">0</Current><DateUtc dt:dt=""string"">2014-05-22T21:04:40Z</DateUtc></FrequencyChange></FrequencyChanges></Clock>\n",60.034,1,-1950325025,0,,-999999,4,18670,t,70780,89450,5/22/2014,14:04:40,9:04:40 PM,2,Session2,SessionsList,0,,-999999,15,749405,t,33469,782874,715905,2,1,2,1,782888,,,,1,1,1,,,,Cued1,MiniBlocks1,,,,,4,1,b,-999999,10,825884,b,546,826430,White,Incongruent,b,Red,0,,0,12,821886,,0,0,4,1,4,,,,,,,,,,Pictures\red.bmp,3000,16000,Pictures\left.bmp,,,,,,,,,,,,,StimulusPr,Pictures\black.bmp,CuedStim1,Left
POP_2,27023,1,"<?xml version=""1.0""?>\n<Clock xmlns:dt=""urn:schemas-microsoft-com:datatypes""><Description dt:dt=""string"">E-Prime Primary Realtime Clock</Description><StartTime><Timestamp dt:dt=""int"">0</Timestamp><DateUtc dt:dt=""string"">2014-05-22T21:04:40Z</DateUtc></StartTime><FrequencyChanges><FrequencyChange><Frequency dt:dt=""r8"">2793030000</Frequency><Timestamp dt:dt=""r8"">3.64700453677769E+15</Timestamp><Current dt:dt=""r8"">0</Current><DateUtc dt:dt=""string"">2014-05-22T21:04:40Z</DateUtc></FrequencyChange></FrequencyChanges></Clock>\n",60.034,1,-1950325025,0,,-999999,4,18670,t,70780,89450,5/22/2014,14:04:40,9:04:40 PM,2,Session2,SessionsList,0,,-999999,15,749405,t,33469,782874,715905,2,1,2,1,782888,,,,1,1,1,,,,Cued1,MiniBlocks1,,,,,5,1,r,-999999,14,847889,r,583,848472,White,Congruent,r,Green,0,,0,17,843891,,0,0,5,1,5,,,,,,,,,,Pictures\green.bmp,3000,16000,Pictures\left.bmp,,,,,,,,,,,,,StimulusPr,Pictures\black.bmp,CuedStim1,Left
POP_2,27023,1,"<?xml version=""1.0""?>\n<Clock xmlns:dt=""urn:schemas-microsoft-com:datatypes""><Description dt:dt=""string"">E-Prime Primary Realtime Clock</Description><StartTime><Timestamp dt:dt=""int"">0</Timestamp><DateUtc dt:dt=""string"">2014-05-22T21:04:40Z</DateUtc></StartTime><FrequencyChanges><FrequencyChange><Frequency dt:dt=""r8"">2793030000</Frequency><Timestamp dt:dt=""r8"">3.64700453677769E+15</Timestamp><Current dt:dt=""r8"">0</Current><DateUtc dt:dt=""string"">2014-05-22T21:04:40Z</DateUtc></FrequencyChange></FrequencyChanges></Clock>\n",60.034,1,-1950325025,0,,-999999,4,18670,t,70780,89450,5/22/2014,14:04:40,9:04:40 PM,2,Session2,SessionsList,0,,-999999,15,749405,t,33469,782874,715905,2,1,2,1,782888,,,,1,1,1,,,,Cued1,MiniBlocks1,,,,,6,1,r,-999999,18,875892,r,471,876363,White,Congruent,r,Green,0,,0,11,865880,,0,0,6,1,6,,,,,,,,,,Pictures\green.bmp,9000,10000,Pictures\left.bmp,,,,,,,,,,,,,StimulusPr,Pictures\black.bmp,CuedStim1,Left
POP_2,27023,1,"<?xml version=""1.0""?>\n<Clock xmlns:dt=""urn:schemas-microsoft-com:datatypes""><Description dt:dt=""string"">E-Prime Primary Realtime Clock</Description><StartTime><Timestamp dt:dt=""int"">0</Timestamp><DateUtc dt:dt=""string"">2014-05-22T21:04:40Z</DateUtc></StartTime><FrequencyChanges><FrequencyChange><Frequency dt:dt=""r8"">2793030000</Frequency><Timestamp dt:dt=""r8"">3.64700453677769E+15</Timestamp><Current dt:dt=""r8"">0</Current><DateUtc dt:dt=""string"">2014-05-22T21:04:40Z</DateUtc></FrequencyChange></FrequencyChanges></Clock>\n",60.034,1,-1950325025,0,,-999999,4,18670,t,70780,89450,5/22/2014,14:04:40,9:04:40 PM,2,Session2,SessionsList,0,,-999999,15,749405,t,33469,782874,715905,2,1,2,1,782888,,,,1,1,1,,,,Cued1,MiniBlocks1,,,,,7,1,b,-999999,10,891884,b,633,892517,White,Congruent,b,Green,0,,0,12,887886,,0,0,7,1,7,,,,,,,,,,Pictures\green.bmp,3000,16000,Pictures\black.bmp,,,,,,,,,,,,,StimulusPr,Pictures\right.bmp,CuedStim1,Right
POP_2,27023,1,"<?xml version=""1.0""?>\n<Clock xmlns:dt=""urn:schemas-microsoft-com:datatypes""><Description dt:dt=""string"">E-Prime Primary Realtime Clock</Description><StartTime><Timestamp dt:dt=""int"">0</Timestamp><DateUtc dt:dt=""string"">2014-05-22T21:04:40Z</DateUtc></StartTime><FrequencyChanges><FrequencyChange><Frequency dt:dt=""r8"">2793030000</Frequency><Timestamp dt:dt=""r8"">3.64700453677769E+15</Timestamp><Current dt:dt=""r8"">0</Current><DateUtc dt:dt=""string"">2014-05-22T21:04:40Z</DateUtc></FrequencyChange></FrequencyChanges></Clock>\n",60.034,1,-1950325025,0,,-999999,4,18670,t,70780,89450,5/22/2014,14:04:40,9:04:40 PM,2,Session2,SessionsList,0,,-999999,15,749405,t,33469,782874,715905,2,1,2,1,782888,,,,1,1,1,,,,Cued1,MiniBlocks1,,,,,8,1,r,-999999,15,914889,r,605,915494,White,Incongruent,r,Red,0,,0,18,909892,,0,0,8,1,8,,,,,,,,,,Pictures\red.bmp,4000,2000,Pictures\black.bmp,,,,,,,,,,,,,StimulusPr,Pictures\right.bmp,CuedStim1,Right
POP_2,27023,1,"<?xml version=""1.0""?>\n<Clock xmlns:dt=""urn:schemas-microsoft-com:datatypes""><Description dt:dt=""string"">E-Prime Primary Realtime Clock</Description><StartTime><Timestamp dt:dt=""int"">0</Timestamp><DateUtc dt:dt=""string"">2014-05-22T21:04:40Z</DateUtc></StartTime><FrequencyChanges><FrequencyChange><Frequency dt:dt=""r8"">2793030000</Frequency><Timestamp dt:dt=""r8"">3.64700453677769E+15</Timestamp><Current dt:dt=""r8"">0</Current><DateUtc dt:dt=""string"">2014-05-22T21:04:40Z</DateUtc></FrequencyChange></FrequencyChanges></Clock>\n",60.034,1,-1950325025,0,,-999999,4,18670,t,70780,89450,5/22/2014,14:04:40,9:04:40 PM,2,Session2,SessionsList,0,,-999999,15,749405,t,33469,782874,715905,2,1,2,1,782888,,,,1,1,1,,,,Cued1,MiniBlocks1,,,,,9,1,b,-999999,11,923885,b,421,924306,White,Congruent,b,Green,0,,0,13,918887,,0,0,9,1,9,,,,,,,,,,Pictures\green.bmp,4000,2000,Pictures\black.bmp,,,,,,,,,,,,,StimulusPr,Pictures\right.bmp,CuedStim1,Right
POP_2,27023,1,"<?xml version=""1.0""?>\n<Clock xmlns:dt=""urn:schemas-microsoft-com:datatypes""><Description dt:dt=""string"">E-Prime Primary Realtime Clock</Description><StartTime><Timestamp dt:dt=""int"">0</Timestamp><DateUtc dt:dt=""string"">2014-05-22T21:04:40Z</DateUtc></StartTime><FrequencyChanges><FrequencyChange><Frequency dt:dt=""r8"">2793030000</Frequency><Timestamp dt:dt=""r8"">3.64700453677769E+15</Timestamp><Current dt:dt=""r8"">0</Current><DateUtc dt:dt=""string"">2014-05-22T21:04:40Z</DateUtc></FrequencyChange></FrequencyChanges></Clock>\n",60.034,1,-1950325025,0,,-999999,4,18670,t,70780,89450,5/22/2014,14:04:40,9:04:40 PM,2,Session2,SessionsList,0,,-999999,15,749405,t,33469,782874,715905,2,1,2,1,782888,,,,1,1,1,,,,Cued1,MiniBlocks1,,,,,10,1,r,-999999,7,931881,r,560,932441,White,Congruent,r,Green,0,,0,9,927883,,0,0,10,1,10,,,,,,,,,,Pictures\green.bmp,3000,2000,Pictures\left.bmp,,,,,,,,,,,,,StimulusPr,Pictures\black.bmp,CuedStim1,Left
POP_2,27023,1,"<?xml version=""1.0""?>\n<Clock xmlns:dt=""urn:schemas-microsoft-com:datatypes""><Description dt:dt=""string"">E-Prime Primary Realtime Clock</Description><StartTime><Timestamp dt:dt=""int"">0</Timestamp><DateUtc dt:dt=""string"">2014-05-22T21:04:40Z</DateUtc></StartTime><FrequencyChanges><FrequencyChange><Frequency dt:dt=""r8"">2793030000</Frequency><Timestamp dt:dt=""r8"">3.64700453677769E+15</Timestamp><Current dt:dt=""r8"">0</Current><DateUtc dt:dt=""string"">2014-05-22T21:04:40Z</DateUtc></FrequencyChange></FrequencyChanges></Clock>\n",60.034,1,-1950325025,0,,-999999,4,18670,t,70780,89450,5/22/2014,14:04:40,9:04:40 PM,2,Session2,SessionsList,0,,-999999,15,749405,t,33469,782874,715905,2,1,2,2,,,,,2,1,2,,,,NonCued1,MiniBlocks1,934463,,,,1,1,r,-999999,14,949888,r,450,950338,Green,Congruent,r,White,0,,0,11,944874,,0,0,,,,,,,,,,,,,Pictures\white.bmp,4000,2000,Pictures\GreenLeft.bmp,1,1,1,,,,,,,,,,StimulusPr,Pictures\black.bmp,NonCuedStim1,Left
POP_2,27023,1,"<?xml version=""1.0""?>\n<Clock xmlns:dt=""urn:schemas-microsoft-com:datatypes""><Description dt:dt=""string"">E-Prime Primary Realtime Clock</Description><StartTime><Timestamp dt:dt=""int"">0</Timestamp><DateUtc dt:dt=""string"">2014-05-22T21:04:40Z</DateUtc></StartTime><FrequencyChanges><FrequencyChange><Frequency dt:dt=""r8"">2793030000</Frequency><Timestamp dt:dt=""r8"">3.64700453677769E+15</Timestamp><Current dt:dt=""r8"">0</Current><DateUtc dt:dt=""string"">2014-05-22T21:04:40Z</DateUtc></FrequencyChange></FrequencyChanges></Clock>\n",60.034,1,-1950325025,0,,-999999,4,18670,t,70780,89450,5/22/2014,14:04:40,9:04:40 PM,2,Session2,SessionsList,0,,-999999,15,749405,t,33469,782874,715905,2,1,2,2,,,,,2,1,2,,,,NonCued1,MiniBlocks1,934463,,,,2,1,b,-999999,9,960883,b,533,961416,Green,Congruent,b,White,0,,0,12,953886,,0,0,,,,,,,,,,,,,Pictures\white.bmp,6000,16000,Pictures\black.bmp,2,1,2,,,,,,,,,,StimulusPr,Pictures\GreenRight.bmp,NonCuedStim1,Right
POP_2,27023,1,"<?xml version=""1.0""?>\n<Clock xmlns:dt=""urn:schemas-microsoft-com:datatypes""><Description dt:dt=""string"">E-Prime Primary Realtime Clock</Description><StartTime><Timestamp dt:dt=""int"">0</Timestamp><DateUtc dt:dt=""string"">2014-05-22T21:04:40Z</DateUtc></StartTime><FrequencyChanges><FrequencyChange><Frequency dt:dt=""r8"">2793030000</Frequency><Timestamp dt:dt=""r8"">3.64700453677769E+15</Timestamp><Current dt:dt=""r8"">0</Current><DateUtc dt:dt=""string"">2014-05-22T21:04:40Z</DateUtc></FrequencyChange></FrequencyChanges></Clock>\n",60.034,1,-1950325025,0,,-999999,4,18670,t,70780,89450,5/22/2014,14:04:40,9:04:40 PM,2,Session2,SessionsList,0,,-999999,15,749405,t,33469,782874,715905,2,1,2,2,,,,,2,1,2,,,,NonCued1,MiniBlocks1,934463,,,,3,1,r,-999999,13,985887,r,609,986496,Red,Incongruent,r,White,0,,0,10,978874,,0,0,,,,,,,,,,,,,Pictures\white.bmp,6000,10000,Pictures\black.bmp,3,1,3,,,,,,,,,,StimulusPr,Pictures\RedRight.bmp,NonCuedStim1,Right
POP_2,27023,1,"<?xml version=""1.0""?>\n<Clock xmlns:dt=""urn:schemas-microsoft-com:datatypes""><Description dt:dt=""string"">E-Prime Primary Realtime Clock</Description><StartTime><Timestamp dt:dt=""int"">0</Timestamp><DateUtc dt:dt=""string"">2014-05-22T21:04:40Z</DateUtc></StartTime><FrequencyChanges><FrequencyChange><Frequency dt:dt=""r8"">2793030000</Frequency><Timestamp dt:dt=""r8"">3.64700453677769E+15</Timestamp><Current dt:dt=""r8"">0</Current><DateUtc dt:dt=""string"">2014-05-22T21:04:40Z</DateUtc></FrequencyChange></FrequencyChanges></Clock>\n",60.034,1,-1950325025,0,,-999999,4,18670,t,70780,89450,5/22/2014,14:04:40,9:04:40 PM,2,Session2,SessionsList,0,,-999999,15,749405,t,33469,782874,715905,2,1,2,2,,,,,2,1,2,,,,NonCued1,MiniBlocks1,934463,,,,4,1,r,-999999,3,1007877,r,469,1008346,Green,Congruent,r,White,0,,0,7,997881,,0,0,,,,,,,,,,,,,Pictures\white.bmp,9000,10000,Pictures\GreenLeft.bmp,4,1,4,,,,,,,,,,StimulusPr,Pictures\black.bmp,NonCuedStim1,Left
POP_2,27023,1,"<?xml version=""1.0""?>\n<Clock xmlns:dt=""urn:schemas-microsoft-com:datatypes""><Description dt:dt=""string"">E-Prime Primary Realtime Clock</Description><StartTime><Timestamp dt:dt=""int"">0</Timestamp><DateUtc dt:dt=""string"">2014-05-22T21:04:40Z</DateUtc></StartTime><FrequencyChanges><FrequencyChange><Frequency dt:dt=""r8"">2793030000</Frequency><Timestamp dt:dt=""r8"">3.64700453677769E+15</Timestamp><Current dt:dt=""r8"">0</Current><DateUtc dt:dt=""string"">2014-05-22T21:04:40Z</DateUtc></FrequencyChange></FrequencyChanges></Clock>\n",60.034,1,-1950325025,0,,-999999,4,18670,t,70780,89450,5/22/2014,14:04:40,9:04:40 PM,2,Session2,SessionsList,0,,-999999,15,749405,t,33469,782874,715905,2,1,2,2,,,,,2,1,2,,,,NonCued1,MiniBlocks1,934463,,,,5,1,b,-999999,4,1023868,b,445,1024313,Green,Congruent,b,White,0,,0,13,1019887,,0,0,,,,,,,,,,,,,Pictures\white.bmp,3000,2000,Pictures\black.bmp,5,1,5,,,,,,,,,,StimulusPr,Pictures\GreenRight.bmp,NonCuedStim1,Right
POP_2,27023,1,"<?xml version=""1.0""?>\n<Clock xmlns:dt=""urn:schemas-microsoft-com:datatypes""><Description dt:dt=""string"">E-Prime Primary Realtime Clock</Description><StartTime><Timestamp dt:dt=""int"">0</Timestamp><DateUtc dt:dt=""string"">2014-05-22T21:04:40Z</DateUtc></StartTime><FrequencyChanges><FrequencyChange><Frequency dt:dt=""r8"">2793030000</Frequency><Timestamp dt:dt=""r8"">3.64700453677769E+15</Timestamp><Current dt:dt=""r8"">0</Current><DateUtc dt:dt=""string"">2014-05-22T21:04:40Z</DateUtc></FrequencyChange></FrequencyChanges></Clock>\n",60.034,1,-1950325025,0,,-999999,4,18670,t,70780,89450,5/22/2014,14:04:40,9:04:40 PM,2,Session2,SessionsList,0,,-999999,15,749405,t,33469,782874,715905,2,1,2,2,,,,,2,1,2,,,,NonCued1,MiniBlocks1,934463,,,,6,1,b,-999999,10,1032880,b,725,1033605,Red,Incongruent,b,White,0,,0,9,1027883,,0,0,,,,,,,,,,,,,Pictures\white.bmp,4000,16000,Pictures\RedLeft.bmp,6,1,6,,,,,,,,,,StimulusPr,Pictures\black.bmp,NonCuedStim1,Left
POP_2,27023,1,"<?xml version=""1.0""?>\n<Clock xmlns:dt=""urn:schemas-microsoft-com:datatypes""><Description dt:dt=""string"">E-Prime Primary Realtime Clock</Description><StartTime><Timestamp dt:dt=""int"">0</Timestamp><DateUtc dt:dt=""string"">2014-05-22T21:04:40Z</DateUtc></StartTime><FrequencyChanges><FrequencyChange><Frequency dt:dt=""r8"">2793030000</Frequency><Timestamp dt:dt=""r8"">3.64700453677769E+15</Timestamp><Current dt:dt=""r8"">0</Current><DateUtc dt:dt=""string"">2014-05-22T21:04:40Z</DateUtc></FrequencyChange></FrequencyChanges></Clock>\n",60.034,1,-1950325025,0,,-999999,4,18670,t,70780,89450,5/22/2014,14:04:40,9:04:40 PM,2,Session2,SessionsList,0,,-999999,15,749405,t,33469,782874,715905,2,1,2,2,,,,,2,1,2,,,,NonCued1,MiniBlocks1,934463,,,,7,1,b,-999999,12,1054886,b,457,1055343,Green,Congruent,b,White,0,,0,14,1050888,,0,0,,,,,,,,,,,,,Pictures\white.bmp,3000,4000,Pictures\black.bmp,7,1,7,,,,,,,,,,StimulusPr,Pictures\GreenRight.bmp,NonCuedStim1,Right
POP_2,27023,1,"<?xml version=""1.0""?>\n<Clock xmlns:dt=""urn:schemas-microsoft-com:datatypes""><Description dt:dt=""string"">E-Prime Primary Realtime Clock</Description><StartTime><Timestamp dt:dt=""int"">0</Timestamp><DateUtc dt:dt=""string"">2014-05-22T21:04:40Z</DateUtc></StartTime><FrequencyChanges><FrequencyChange><Frequency dt:dt=""r8"">2793030000</Frequency><Timestamp dt:dt=""r8"">3.64700453677769E+15</Timestamp><Current dt:dt=""r8"">0</Current><DateUtc dt:dt=""string"">2014-05-22T21:04:40Z</DateUtc></FrequencyChange></FrequencyChanges></Clock>\n",60.034,1,-1950325025,0,,-999999,4,18670,t,70780,89450,5/22/2014,14:04:40,9:04:40 PM,2,Session2,SessionsList,0,,-999999,15,749405,t,33469,782874,715905,2,1,2,2,,,,,2,1,2,,,,NonCued1,MiniBlocks1,934463,,,,8,1,b,-999999,15,1064881,b,458,1065339,Green,Congruent,b,White,0,,0,9,1060883,,0,0,,,,,,,,,,,,,Pictures\white.bmp,3000,4000,Pictures\black.bmp,8,1,8,,,,,,,,,,StimulusPr,Pictures\GreenRight.bmp,NonCuedStim1,Right
POP_2,27023,1,"<?xml version=""1.0""?>\n<Clock xmlns:dt=""urn:schemas-microsoft-com:datatypes""><Description dt:dt=""string"">E-Prime Primary Realtime Clock</Description><StartTime><Timestamp dt:dt=""int"">0</Timestamp><DateUtc dt:dt=""string"">2014-05-22T21:04:40Z</DateUtc></StartTime><FrequencyChanges><FrequencyChange><Frequency dt:dt=""r8"">2793030000</Frequency><Timestamp dt:dt=""r8"">3.64700453677769E+15</Timestamp><Current dt:dt=""r8"">0</Current><DateUtc dt:dt=""string"">2014-05-22T21:04:40Z</DateUtc></FrequencyChange></FrequencyChanges></Clock>\n",60.034,1,-1950325025,0,,-999999,4,18670,t,70780,89450,5/22/2014,14:04:40,9:04:40 PM,2,Session2,SessionsList,0,,-999999,15,749405,t,33469,782874,715905,2,1,2,2,,,,,2,1,2,,,,NonCued1,MiniBlocks1,934463,,,,9,1,b,-999999,18,1080890,b,778,1081668,Red,Incongruent,b,White,0,,0,12,1070878,,0,0,,,,,,,,,,,,,Pictures\white.bmp,9000,2000,Pictures\RedLeft.bmp,9,1,9,,,,,,,,,,StimulusPr,Pictures\black.bmp,NonCuedStim1,Left
POP_2,27023,1,"<?xml version=""1.0""?>\n<Clock xmlns:dt=""urn:schemas-microsoft-com:datatypes""><Description dt:dt=""string"">E-Prime Primary Realtime Clock</Description><StartTime><Timestamp dt:dt=""int"">0</Timestamp><DateUtc dt:dt=""string"">2014-05-22T21:04:40Z</DateUtc></StartTime><FrequencyChanges><FrequencyChange><Frequency dt:dt=""r8"">2793030000</Frequency><Timestamp dt:dt=""r8"">3.64700453677769E+15</Timestamp><Current dt:dt=""r8"">0</Current><DateUtc dt:dt=""string"">2014-05-22T21:04:40Z</DateUtc></FrequencyChange></FrequencyChanges></Clock>\n",60.034,1,-1950325025,0,,-999999,4,18670,t,70780,89450,5/22/2014,14:04:40,9:04:40 PM,2,Session2,SessionsList,0,,-999999,15,749405,t,33469,782874,715905,2,1,2,2,,,,,2,1,2,,,,NonCued1,MiniBlocks1,934463,,,,10,1,r,-999999,10,1091884,r,684,1092568,Green,Congruent,r,White,0,,0,14,1084888,,0,0,,,,,,,,,,,,,Pictures\white.bmp,6000,2000,Pictures\GreenLeft.bmp,10,1,10,,,,,,,,,,StimulusPr,Pictures\black.bmp,NonCuedStim1,Left
POP_2,27023,1,"<?xml version=""1.0""?>\n<Clock xmlns:dt=""urn:schemas-microsoft-com:datatypes""><Description dt:dt=""string"">E-Prime Primary Realtime Clock</Description><StartTime><Timestamp dt:dt=""int"">0</Timestamp><DateUtc dt:dt=""string"">2014-05-22T21:04:40Z</DateUtc></StartTime><FrequencyChanges><FrequencyChange><Frequency dt:dt=""r8"">2793030000</Frequency><Timestamp dt:dt=""r8"">3.64700453677769E+15</Timestamp><Current dt:dt=""r8"">0</Current><DateUtc dt:dt=""string"">2014-05-22T21:04:40Z</DateUtc></FrequencyChange></FrequencyChanges></Clock>\n",60.034,1,-1950325025,0,,-999999,4,18670,t,70780,89450,5/22/2014,14:04:40,9:04:40 PM,2,Session2,SessionsList,0,,-999999,15,749405,t,33469,782874,715905,2,1,2,3,,,,,3,1,3,,,,NonCued2,MiniBlocks1,,1094599,,,1,1,b,-999999,15,1114889,b,433,1115322,Green,Congruent,b,White,0,,0,9,1104878,,0,0,,,,,,,,,,,,,Pictures\white.bmp,9000,10000,Pictures\black.bmp,,,,1,1,1,,,,,,,StimulusPr,Pictures\GreenRight.bmp,NonCuedStim2,Right
POP_2,27023,1,"<?xml version=""1.0""?>\n<Clock xmlns:dt=""urn:schemas-microsoft-com:datatypes""><Description dt:dt=""string"">E-Prime Primary Realtime Clock</Description><StartTime><Timestamp dt:dt=""int"">0</Timestamp><DateUtc dt:dt=""string"">2014-05-22T21:04:40Z</DateUtc></StartTime><FrequencyChanges><FrequencyChange><Frequency dt:dt=""r8"">2793030000</Frequency><Timestamp dt:dt=""r8"">3.64700453677769E+15</Timestamp><Current dt:dt=""r8"">0</Current><DateUtc dt:dt=""string"">2014-05-22T21:04:40Z</DateUtc></FrequencyChange></FrequencyChanges></Clock>\n",60.034,1,-1950325025,0,,-999999,4,18670,t,70780,89450,5/22/2014,14:04:40,9:04:40 PM,2,Session2,SessionsList,0,,-999999,15,749405,t,33469,782874,715905,2,1,2,3,,,,,3,1,3,,,,NonCued2,MiniBlocks1,,1094599,,,2,1,r,-999999,7,1130881,r,578,1131459,Green,Congruent,r,White,0,,0,9,1126883,,0,0,,,,,,,,,,,,,Pictures\white.bmp,3000,2000,Pictures\GreenLeft.bmp,,,,2,1,2,,,,,,,StimulusPr,Pictures\black.bmp,NonCuedStim2,Left
POP_2,27023,1,"<?xml version=""1.0""?>\n<Clock xmlns:dt=""urn:schemas-microsoft-com:datatypes""><Description dt:dt=""string"">E-Prime Primary Realtime Clock</Description><StartTime><Timestamp dt:dt=""int"">0</Timestamp><DateUtc dt:dt=""string"">2014-05-22T21:04:40Z</DateUtc></StartTime><FrequencyChanges><FrequencyChange><Frequency dt:dt=""r8"">2793030000</Frequency><Timestamp dt:dt=""r8"">3.64700453677769E+15</Timestamp><Current dt:dt=""r8"">0</Current><DateUtc dt:dt=""string"">2014-05-22T21:04:40Z</DateUtc></FrequencyChange></FrequencyChanges></Clock>\n",60.034,1,-1950325025,0,,-999999,4,18670,t,70780,89450,5/22/2014,14:04:40,9:04:40 PM,2,Session2,SessionsList,0,,-999999,15,749405,t,33469,782874,715905,2,1,2,3,,,,,3,1,3,,,,NonCued2,MiniBlocks1,,1094599,,,3,1,r,-999999,3,1138877,r,733,1139610,Red,Incongruent,r,White,0,,0,16,1134879,,0,0,,,,,,,,,,,,,Pictures\white.bmp,3000,2000,Pictures\black.bmp,,,,3,1,3,,,,,,,StimulusPr,Pictures\RedRight.bmp,NonCuedStim2,Right
POP_2,27023,1,"<?xml version=""1.0""?>\n<Clock xmlns:dt=""urn:schemas-microsoft-com:datatypes""><Description dt:dt=""string"">E-Prime Primary Realtime Clock</Description><StartTime><Timestamp dt:dt=""int"">0</Timestamp><DateUtc dt:dt=""string"">2014-05-22T21:04:40Z</DateUtc></StartTime><FrequencyChanges><FrequencyChange><Frequency dt:dt=""r8"">2793030000</Frequency><Timestamp dt:dt=""r8"">3.64700453677769E+15</Timestamp><Current dt:dt=""r8"">0</Current><DateUtc dt:dt=""string"">2014-05-22T21:04:40Z</DateUtc></FrequencyChange></FrequencyChanges></Clock>\n",60.034,1,-1950325025,0,,-999999,4,18670,t,70780,89450,5/22/2014,14:04:40,9:04:40 PM,2,Session2,SessionsList,0,,-999999,15,749405,t,33469,782874,715905,2,1,2,3,,,,,3,1,3,,,,NonCued2,MiniBlocks1,,1094599,,,4,1,r,-999999,15,1147889,r,563,1148452,Green,Congruent,r,White,0,,0,2,1142876,,0,0,,,,,,,,,,,,,Pictures\white.bmp,4000,16000,Pictures\GreenLeft.bmp,,,,4,1,4,,,,,,,StimulusPr,Pictures\black.bmp,NonCuedStim2,Left
POP_2,27023,1,"<?xml version=""1.0""?>\n<Clock xmlns:dt=""urn:schemas-microsoft-com:datatypes""><Description dt:dt=""string"">E-Prime Primary Realtime Clock</Description><StartTime><Timestamp dt:dt=""int"">0</Timestamp><DateUtc dt:dt=""string"">2014-05-22T21:04:40Z</DateUtc></StartTime><FrequencyChanges><FrequencyChange><Frequency dt:dt=""r8"">2793030000</Frequency><Timestamp dt:dt=""r8"">3.64700453677769E+15</Timestamp><Current dt:dt=""r8"">0</Current><DateUtc dt:dt=""string"">2014-05-22T21:04:40Z</DateUtc></FrequencyChange></FrequencyChanges></Clock>\n",60.034,1,-1950325025,0,,-999999,4,18670,t,70780,89450,5/22/2014,14:04:40,9:04:40 PM,2,Session2,SessionsList,0,,-999999,15,749405,t,33469,782874,715905,2,1,2,3,,,,,3,1,3,,,,NonCued2,MiniBlocks1,,1094599,,,5,1,r,-999999,3,1172877,r,524,1173401,Green,Congruent,r,White,0,,0,7,1165881,,0,0,,,,,,,,,,,,,Pictures\white.bmp,6000,4000,Pictures\GreenLeft.bmp,,,,5,1,5,,,,,,,StimulusPr,Pictures\black.bmp,NonCuedStim2,Left
POP_2,27023,1,"<?xml version=""1.0""?>\n<Clock xmlns:dt=""urn:schemas-microsoft-com:datatypes""><Description dt:dt=""string"">E-Prime Primary Realtime Clock</Description><StartTime><Timestamp dt:dt=""int"">0</Timestamp><DateUtc dt:dt=""string"">2014-05-22T21:04:40Z</DateUtc></StartTime><FrequencyChanges><FrequencyChange><Frequency dt:dt=""r8"">2793030000</Frequency><Timestamp dt:dt=""r8"">3.64700453677769E+15</Timestamp><Current dt:dt=""r8"">0</Current><DateUtc dt:dt=""string"">2014-05-22T21:04:40Z</DateUtc></FrequencyChange></FrequencyChanges></Clock>\n",60.034,1,-1950325025,0,,-999999,4,18670,t,70780,89450,5/22/2014,14:04:40,9:04:40 PM,2,Session2,SessionsList,0,,-999999,15,749405,t,33469,782874,715905,2,1,2,3,,,,,3,1,3,,,,NonCued2,MiniBlocks1,,1094599,,,6,1,b,-999999,15,1182889,b,701,1183590,Red,Incongruent,b,White,0,,0,17,1178891,,0,0,,,,,,,,,,,,,Pictures\white.bmp,3000,4000,Pictures\RedLeft.bmp,,,,6,1,6,,,,,,,StimulusPr,Pictures\black.bmp,NonCuedStim2,Left
POP_2,27023,1,"<?xml version=""1.0""?>\n<Clock xmlns:dt=""urn:schemas-microsoft-com:datatypes""><Description dt:dt=""string"">E-Prime Primary Realtime Clock</Description><StartTime><Timestamp dt:dt=""int"">0</Timestamp><DateUtc dt:dt=""string"">2014-05-22T21:04:40Z</DateUtc></StartTime><FrequencyChanges><FrequencyChange><Frequency dt:dt=""r8"">2793030000</Frequency><Timestamp dt:dt=""r8"">3.64700453677769E+15</Timestamp><Current dt:dt=""r8"">0</Current><DateUtc dt:dt=""string"">2014-05-22T21:04:40Z</DateUtc></FrequencyChange></FrequencyChanges></Clock>\n",60.034,1,-1950325025,0,,-999999,4,18670,t,70780,89450,5/22/2014,14:04:40,9:04:40 PM,2,Session2,SessionsList,0,,-999999,15,749405,t,33469,782874,715905,2,1,2,3,,,,,3,1,3,,,,NonCued2,MiniBlocks1,,1094599,,,7,1,b,-999999,9,1193883,b,442,1194325,Green,Congruent,b,White,0,,0,12,1188886,,0,0,,,,,,,,,,,,,Pictures\white.bmp,4000,16000,Pictures\black.bmp,,,,7,1,7,,,,,,,StimulusPr,Pictures\GreenRight.bmp,NonCuedStim2,Right
POP_2,27023,1,"<?xml version=""1.0""?>\n<Clock xmlns:dt=""urn:schemas-microsoft-com:datatypes""><Description dt:dt=""string"">E-Prime Primary Realtime Clock</Description><StartTime><Timestamp dt:dt=""int"">0</Timestamp><DateUtc dt:dt=""string"">2014-05-22T21:04:40Z</DateUtc></StartTime><FrequencyChanges><FrequencyChange><Frequency dt:dt=""r8"">2793030000</Frequency><Timestamp dt:dt=""r8"">3.64700453677769E+15</Timestamp><Current dt:dt=""r8"">0</Current><DateUtc dt:dt=""string"">2014-05-22T21:04:40Z</DateUtc></FrequencyChange></FrequencyChanges></Clock>\n",60.034,1,-1950325025,0,,-999999,4,18670,t,70780,89450,5/22/2014,14:04:40,9:04:40 PM,2,Session2,SessionsList,0,,-999999,15,749405,t,33469,782874,715905,2,1,2,3,,,,,3,1,3,,,,NonCued2,MiniBlocks1,,1094599,,,8,1,r,-999999,12,1221886,r,762,1222648,Green,Congruent,r,White,0,,0,5,1211874,,0,0,,,,,,,,,,,,,Pictures\white.bmp,9000,2000,Pictures\GreenLeft.bmp,,,,8,1,8,,,,,,,StimulusPr,Pictures\black.bmp,NonCuedStim2,Left
POP_2,27023,1,"<?xml version=""1.0""?>\n<Clock xmlns:dt=""urn:schemas-microsoft-com:datatypes""><Description dt:dt=""string"">E-Prime Primary Realtime Clock</Description><StartTime><Timestamp dt:dt=""int"">0</Timestamp><DateUtc dt:dt=""string"">2014-05-22T21:04:40Z</DateUtc></StartTime><FrequencyChanges><FrequencyChange><Frequency dt:dt=""r8"">2793030000</Frequency><Timestamp dt:dt=""r8"">3.64700453677769E+15</Timestamp><Current dt:dt=""r8"">0</Current><DateUtc dt:dt=""string"">2014-05-22T21:04:40Z</DateUtc></FrequencyChange></FrequencyChanges></Clock>\n",60.034,1,-1950325025,0,,-999999,4,18670,t,70780,89450,5/22/2014,14:04:40,9:04:40 PM,2,Session2,SessionsList,0,,-999999,15,749405,t,33469,782874,715905,2,1,2,3,,,,,3,1,3,,,,NonCued2,MiniBlocks1,,1094599,,,9,1,b,-999999,8,1229882,b,488,1230370,Green,Congruent,b,White,0,,0,10,1225884,,0,0,,,,,,,,,,,,,Pictures\white.bmp,3000,10000,Pictures\black.bmp,,,,9,1,9,,,,,,,StimulusPr,Pictures\GreenRight.bmp,NonCuedStim2,Right
POP_2,27023,1,"<?xml version=""1.0""?>\n<Clock xmlns:dt=""urn:schemas-microsoft-com:datatypes""><Description dt:dt=""string"">E-Prime Primary Realtime Clock</Description><StartTime><Timestamp dt:dt=""int"">0</Timestamp><DateUtc dt:dt=""string"">2014-05-22T21:04:40Z</DateUtc></StartTime><FrequencyChanges><FrequencyChange><Frequency dt:dt=""r8"">2793030000</Frequency><Timestamp dt:dt=""r8"">3.64700453677769E+15</Timestamp><Current dt:dt=""r8"">0</Current><DateUtc dt:dt=""string"">2014-05-22T21:04:40Z</DateUtc></FrequencyChange></FrequencyChanges></Clock>\n",60.034,1,-1950325025,0,,-999999,4,18670,t,70780,89450,5/22/2014,14:04:40,9:04:40 PM,2,Session2,SessionsList,0,,-999999,15,749405,t,33469,782874,715905,2,1,2,3,,,,,3,1,3,,,,NonCued2,MiniBlocks1,,1094599,,,10,1,b,-999999,17,1245891,b,473,1246364,Green,Congruent,b,White,0,,0,4,1241876,,0,0,,,,,,,,,,,,,Pictures\white.bmp,3000,2000,Pictures\black.bmp,,,,10,1,10,,,,,,,StimulusPr,Pictures\GreenRight.bmp,NonCuedStim2,Right
POP_2,27023,1,"<?xml version=""1.0""?>\n<Clock xmlns:dt=""urn:schemas-microsoft-com:datatypes""><Description dt:dt=""string"">E-Prime Primary Realtime Clock</Description><StartTime><Timestamp dt:dt=""int"">0</Timestamp><DateUtc dt:dt=""string"">2014-05-22T21:04:40Z</DateUtc></StartTime><FrequencyChanges><FrequencyChange><Frequency dt:dt=""r8"">2793030000</Frequency><Timestamp dt:dt=""r8"">3.64700453677769E+15</Timestamp><Current dt:dt=""r8"">0</Current><DateUtc dt:dt=""string"">2014-05-22T21:04:40Z</DateUtc></FrequencyChange></FrequencyChanges></Clock>\n",60.034,1,-1950325025,0,,-999999,4,18670,t,70780,89450,5/22/2014,14:04:40,9:04:40 PM,2,Session2,SessionsList,0,,-999999,15,749405,t,33469,782874,715905,2,1,2,4,,1248389,,,4,1,4,,,,Cued2,MiniBlocks1,,,,,1,1,b,-999999,7,1265881,b,381,1266262,White,Congruent,b,Green,0,,0,10,1258884,,0,0,,,,1,1,1,,,,,,,Pictures\green.bmp,6000,4000,Pictures\black.bmp,,,,,,,,,,,,,StimulusPr,Pictures\right.bmp,CuedStim2,Right
POP_2,27023,1,"<?xml version=""1.0""?>\n<Clock xmlns:dt=""urn:schemas-microsoft-com:datatypes""><Description dt:dt=""string"">E-Prime Primary Realtime Clock</Description><StartTime><Timestamp dt:dt=""int"">0</Timestamp><DateUtc dt:dt=""string"">2014-05-22T21:04:40Z</DateUtc></StartTime><FrequencyChanges><FrequencyChange><Frequency dt:dt=""r8"">2793030000</Frequency><Timestamp dt:dt=""r8"">3.64700453677769E+15</Timestamp><Current dt:dt=""r8"">0</Current><DateUtc dt:dt=""string"">2014-05-22T21:04:40Z</DateUtc></FrequencyChange></FrequencyChanges></Clock>\n",60.034,1,-1950325025,0,,-999999,4,18670,t,70780,89450,5/22/2014,14:04:40,9:04:40 PM,2,Session2,SessionsList,0,,-999999,15,749405,t,33469,782874,715905,2,1,2,4,,1248389,,,4,1,4,,,,Cued2,MiniBlocks1,,,,,2,1,b,-999999,15,1281889,b,479,1282368,White,Congruent,b,Green,0,,0,4,1271878,,0,0,,,,2,1,2,,,,,,,Pictures\green.bmp,9000,10000,Pictures\black.bmp,,,,,,,,,,,,,StimulusPr,Pictures\right.bmp,CuedStim2,Right
POP_2,27023,1,"<?xml version=""1.0""?>\n<Clock xmlns:dt=""urn:schemas-microsoft-com:datatypes""><Description dt:dt=""string"">E-Prime Primary Realtime Clock</Description><StartTime><Timestamp dt:dt=""int"">0</Timestamp><DateUtc dt:dt=""string"">2014-05-22T21:04:40Z</DateUtc></StartTime><FrequencyChanges><FrequencyChange><Frequency dt:dt=""r8"">2793030000</Frequency><Timestamp dt:dt=""r8"">3.64700453677769E+15</Timestamp><Current dt:dt=""r8"">0</Current><DateUtc dt:dt=""string"">2014-05-22T21:04:40Z</DateUtc></FrequencyChange></FrequencyChanges></Clock>\n",60.034,1,-1950325025,0,,-999999,4,18670,t,70780,89450,5/22/2014,14:04:40,9:04:40 PM,2,Session2,SessionsList,0,,-999999,15,749405,t,33469,782874,715905,2,1,2,4,,1248389,,,4,1,4,,,,Cued2,MiniBlocks1,,,,,3,1,r,-999999,7,1297881,r,508,1298389,White,Incongruent,r,Red,0,,0,9,1293883,,0,0,,,,3,1,3,,,,,,,Pictures\red.bmp,3000,2000,Pictures\black.bmp,,,,,,,,,,,,,StimulusPr,Pictures\right.bmp,CuedStim2,Right
POP_2,27023,1,"<?xml version=""1.0""?>\n<Clock xmlns:dt=""urn:schemas-microsoft-com:datatypes""><Description dt:dt=""string"">E-Prime Primary Realtime Clock</Description><StartTime><Timestamp dt:dt=""int"">0</Timestamp><DateUtc dt:dt=""string"">2014-05-22T21:04:40Z</DateUtc></StartTime><FrequencyChanges><FrequencyChange><Frequency dt:dt=""r8"">2793030000</Frequency><Timestamp dt:dt=""r8"">3.64700453677769E+15</Timestamp><Current dt:dt=""r8"">0</Current><DateUtc dt:dt=""string"">2014-05-22T21:04:40Z</DateUtc></FrequencyChange></FrequencyChanges></Clock>\n",60.034,1,-1950325025,0,,-999999,4,18670,t,70780,89450,5/22/2014,14:04:40,9:04:40 PM,2,Session2,SessionsList,0,,-999999,15,749405,t,33469,782874,715905,2,1,2,4,,1248389,,,4,1,4,,,,Cued2,MiniBlocks1,,,,,4,1,r,-999999,18,1308892,r,384,1309276,White,Congruent,r,Green,0,,0,5,1301879,,0,0,,,,4,1,4,,,,,,,Pictures\green.bmp,6000,16000,Pictures\left.bmp,,,,,,,,,,,,,StimulusPr,Pictures\black.bmp,CuedStim2,Left
POP_2,27023,1,"<?xml version=""1.0""?>\n<Clock xmlns:dt=""urn:schemas-microsoft-com:datatypes""><Description dt:dt=""string"">E-Prime Primary Realtime Clock</Description><StartTime><Timestamp dt:dt=""int"">0</Timestamp><DateUtc dt:dt=""string"">2014-05-22T21:04:40Z</DateUtc></StartTime><FrequencyChanges><FrequencyChange><Frequency dt:dt=""r8"">2793030000</Frequency><Timestamp dt:dt=""r8"">3.64700453677769E+15</Timestamp><Current dt:dt=""r8"">0</Current><DateUtc dt:dt=""string"">2014-05-22T21:04:40Z</DateUtc></FrequencyChange></FrequencyChanges></Clock>\n",60.034,1,-1950325025,0,,-999999,4,18670,t,70780,89450,5/22/2014,14:04:40,9:04:40 PM,2,Session2,SessionsList,0,,-999999,15,749405,t,33469,782874,715905,2,1,2,4,,1248389,,,4,1,4,,,,Cued2,MiniBlocks1,,,,,5,1,b,-999999,7,1330881,b,403,1331284,White,Congruent,b,Green,0,,0,4,1326867,,0,0,,,,5,1,5,,,,,,,Pictures\green.bmp,3000,2000,Pictures\black.bmp,,,,,,,,,,,,,StimulusPr,Pictures\right.bmp,CuedStim2,Right
POP_2,27023,1,"<?xml version=""1.0""?>\n<Clock xmlns:dt=""urn:schemas-microsoft-com:datatypes""><Description dt:dt=""string"">E-Prime Primary Realtime Clock</Description><StartTime><Timestamp dt:dt=""int"">0</Timestamp><DateUtc dt:dt=""string"">2014-05-22T21:04:40Z</DateUtc></StartTime><FrequencyChanges><FrequencyChange><Frequency dt:dt=""r8"">2793030000</Frequency><Timestamp dt:dt=""r8"">3.64700453677769E+15</Timestamp><Current dt:dt=""r8"">0</Current><DateUtc dt:dt=""string"">2014-05-22T21:04:40Z</DateUtc></FrequencyChange></FrequencyChanges></Clock>\n",60.034,1,-1950325025,0,,-999999,4,18670,t,70780,89450,5/22/2014,14:04:40,9:04:40 PM,2,Session2,SessionsList,0,,-999999,15,749405,t,33469,782874,715905,2,1,2,4,,1248389,,,4,1,4,,,,Cued2,MiniBlocks1,,,,,6,1,r,-999999,3,1338877,r,389,1339266,White,Congruent,r,Green,0,,0,6,1334880,,0,0,,,,6,1,6,,,,,,,Pictures\green.bmp,3000,2000,Pictures\left.bmp,,,,,,,,,,,,,StimulusPr,Pictures\black.bmp,CuedStim2,Left
POP_2,27023,1,"<?xml version=""1.0""?>\n<Clock xmlns:dt=""urn:schemas-microsoft-com:datatypes""><Description dt:dt=""string"">E-Prime Primary Realtime Clock</Description><StartTime><Timestamp dt:dt=""int"">0</Timestamp><DateUtc dt:dt=""string"">2014-05-22T21:04:40Z</DateUtc></StartTime><FrequencyChanges><FrequencyChange><Frequency dt:dt=""r8"">2793030000</Frequency><Timestamp dt:dt=""r8"">3.64700453677769E+15</Timestamp><Current dt:dt=""r8"">0</Current><DateUtc dt:dt=""string"">2014-05-22T21:04:40Z</DateUtc></FrequencyChange></FrequencyChanges></Clock>\n",60.034,1,-1950325025,0,,-999999,4,18670,t,70780,89450,5/22/2014,14:04:40,9:04:40 PM,2,Session2,SessionsList,0,,-999999,15,749405,t,33469,782874,715905,2,1,2,4,,1248389,,,4,1,4,,,,Cued2,MiniBlocks1,,,,,7,1,b,-999999,15,1349889,b,439,1350328,White,Incongruent,b,Red,0,,0,2,1342876,,0,0,,,,7,1,7,,,,,,,Pictures\red.bmp,6000,4000,Pictures\left.bmp,,,,,,,,,,,,,StimulusPr,Pictures\black.bmp,CuedStim2,Left
POP_2,27023,1,"<?xml version=""1.0""?>\n<Clock xmlns:dt=""urn:schemas-microsoft-com:datatypes""><Description dt:dt=""string"">E-Prime Primary Realtime Clock</Description><StartTime><Timestamp dt:dt=""int"">0</Timestamp><DateUtc dt:dt=""string"">2014-05-22T21:04:40Z</DateUtc></StartTime><FrequencyChanges><FrequencyChange><Frequency dt:dt=""r8"">2793030000</Frequency><Timestamp dt:dt=""r8"">3.64700453677769E+15</Timestamp><Current dt:dt=""r8"">0</Current><DateUtc dt:dt=""string"">2014-05-22T21:04:40Z</DateUtc></FrequencyChange></FrequencyChanges></Clock>\n",60.034,1,-1950325025,0,,-999999,4,18670,t,70780,89450,5/22/2014,14:04:40,9:04:40 PM,2,Session2,SessionsList,0,,-999999,15,749405,t,33469,782874,715905,2,1,2,4,,1248389,,,4,1,4,,,,Cued2,MiniBlocks1,,,,,8,1,b,-999999,9,1360883,b,478,1361361,White,Congruent,b,Green,0,,0,12,1355886,,0,0,,,,8,1,8,,,,,,,Pictures\green.bmp,4000,4000,Pictures\black.bmp,,,,,,,,,,,,,StimulusPr,Pictures\right.bmp,CuedStim2,Right
POP_2,27023,1,"<?xml version=""1.0""?>\n<Clock xmlns:dt=""urn:schemas-microsoft-com:datatypes""><Description dt:dt=""string"">E-Prime Primary Realtime Clock</Description><StartTime><Timestamp dt:dt=""int"">0</Timestamp><DateUtc dt:dt=""string"">2014-05-22T21:04:40Z</DateUtc></StartTime><FrequencyChanges><FrequencyChange><Frequency dt:dt=""r8"">2793030000</Frequency><Timestamp dt:dt=""r8"">3.64700453677769E+15</Timestamp><Current dt:dt=""r8"">0</Current><DateUtc dt:dt=""string"">2014-05-22T21:04:40Z</DateUtc></FrequencyChange></FrequencyChanges></Clock>\n",60.034,1,-1950325025,0,,-999999,4,18670,t,70780,89450,5/22/2014,14:04:40,9:04:40 PM,2,Session2,SessionsList,0,,-999999,15,749405,t,33469,782874,715905,2,1,2,4,,1248389,,,4,1,4,,,,Cued2,MiniBlocks1,,,,,9,1,b,-999999,18,1376892,b,551,1377443,White,Incongruent,b,Red,0,,0,6,1366880,,0,0,,,,9,1,9,,,,,,,Pictures\red.bmp,9000,10000,Pictures\left.bmp,,,,,,,,,,,,,StimulusPr,Pictures\black.bmp,CuedStim2,Left
POP_2,27023,1,"<?xml version=""1.0""?>\n<Clock xmlns:dt=""urn:schemas-microsoft-com:datatypes""><Description dt:dt=""string"">E-Prime Primary Realtime Clock</Description><StartTime><Timestamp dt:dt=""int"">0</Timestamp><DateUtc dt:dt=""string"">2014-05-22T21:04:40Z</DateUtc></StartTime><FrequencyChanges><FrequencyChange><Frequency dt:dt=""r8"">2793030000</Frequency><Timestamp dt:dt=""r8"">3.64700453677769E+15</Timestamp><Current dt:dt=""r8"">0</Current><DateUtc dt:dt=""string"">2014-05-22T21:04:40Z</DateUtc></FrequencyChange></FrequencyChanges></Clock>\n",60.034,1,-1950325025,0,,-999999,4,18670,t,70780,89450,5/22/2014,14:04:40,9:04:40 PM,2,Session2,SessionsList,0,,-999999,15,749405,t,33469,782874,715905,2,1,2,4,,1248389,,,4,1,4,,,,Cued2,MiniBlocks1,,,,,10,1,r,-999999,7,1398881,r,583,1399464,White,Congruent,r,Green,0,,0,12,1388886,,0,0,,,,10,1,10,,,,,,,Pictures\green.bmp,9000,10000,Pictures\left.bmp,,,,,,,,,,,,,StimulusPr,Pictures\black.bmp,CuedStim2,Left
