ExperimentName,Subject,Session,Clock.Information,Display.RefreshRate,Group,RandomSeed,Session1Onset.ACC,Session1Onset.CRESP,Session1Onset.DurationError,Session1Onset.OnsetDelay,Session1Onset.OnsetTime,Session1Onset.RESP,Session1Onset.RT,Session1Onset.RTTime,SessionDate,SessionTime,SessionTimeUtc,Block,Procedure[Block],Running[Block],Session2Onset.ACC,Session2Onset.CRESP,Session2Onset.DurationError,Session2Onset.OnsetDelay,Session2Onset.OnsetTime,Session2Onset.RESP,Session2Onset.RT,Session2Onset.RTTime,SessionBreak.OnsetTime,SessionsList,SessionsList.Cycle,SessionsList.Sample,Trial,CuedPrompt1.OnsetTime,CuedPrompt2.OnsetTime,CuedPrompt3.OnsetTime,CuedPrompt4.OnsetTime,MiniBlocks1,MiniBlocks1.Cycle,MiniBlocks1.Sample,MiniBlocks2,MiniBlocks2.Cycle,MiniBlocks2.Sample,Procedure[Trial],Running[Trial],UncuedPrompt1.OnsetTime,UncuedPrompt2.OnsetTime,UncuedPrompt3.OnsetTime,UncuedPrompt4.OnsetTime,SubTrial,Arrow1.ACC,Arrow1.CRESP,Arrow1.DurationError,Arrow1.OnsetDelay,Arrow1.OnsetTime,Arrow1.RESP,Arrow1.RT,Arrow1.RTTime,ArrowColor,Congruence,CorrectResp,Cue,Cue.ACC,Cue.CRESP,Cue.DurationError,Cue.OnsetDelay,Cue.OnsetTime,Cue.RESP,Cue.RT,Cue.RTTime,CuedStim1,CuedStim1.Cycle,CuedStim1.Sample,CuedStim2,CuedStim2.Cycle,CuedStim2.Sample,CuedStim3,CuedStim3.Cycle,CuedStim3.Sample,CuedStim4,CuedStim4.Cycle,CuedStim4.Sample,CueImage,JitterCue,JitterTrial,LeftImage,NonCuedStim1,NonCuedStim1.Cycle,NonCuedStim1.Sample,NonCuedStim2,NonCuedStim2.Cycle,NonCuedStim2.Sample,NonCuedStim3,NonCuedStim3.Cycle,NonCuedStim3.Sample,NonCuedStim4,NonCuedStim4.Cycle,NonCuedStim4.Sample,Procedure[SubTrial],RightImage,Running[SubTrial],Stimulus
POP_2,27027,1,"<?xml version=""1.0""?>\n<Clock xmlns:dt=""urn:schemas-microsoft-com:datatypes""><Description dt:dt=""string"">E-Prime Primary Realtime Clock</Description><StartTime><Timestamp dt:dt=""int"">0</Timestamp><DateUtc dt:dt=""string"">2014-05-16T20:22:44Z</DateUtc></StartTime><FrequencyChanges><FrequencyChange><Frequency dt:dt=""r8"">2793030000</Frequency><Timestamp dt:dt=""r8"">2.19227180652234E+15</Timestamp><Current dt:dt=""r8"">0</Current><DateUtc dt:dt=""string"">2014-05-16T20:22:44Z</DateUtc></FrequencyChange></FrequencyChanges></Clock>\n",60.033,1,801573795,0,,-999999,8,64138,t,97938,162076,5/16/2014,13:22:44,8:22:44 PM,1,Session1,SessionsList,,,,,,,,,,1,1,1,1,162089,,,,1,1,1,,,,Cued1,MiniBlocks1,,,,,1,1,r,-999999,5,176066,r,351,176417,White,Congruent,r,Green,0,,0,8,171068,,0,0,1,1,1,,,,,,,,,,Pictures\green.bmp,4000,4000,Pictures\left.bmp,,,,,,,,,,,,,StimulusPr,Pictures\black.bmp,CuedStim1,Left
POP_2,27027,1,"<?xml version=""1.0""?>\n<Clock xmlns:dt=""urn:schemas-microsoft-com:datatypes""><Description dt:dt=""string"">E-Prime Primary Realtime Clock</Description><StartTime><Timestamp dt:dt=""int"">0</Timestamp><DateUtc dt:dt=""string"">2014-05-16T20:22:44Z</DateUtc></StartTime><FrequencyChanges><FrequencyChange><Frequency dt:dt=""r8"">2793030000</Frequency><Timestamp dt:dt=""r8"">2.19227180652234E+15</Timestamp><Current dt:dt=""r8"">0</Current><DateUtc dt:dt=""string"">2014-05-16T20:22:44Z</DateUtc></FrequencyChange></FrequencyChanges></Clock>\n",60.033,1,801573795,0,,-999999,8,64138,t,97938,162076,5/16/2014,13:22:44,8:22:44 PM,1,Session1,SessionsList,,,,,,,,,,1,1,1,1,162089,,,,1,1,1,,,,Cued1,MiniBlocks1,,,,,2,1,b,-999999,14,189076,b,376,189452,White,Congruent,b,Green,0,,0,3,182063,,0,0,2,1,2,,,,,,,,,,Pictures\green.bmp,6000,2000,Pictures\black.bmp,,,,,,,,,,,,,StimulusPr,Pictures\right.bmp,CuedStim1,Right
POP_2,27027,1,"<?xml version=""1.0""?>\n<Clock xmlns:dt=""urn:schemas-microsoft-com:datatypes""><Description dt:dt=""string"">E-Prime Primary Realtime Clock</Description><StartTime><Timestamp dt:dt=""int"">0</Timestamp><DateUtc dt:dt=""string"">2014-05-16T20:22:44Z</DateUtc></StartTime><FrequencyChanges><FrequencyChange><Frequency dt:dt=""r8"">2793030000</Frequency><Timestamp dt:dt=""r8"">2.19227180652234E+15</Timestamp><Current dt:dt=""r8"">0</Current><DateUtc dt:dt=""string"">2014-05-16T20:22:44Z</DateUtc></FrequencyChange></FrequencyChanges></Clock>\n",60.033,1,801573795,0,,-999999,8,64138,t,97938,162076,5/16/2014,13:22:44,8:22:44 PM,1,Session1,SessionsList,,,,,,,,,,1,1,1,1,162089,,,,1,1,1,,,,Cued1,MiniBlocks1,,,,,3,1,b,-999999,13,197088,b,326,197414,White,Congruent,b,Green,0,,0,14,193074,,0,0,3,1,3,,,,,,,,,,Pictures\green.bmp,3000,2000,Pictures\black.bmp,,,,,,,,,,,,,StimulusPr,Pictures\right.bmp,CuedStim1,Right
POP_2,27027,1,"<?xml version=""1.0""?>\n<Clock xmlns:dt=""urn:schemas-microsoft-com:datatypes""><Description dt:dt=""string"">E-Prime Primary Realtime Clock</Description><StartTime><Timestamp dt:dt=""int"">0</Timestamp><DateUtc dt:dt=""string"">2014-05-16T20:22:44Z</DateUtc></StartTime><FrequencyChanges><FrequencyChange><Frequency dt:dt=""r8"">2793030000</Frequency><Timestamp dt:dt=""r8"">2.19227180652234E+15</Timestamp><Current dt:dt=""r8"">0</Current><DateUtc dt:dt=""string"">2014-05-16T20:22:44Z</DateUtc></FrequencyChange></FrequencyChanges></Clock>\n",60.033,1,801573795,0,,-999999,8,64138,t,97938,162076,5/16/2014,13:22:44,8:22:44 PM,1,Session1,SessionsList,,,,,,,,,,1,1,1,1,162089,,,,1,1,1,,,,Cued1,MiniBlocks1,,,,,4,1,b,-999999,8,205068,b,409,205477,White,Incongruent,b,Red,0,,0,10,201086,,0,0,4,1,4,,,,,,,,,,Pictures\red.bmp,3000,16000,Pictures\left.bmp,,,,,,,,,,,,,StimulusPr,Pictures\black.bmp,CuedStim1,Left
POP_2,27027,1,"<?xml version=""1.0""?>\n<Clock xmlns:dt=""urn:schemas-microsoft-com:datatypes""><Description dt:dt=""string"">E-Prime Primary Realtime Clock</Description><StartTime><Timestamp dt:dt=""int"">0</Timestamp><DateUtc dt:dt=""string"">2014-05-16T20:22:44Z</DateUtc></StartTime><FrequencyChanges><FrequencyChange><Frequency dt:dt=""r8"">2793030000</Frequency><Timestamp dt:dt=""r8"">2.19227180652234E+15</Timestamp><Current dt:dt=""r8"">0</Current><DateUtc dt:dt=""string"">2014-05-16T20:22:44Z</DateUtc></FrequencyChange></FrequencyChanges></Clock>\n",60.033,1,801573795,0,,-999999,8,64138,t,97938,162076,5/16/2014,13:22:44,8:22:44 PM,1,Session1,SessionsList,,,,,,,,,,1,1,1,1,162089,,,,1,1,1,,,,Cued1,MiniBlocks1,,,,,5,1,r,-999999,14,227090,r,344,227434,White,Congruent,r,Green,0,,0,16,223092,,0,0,5,1,5,,,,,,,,,,Pictures\green.bmp,3000,16000,Pictures\left.bmp,,,,,,,,,,,,,StimulusPr,Pictures\black.bmp,CuedStim1,Left
POP_2,27027,1,"<?xml version=""1.0""?>\n<Clock xmlns:dt=""urn:schemas-microsoft-com:datatypes""><Description dt:dt=""string"">E-Prime Primary Realtime Clock</Description><StartTime><Timestamp dt:dt=""int"">0</Timestamp><DateUtc dt:dt=""string"">2014-05-16T20:22:44Z</DateUtc></StartTime><FrequencyChanges><FrequencyChange><Frequency dt:dt=""r8"">2793030000</Frequency><Timestamp dt:dt=""r8"">2.19227180652234E+15</Timestamp><Current dt:dt=""r8"">0</Current><DateUtc dt:dt=""string"">2014-05-16T20:22:44Z</DateUtc></FrequencyChange></FrequencyChanges></Clock>\n",60.033,1,801573795,0,,-999999,8,64138,t,97938,162076,5/16/2014,13:22:44,8:22:44 PM,1,Session1,SessionsList,,,,,,,,,,1,1,1,1,162089,,,,1,1,1,,,,Cued1,MiniBlocks1,,,,,6,1,r,-999999,17,255093,r,362,255455,White,Congruent,r,Green,0,,0,5,245081,,0,0,6,1,6,,,,,,,,,,Pictures\green.bmp,9000,10000,Pictures\left.bmp,,,,,,,,,,,,,StimulusPr,Pictures\black.bmp,CuedStim1,Left
POP_2,27027,1,"<?xml version=""1.0""?>\n<Clock xmlns:dt=""urn:schemas-microsoft-com:datatypes""><Description dt:dt=""string"">E-Prime Primary Realtime Clock</Description><StartTime><Timestamp dt:dt=""int"">0</Timestamp><DateUtc dt:dt=""string"">2014-05-16T20:22:44Z</DateUtc></StartTime><FrequencyChanges><FrequencyChange><Frequency dt:dt=""r8"">2793030000</Frequency><Timestamp dt:dt=""r8"">2.19227180652234E+15</Timestamp><Current dt:dt=""r8"">0</Current><DateUtc dt:dt=""string"">2014-05-16T20:22:44Z</DateUtc></FrequencyChange></FrequencyChanges></Clock>\n",60.033,1,801573795,0,,-999999,8,64138,t,97938,162076,5/16/2014,13:22:44,8:22:44 PM,1,Session1,SessionsList,,,,,,,,,,1,1,1,1,162089,,,,1,1,1,,,,Cued1,MiniBlocks1,,,,,7,1,b,-999999,10,271068,b,365,271433,White,Congruent,b,Green,0,,0,11,267087,,0,0,7,1,7,,,,,,,,,,Pictures\green.bmp,3000,16000,Pictures\black.bmp,,,,,,,,,,,,,StimulusPr,Pictures\right.bmp,CuedStim1,Right
POP_2,27027,1,"<?xml version=""1.0""?>\n<Clock xmlns:dt=""urn:schemas-microsoft-com:datatypes""><Description dt:dt=""string"">E-Prime Primary Realtime Clock</Description><StartTime><Timestamp dt:dt=""int"">0</Timestamp><DateUtc dt:dt=""string"">2014-05-16T20:22:44Z</DateUtc></StartTime><FrequencyChanges><FrequencyChange><Frequency dt:dt=""r8"">2793030000</Frequency><Timestamp dt:dt=""r8"">2.19227180652234E+15</Timestamp><Current dt:dt=""r8"">0</Current><DateUtc dt:dt=""string"">2014-05-16T20:22:44Z</DateUtc></FrequencyChange></FrequencyChanges></Clock>\n",60.033,1,801573795,0,,-999999,8,64138,t,97938,162076,5/16/2014,13:22:44,8:22:44 PM,1,Session1,SessionsList,,,,,,,,,,1,1,1,1,162089,,,,1,1,1,,,,Cued1,MiniBlocks1,,,,,8,1,r,-999999,11,294073,r,380,294453,White,Incongruent,r,Red,0,,0,16,289092,,0,0,8,1,8,,,,,,,,,,Pictures\red.bmp,4000,2000,Pictures\black.bmp,,,,,,,,,,,,,StimulusPr,Pictures\right.bmp,CuedStim1,Right
POP_2,27027,1,"<?xml version=""1.0""?>\n<Clock xmlns:dt=""urn:schemas-microsoft-com:datatypes""><Description dt:dt=""string"">E-Prime Primary Realtime Clock</Description><StartTime><Timestamp dt:dt=""int"">0</Timestamp><DateUtc dt:dt=""string"">2014-05-16T20:22:44Z</DateUtc></StartTime><FrequencyChanges><FrequencyChange><Frequency dt:dt=""r8"">2793030000</Frequency><Timestamp dt:dt=""r8"">2.19227180652234E+15</Timestamp><Current dt:dt=""r8"">0</Current><DateUtc dt:dt=""string"">2014-05-16T20:22:44Z</DateUtc></FrequencyChange></FrequencyChanges></Clock>\n",60.033,1,801573795,0,,-999999,8,64138,t,97938,162076,5/16/2014,13:22:44,8:22:44 PM,1,Session1,SessionsList,,,,,,,,,,1,1,1,1,162089,,,,1,1,1,,,,Cued1,MiniBlocks1,,,,,9,1,b,-999999,9,303085,b,298,303383,White,Congruent,b,Green,0,,0,12,298088,,0,0,9,1,9,,,,,,,,,,Pictures\green.bmp,4000,2000,Pictures\black.bmp,,,,,,,,,,,,,StimulusPr,Pictures\right.bmp,CuedStim1,Right
POP_2,27027,1,"<?xml version=""1.0""?>\n<Clock xmlns:dt=""urn:schemas-microsoft-com:datatypes""><Description dt:dt=""string"">E-Prime Primary Realtime Clock</Description><StartTime><Timestamp dt:dt=""int"">0</Timestamp><DateUtc dt:dt=""string"">2014-05-16T20:22:44Z</DateUtc></StartTime><FrequencyChanges><FrequencyChange><Frequency dt:dt=""r8"">2793030000</Frequency><Timestamp dt:dt=""r8"">2.19227180652234E+15</Timestamp><Current dt:dt=""r8"">0</Current><DateUtc dt:dt=""string"">2014-05-16T20:22:44Z</DateUtc></FrequencyChange></FrequencyChanges></Clock>\n",60.033,1,801573795,0,,-999999,8,64138,t,97938,162076,5/16/2014,13:22:44,8:22:44 PM,1,Session1,SessionsList,,,,,,,,,,1,1,1,1,162089,,,,1,1,1,,,,Cued1,MiniBlocks1,,,,,10,1,r,-999999,5,311081,r,275,311356,White,Congruent,r,Green,0,,0,7,307083,,0,0,10,1,10,,,,,,,,,,Pictures\green.bmp,3000,2000,Pictures\left.bmp,,,,,,,,,,,,,StimulusPr,Pictures\black.bmp,CuedStim1,Left
POP_2,27027,1,"<?xml version=""1.0""?>\n<Clock xmlns:dt=""urn:schemas-microsoft-com:datatypes""><Description dt:dt=""string"">E-Prime Primary Realtime Clock</Description><StartTime><Timestamp dt:dt=""int"">0</Timestamp><DateUtc dt:dt=""string"">2014-05-16T20:22:44Z</DateUtc></StartTime><FrequencyChanges><FrequencyChange><Frequency dt:dt=""r8"">2793030000</Frequency><Timestamp dt:dt=""r8"">2.19227180652234E+15</Timestamp><Current dt:dt=""r8"">0</Current><DateUtc dt:dt=""string"">2014-05-16T20:22:44Z</DateUtc></FrequencyChange></FrequencyChanges></Clock>\n",60.033,1,801573795,0,,-999999,8,64138,t,97938,162076,5/16/2014,13:22:44,8:22:44 PM,1,Session1,SessionsList,,,,,,,,,,1,1,1,2,,,,,2,1,2,,,,NonCued1,MiniBlocks1,313380,,,,1,1,r,-999999,4,328073,r,349,328422,Green,Congruent,r,White,0,,0,17,323076,,0,0,,,,,,,,,,,,,Pictures\white.bmp,4000,2000,Pictures\GreenLeft.bmp,1,1,1,,,,,,,,,,StimulusPr,Pictures\black.bmp,NonCuedStim1,Left
POP_2,27027,1,"<?xml version=""1.0""?>\n<Clock xmlns:dt=""urn:schemas-microsoft-com:datatypes""><Description dt:dt=""string"">E-Prime Primary Realtime Clock</Description><StartTime><Timestamp dt:dt=""int"">0</Timestamp><DateUtc dt:dt=""string"">2014-05-16T20:22:44Z</DateUtc></StartTime><FrequencyChanges><FrequencyChange><Frequency dt:dt=""r8"">2793030000</Frequency><Timestamp dt:dt=""r8"">2.19227180652234E+15</Timestamp><Current dt:dt=""r8"">0</Current><DateUtc dt:dt=""string"">2014-05-16T20:22:44Z</DateUtc></FrequencyChange></FrequencyChanges></Clock>\n",60.033,1,801573795,0,,-999999,8,64138,t,97938,162076,5/16/2014,13:22:44,8:22:44 PM,1,Session1,SessionsList,,,,,,,,,,1,1,1,2,,,,,2,1,2,,,,NonCued1,MiniBlocks1,313380,,,,2,1,b,-999999,8,339084,b,387,339471,Green,Congruent,b,White,0,,0,12,332088,,0,0,,,,,,,,,,,,,Pictures\white.bmp,6000,16000,Pictures\black.bmp,2,1,2,,,,,,,,,,StimulusPr,Pictures\GreenRight.bmp,NonCuedStim1,Right
POP_2,27027,1,"<?xml version=""1.0""?>\n<Clock xmlns:dt=""urn:schemas-microsoft-com:datatypes""><Description dt:dt=""string"">E-Prime Primary Realtime Clock</Description><StartTime><Timestamp dt:dt=""int"">0</Timestamp><DateUtc dt:dt=""string"">2014-05-16T20:22:44Z</DateUtc></StartTime><FrequencyChanges><FrequencyChange><Frequency dt:dt=""r8"">2793030000</Frequency><Timestamp dt:dt=""r8"">2.19227180652234E+15</Timestamp><Current dt:dt=""r8"">0</Current><DateUtc dt:dt=""string"">2014-05-16T20:22:44Z</DateUtc></FrequencyChange></FrequencyChanges></Clock>\n",60.033,1,801573795,0,,-999999,8,64138,t,97938,162076,5/16/2014,13:22:44,8:22:44 PM,1,Session1,SessionsList,,,,,,,,,,1,1,1,2,,,,,2,1,2,,,,NonCued1,MiniBlocks1,313380,,,,3,1,r,-999999,11,364072,r,522,364594,Red,Incongruent,r,White,0,,0,2,357059,,0,0,,,,,,,,,,,,,Pictures\white.bmp,6000,10000,Pictures\black.bmp,3,1,3,,,,,,,,,,StimulusPr,Pictures\RedRight.bmp,NonCuedStim1,Right
POP_2,27027,1,"<?xml version=""1.0""?>\n<Clock xmlns:dt=""urn:schemas-microsoft-com:datatypes""><Description dt:dt=""string"">E-Prime Primary Realtime Clock</Description><StartTime><Timestamp dt:dt=""int"">0</Timestamp><DateUtc dt:dt=""string"">2014-05-16T20:22:44Z</DateUtc></StartTime><FrequencyChanges><FrequencyChange><Frequency dt:dt=""r8"">2793030000</Frequency><Timestamp dt:dt=""r8"">2.19227180652234E+15</Timestamp><Current dt:dt=""r8"">0</Current><DateUtc dt:dt=""string"">2014-05-16T20:22:44Z</DateUtc></FrequencyChange></FrequencyChanges></Clock>\n",60.033,1,801573795,0,,-999999,8,64138,t,97938,162076,5/16/2014,13:22:44,8:22:44 PM,1,Session1,SessionsList,,,,,,,,,,1,1,1,2,,,,,2,1,2,,,,NonCued1,MiniBlocks1,313380,,,,4,1,r,-999999,17,386077,r,359,386436,Green,Congruent,r,White,0,,0,6,376082,,0,0,,,,,,,,,,,,,Pictures\white.bmp,9000,10000,Pictures\GreenLeft.bmp,4,1,4,,,,,,,,,,StimulusPr,Pictures\black.bmp,NonCuedStim1,Left
POP_2,27027,1,"<?xml version=""1.0""?>\n<Clock xmlns:dt=""urn:schemas-microsoft-com:datatypes""><Description dt:dt=""string"">E-Prime Primary Realtime Clock</Description><StartTime><Timestamp dt:dt=""int"">0</Timestamp><DateUtc dt:dt=""string"">2014-05-16T20:22:44Z</DateUtc></StartTime><FrequencyChanges><FrequencyChange><Frequency dt:dt=""r8"">2793030000</Frequency><Timestamp dt:dt=""r8"">2.19227180652234E+15</Timestamp><Current dt:dt=""r8"">0</Current><DateUtc dt:dt=""string"">2014-05-16T20:22:44Z</DateUtc></FrequencyChange></FrequencyChanges></Clock>\n",60.033,1,801573795,0,,-999999,8,64138,t,97938,162076,5/16/2014,13:22:44,8:22:44 PM,1,Session1,SessionsList,,,,,,,,,,1,1,1,2,,,,,2,1,2,,,,NonCued1,MiniBlocks1,313380,,,,5,1,b,-999999,10,402086,b,510,402596,Green,Congruent,b,White,0,,0,12,398088,,0,0,,,,,,,,,,,,,Pictures\white.bmp,3000,2000,Pictures\black.bmp,5,1,5,,,,,,,,,,StimulusPr,Pictures\GreenRight.bmp,NonCuedStim1,Right
POP_2,27027,1,"<?xml version=""1.0""?>\n<Clock xmlns:dt=""urn:schemas-microsoft-com:datatypes""><Description dt:dt=""string"">E-Prime Primary Realtime Clock</Description><StartTime><Timestamp dt:dt=""int"">0</Timestamp><DateUtc dt:dt=""string"">2014-05-16T20:22:44Z</DateUtc></StartTime><FrequencyChanges><FrequencyChange><Frequency dt:dt=""r8"">2793030000</Frequency><Timestamp dt:dt=""r8"">2.19227180652234E+15</Timestamp><Current dt:dt=""r8"">0</Current><DateUtc dt:dt=""string"">2014-05-16T20:22:44Z</DateUtc></FrequencyChange></FrequencyChanges></Clock>\n",60.033,1,801573795,0,,-999999,8,64138,t,97938,162076,5/16/2014,13:22:44,8:22:44 PM,1,Session1,SessionsList,,,,,,,,,,1,1,1,2,,,,,2,1,2,,,,NonCued1,MiniBlocks1,313380,,,,6,1,b,-999999,4,411065,b,348,411413,Red,Incongruent,b,White,0,,0,7,406067,,0,0,,,,,,,,,,,,,Pictures\white.bmp,4000,16000,Pictures\RedLeft.bmp,6,1,6,,,,,,,,,,StimulusPr,Pictures\black.bmp,NonCuedStim1,Left
POP_2,27027,1,"<?xml version=""1.0""?>\n<Clock xmlns:dt=""urn:schemas-microsoft-com:datatypes""><Description dt:dt=""string"">E-Prime Primary Realtime Clock</Description><StartTime><Timestamp dt:dt=""int"">0</Timestamp><DateUtc dt:dt=""string"">2014-05-16T20:22:44Z</DateUtc></StartTime><FrequencyChanges><FrequencyChange><Frequency dt:dt=""r8"">2793030000</Frequency><Timestamp dt:dt=""r8"">2.19227180652234E+15</Timestamp><Current dt:dt=""r8"">0</Current><DateUtc dt:dt=""string"">2014-05-16T20:22:44Z</DateUtc></FrequencyChange></FrequencyChanges></Clock>\n",60.033,1,801573795,0,,-999999,8,64138,t,97938,162076,5/16/2014,13:22:44,8:22:44 PM,1,Session1,SessionsList,,,,,,,,,,1,1,1,2,,,,,2,1,2,,,,NonCued1,MiniBlocks1,313380,,,,7,1,b,-999999,11,433087,b,445,433532,Green,Congruent,b,White,0,,0,13,429089,,0,0,,,,,,,,,,,,,Pictures\white.bmp,3000,4000,Pictures\black.bmp,7,1,7,,,,,,,,,,StimulusPr,Pictures\GreenRight.bmp,NonCuedStim1,Right
POP_2,27027,1,"<?xml version=""1.0""?>\n<Clock xmlns:dt=""urn:schemas-microsoft-com:datatypes""><Description dt:dt=""string"">E-Prime Primary Realtime Clock</Description><StartTime><Timestamp dt:dt=""int"">0</Timestamp><DateUtc dt:dt=""string"">2014-05-16T20:22:44Z</DateUtc></StartTime><FrequencyChanges><FrequencyChange><Frequency dt:dt=""r8"">2793030000</Frequency><Timestamp dt:dt=""r8"">2.19227180652234E+15</Timestamp><Current dt:dt=""r8"">0</Current><DateUtc dt:dt=""string"">2014-05-16T20:22:44Z</DateUtc></FrequencyChange></FrequencyChanges></Clock>\n",60.033,1,801573795,0,,-999999,8,64138,t,97938,162076,5/16/2014,13:22:44,8:22:44 PM,1,Session1,SessionsList,,,,,,,,,,1,1,1,2,,,,,2,1,2,,,,NonCued1,MiniBlocks1,313380,,,,8,1,b,-999999,6,443082,b,335,443417,Green,Congruent,b,White,0,,0,10,439068,,0,0,,,,,,,,,,,,,Pictures\white.bmp,3000,4000,Pictures\black.bmp,8,1,8,,,,,,,,,,StimulusPr,Pictures\GreenRight.bmp,NonCuedStim1,Right
POP_2,27027,1,"<?xml version=""1.0""?>\n<Clock xmlns:dt=""urn:schemas-microsoft-com:datatypes""><Description dt:dt=""string"">E-Prime Primary Realtime Clock</Description><StartTime><Timestamp dt:dt=""int"">0</Timestamp><DateUtc dt:dt=""string"">2014-05-16T20:22:44Z</DateUtc></StartTime><FrequencyChanges><FrequencyChange><Frequency dt:dt=""r8"">2793030000</Frequency><Timestamp dt:dt=""r8"">2.19227180652234E+15</Timestamp><Current dt:dt=""r8"">0</Current><DateUtc dt:dt=""string"">2014-05-16T20:22:44Z</DateUtc></FrequencyChange></FrequencyChanges></Clock>\n",60.033,1,801573795,0,,-999999,8,64138,t,97938,162076,5/16/2014,13:22:44,8:22:44 PM,1,Session1,SessionsList,,,,,,,,,,1,1,1,2,,,,,2,1,2,,,,NonCued1,MiniBlocks1,313380,,,,9,1,b,-999999,15,459091,b,445,459536,Red,Incongruent,b,White,0,,0,3,449079,,0,0,,,,,,,,,,,,,Pictures\white.bmp,9000,2000,Pictures\RedLeft.bmp,9,1,9,,,,,,,,,,StimulusPr,Pictures\black.bmp,NonCuedStim1,Left
POP_2,27027,1,"<?xml version=""1.0""?>\n<Clock xmlns:dt=""urn:schemas-microsoft-com:datatypes""><Description dt:dt=""string"">E-Prime Primary Realtime Clock</Description><StartTime><Timestamp dt:dt=""int"">0</Timestamp><DateUtc dt:dt=""string"">2014-05-16T20:22:44Z</DateUtc></StartTime><FrequencyChanges><FrequencyChange><Frequency dt:dt=""r8"">2793030000</Frequency><Timestamp dt:dt=""r8"">2.19227180652234E+15</Timestamp><Current dt:dt=""r8"">0</Current><DateUtc dt:dt=""string"">2014-05-16T20:22:44Z</DateUtc></FrequencyChange></FrequencyChanges></Clock>\n",60.033,1,801573795,0,,-999999,8,64138,t,97938,162076,5/16/2014,13:22:44,8:22:44 PM,1,Session1,SessionsList,,,,,,,,,,1,1,1,2,,,,,2,1,2,,,,NonCued1,MiniBlocks1,313380,,,,10,1,r,-999999,9,470085,r,523,470608,Green,Congruent,r,White,0,,0,13,463089,,0,0,,,,,,,,,,,,,Pictures\white.bmp,6000,2000,Pictures\GreenLeft.bmp,10,1,10,,,,,,,,,,StimulusPr,Pictures\black.bmp,NonCuedStim1,Left
POP_2,27027,1,"<?xml version=""1.0""?>\n<Clock xmlns:dt=""urn:schemas-microsoft-com:datatypes""><Description dt:dt=""string"">E-Prime Primary Realtime Clock</Description><StartTime><Timestamp dt:dt=""int"">0</Timestamp><DateUtc dt:dt=""string"">2014-05-16T20:22:44Z</DateUtc></StartTime><FrequencyChanges><FrequencyChange><Frequency dt:dt=""r8"">2793030000</Frequency><Timestamp dt:dt=""r8"">2.19227180652234E+15</Timestamp><Current dt:dt=""r8"">0</Current><DateUtc dt:dt=""string"">2014-05-16T20:22:44Z</DateUtc></FrequencyChange></FrequencyChanges></Clock>\n",60.033,1,801573795,0,,-999999,8,64138,t,97938,162076,5/16/2014,13:22:44,8:22:44 PM,1,Session1,SessionsList,,,,,,,,,,1,1,1,3,,,,,3,1,3,,,,NonCued2,MiniBlocks1,,472634,,,1,1,b,-999999,15,493091,b,310,493401,Green,Congruent,b,White,0,,0,2,483062,,0,0,,,,,,,,,,,,,Pictures\white.bmp,9000,10000,Pictures\black.bmp,,,,1,1,1,,,,,,,StimulusPr,Pictures\GreenRight.bmp,NonCuedStim2,Right
POP_2,27027,1,"<?xml version=""1.0""?>\n<Clock xmlns:dt=""urn:schemas-microsoft-com:datatypes""><Description dt:dt=""string"">E-Prime Primary Realtime Clock</Description><StartTime><Timestamp dt:dt=""int"">0</Timestamp><DateUtc dt:dt=""string"">2014-05-16T20:22:44Z</DateUtc></StartTime><FrequencyChanges><FrequencyChange><Frequency dt:dt=""r8"">2793030000</Frequency><Timestamp dt:dt=""r8"">2.19227180652234E+15</Timestamp><Current dt:dt=""r8"">0</Current><DateUtc dt:dt=""string"">2014-05-16T20:22:44Z</DateUtc></FrequencyChange></FrequencyChanges></Clock>\n",60.033,1,801573795,0,,-999999,8,64138,t,97938,162076,5/16/2014,13:22:44,8:22:44 PM,1,Session1,SessionsList,,,,,,,,,,1,1,1,3,,,,,3,1,3,,,,NonCued2,MiniBlocks1,,472634,,,2,1,r,-999999,7,509083,r,393,509476,Green,Congruent,r,White,0,,0,9,505085,,0,0,,,,,,,,,,,,,Pictures\white.bmp,3000,2000,Pictures\GreenLeft.bmp,,,,2,1,2,,,,,,,StimulusPr,Pictures\black.bmp,NonCuedStim2,Left
POP_2,27027,1,"<?xml version=""1.0""?>\n<Clock xmlns:dt=""urn:schemas-microsoft-com:datatypes""><Description dt:dt=""string"">E-Prime Primary Realtime Clock</Description><StartTime><Timestamp dt:dt=""int"">0</Timestamp><DateUtc dt:dt=""string"">2014-05-16T20:22:44Z</DateUtc></StartTime><FrequencyChanges><FrequencyChange><Frequency dt:dt=""r8"">2793030000</Frequency><Timestamp dt:dt=""r8"">2.19227180652234E+15</Timestamp><Current dt:dt=""r8"">0</Current><DateUtc dt:dt=""string"">2014-05-16T20:22:44Z</DateUtc></FrequencyChange></FrequencyChanges></Clock>\n",60.033,1,801573795,0,,-999999,8,64138,t,97938,162076,5/16/2014,13:22:44,8:22:44 PM,1,Session1,SessionsList,,,,,,,,,,1,1,1,3,,,,,3,1,3,,,,NonCued2,MiniBlocks1,,472634,,,3,1,r,-999999,4,517079,r,463,517542,Red,Incongruent,r,White,0,,0,5,513081,,0,0,,,,,,,,,,,,,Pictures\white.bmp,3000,2000,Pictures\black.bmp,,,,3,1,3,,,,,,,StimulusPr,Pictures\RedRight.bmp,NonCuedStim2,Right
POP_2,27027,1,"<?xml version=""1.0""?>\n<Clock xmlns:dt=""urn:schemas-microsoft-com:datatypes""><Description dt:dt=""string"">E-Prime Primary Realtime Clock</Description><StartTime><Timestamp dt:dt=""int"">0</Timestamp><DateUtc dt:dt=""string"">2014-05-16T20:22:44Z</DateUtc></StartTime><FrequencyChanges><FrequencyChange><Frequency dt:dt=""r8"">2793030000</Frequency><Timestamp dt:dt=""r8"">2.19227180652234E+15</Timestamp><Current dt:dt=""r8"">0</Current><DateUtc dt:dt=""string"">2014-05-16T20:22:44Z</DateUtc></FrequencyChange></FrequencyChanges></Clock>\n",60.033,1,801573795,0,,-999999,8,64138,t,97938,162076,5/16/2014,13:22:44,8:22:44 PM,1,Session1,SessionsList,,,,,,,,,,1,1,1,3,,,,,3,1,3,,,,NonCued2,MiniBlocks1,,472634,,,4,1,r,-999999,15,526091,r,571,526662,Green,Congruent,r,White,0,,0,17,521093,,0,0,,,,,,,,,,,,,Pictures\white.bmp,4000,16000,Pictures\GreenLeft.bmp,,,,4,1,4,,,,,,,StimulusPr,Pictures\black.bmp,NonCuedStim2,Left
POP_2,27027,1,"<?xml version=""1.0""?>\n<Clock xmlns:dt=""urn:schemas-microsoft-com:datatypes""><Description dt:dt=""string"">E-Prime Primary Realtime Clock</Description><StartTime><Timestamp dt:dt=""int"">0</Timestamp><DateUtc dt:dt=""string"">2014-05-16T20:22:44Z</DateUtc></StartTime><FrequencyChanges><FrequencyChange><Frequency dt:dt=""r8"">2793030000</Frequency><Timestamp dt:dt=""r8"">2.19227180652234E+15</Timestamp><Current dt:dt=""r8"">0</Current><DateUtc dt:dt=""string"">2014-05-16T20:22:44Z</DateUtc></FrequencyChange></FrequencyChanges></Clock>\n",60.033,1,801573795,0,,-999999,8,64138,t,97938,162076,5/16/2014,13:22:44,8:22:44 PM,1,Session1,SessionsList,,,,,,,,,,1,1,1,3,,,,,3,1,3,,,,NonCued2,MiniBlocks1,,472634,,,5,1,r,-999999,3,551078,r,513,551591,Green,Congruent,r,White,0,,0,6,544082,,0,0,,,,,,,,,,,,,Pictures\white.bmp,6000,4000,Pictures\GreenLeft.bmp,,,,5,1,5,,,,,,,StimulusPr,Pictures\black.bmp,NonCuedStim2,Left
POP_2,27027,1,"<?xml version=""1.0""?>\n<Clock xmlns:dt=""urn:schemas-microsoft-com:datatypes""><Description dt:dt=""string"">E-Prime Primary Realtime Clock</Description><StartTime><Timestamp dt:dt=""int"">0</Timestamp><DateUtc dt:dt=""string"">2014-05-16T20:22:44Z</DateUtc></StartTime><FrequencyChanges><FrequencyChange><Frequency dt:dt=""r8"">2793030000</Frequency><Timestamp dt:dt=""r8"">2.19227180652234E+15</Timestamp><Current dt:dt=""r8"">0</Current><DateUtc dt:dt=""string"">2014-05-16T20:22:44Z</DateUtc></FrequencyChange></FrequencyChanges></Clock>\n",60.033,1,801573795,0,,-999999,8,64138,t,97938,162076,5/16/2014,13:22:44,8:22:44 PM,1,Session1,SessionsList,,,,,,,,,,1,1,1,3,,,,,3,1,3,,,,NonCued2,MiniBlocks1,,472634,,,6,1,b,-999999,15,561090,b,455,561545,Red,Incongruent,b,White,0,,0,15,557075,,0,0,,,,,,,,,,,,,Pictures\white.bmp,3000,4000,Pictures\RedLeft.bmp,,,,6,1,6,,,,,,,StimulusPr,Pictures\black.bmp,NonCuedStim2,Left
POP_2,27027,1,"<?xml version=""1.0""?>\n<Clock xmlns:dt=""urn:schemas-microsoft-com:datatypes""><Description dt:dt=""string"">E-Prime Primary Realtime Clock</Description><StartTime><Timestamp dt:dt=""int"">0</Timestamp><DateUtc dt:dt=""string"">2014-05-16T20:22:44Z</DateUtc></StartTime><FrequencyChanges><FrequencyChange><Frequency dt:dt=""r8"">2793030000</Frequency><Timestamp dt:dt=""r8"">2.19227180652234E+15</Timestamp><Current dt:dt=""r8"">0</Current><DateUtc dt:dt=""string"">2014-05-16T20:22:44Z</DateUtc></FrequencyChange></FrequencyChanges></Clock>\n",60.033,1,801573795,0,,-999999,8,64138,t,97938,162076,5/16/2014,13:22:44,8:22:44 PM,1,Session1,SessionsList,,,,,,,,,,1,1,1,3,,,,,3,1,3,,,,NonCued2,MiniBlocks1,,472634,,,7,1,b,-999999,8,572084,b,431,572515,Green,Congruent,b,White,0,,0,11,567070,,0,0,,,,,,,,,,,,,Pictures\white.bmp,4000,16000,Pictures\black.bmp,,,,7,1,7,,,,,,,StimulusPr,Pictures\GreenRight.bmp,NonCuedStim2,Right
POP_2,27027,1,"<?xml version=""1.0""?>\n<Clock xmlns:dt=""urn:schemas-microsoft-com:datatypes""><Description dt:dt=""string"">E-Prime Primary Realtime Clock</Description><StartTime><Timestamp dt:dt=""int"">0</Timestamp><DateUtc dt:dt=""string"">2014-05-16T20:22:44Z</DateUtc></StartTime><FrequencyChanges><FrequencyChange><Frequency dt:dt=""r8"">2793030000</Frequency><Timestamp dt:dt=""r8"">2.19227180652234E+15</Timestamp><Current dt:dt=""r8"">0</Current><DateUtc dt:dt=""string"">2014-05-16T20:22:44Z</DateUtc></FrequencyChange></FrequencyChanges></Clock>\n",60.033,1,801573795,0,,-999999,8,64138,t,97938,162076,5/16/2014,13:22:44,8:22:44 PM,1,Session1,SessionsList,,,,,,,,,,1,1,1,3,,,,,3,1,3,,,,NonCued2,MiniBlocks1,,472634,,,8,1,r,-999999,11,600087,r,325,600412,Green,Congruent,r,White,0,,0,17,590092,,0,0,,,,,,,,,,,,,Pictures\white.bmp,9000,2000,Pictures\GreenLeft.bmp,,,,8,1,8,,,,,,,StimulusPr,Pictures\black.bmp,NonCuedStim2,Left
POP_2,27027,1,"<?xml version=""1.0""?>\n<Clock xmlns:dt=""urn:schemas-microsoft-com:datatypes""><Description dt:dt=""string"">E-Prime Primary Realtime Clock</Description><StartTime><Timestamp dt:dt=""int"">0</Timestamp><DateUtc dt:dt=""string"">2014-05-16T20:22:44Z</DateUtc></StartTime><FrequencyChanges><FrequencyChange><Frequency dt:dt=""r8"">2793030000</Frequency><Timestamp dt:dt=""r8"">2.19227180652234E+15</Timestamp><Current dt:dt=""r8"">0</Current><DateUtc dt:dt=""string"">2014-05-16T20:22:44Z</DateUtc></FrequencyChange></FrequencyChanges></Clock>\n",60.033,1,801573795,0,,-999999,8,64138,t,97938,162076,5/16/2014,13:22:44,8:22:44 PM,1,Session1,SessionsList,,,,,,,,,,1,1,1,3,,,,,3,1,3,,,,NonCued2,MiniBlocks1,,472634,,,9,1,b,-999999,8,608083,b,313,608396,Green,Congruent,b,White,0,,0,9,604085,,0,0,,,,,,,,,,,,,Pictures\white.bmp,3000,10000,Pictures\black.bmp,,,,9,1,9,,,,,,,StimulusPr,Pictures\GreenRight.bmp,NonCuedStim2,Right
POP_2,27027,1,"<?xml version=""1.0""?>\n<Clock xmlns:dt=""urn:schemas-microsoft-com:datatypes""><Description dt:dt=""string"">E-Prime Primary Realtime Clock</Description><StartTime><Timestamp dt:dt=""int"">0</Timestamp><DateUtc dt:dt=""string"">2014-05-16T20:22:44Z</DateUtc></StartTime><FrequencyChanges><FrequencyChange><Frequency dt:dt=""r8"">2793030000</Frequency><Timestamp dt:dt=""r8"">2.19227180652234E+15</Timestamp><Current dt:dt=""r8"">0</Current><DateUtc dt:dt=""string"">2014-05-16T20:22:44Z</DateUtc></FrequencyChange></FrequencyChanges></Clock>\n",60.033,1,801573795,0,,-999999,8,64138,t,97938,162076,5/16/2014,13:22:44,8:22:44 PM,1,Session1,SessionsList,,,,,,,,,,1,1,1,3,,,,,3,1,3,,,,NonCued2,MiniBlocks1,,472634,,,10,1,b,-999999,15,624075,b,337,624412,Green,Congruent,b,White,0,,0,18,620094,,0,0,,,,,,,,,,,,,Pictures\white.bmp,3000,2000,Pictures\black.bmp,,,,10,1,10,,,,,,,StimulusPr,Pictures\GreenRight.bmp,NonCuedStim2,Right
POP_2,27027,1,"<?xml version=""1.0""?>\n<Clock xmlns:dt=""urn:schemas-microsoft-com:datatypes""><Description dt:dt=""string"">E-Prime Primary Realtime Clock</Description><StartTime><Timestamp dt:dt=""int"">0</Timestamp><DateUtc dt:dt=""string"">2014-05-16T20:22:44Z</DateUtc></StartTime><FrequencyChanges><FrequencyChange><Frequency dt:dt=""r8"">2793030000</Frequency><Timestamp dt:dt=""r8"">2.19227180652234E+15</Timestamp><Current dt:dt=""r8"">0</Current><DateUtc dt:dt=""string"">2014-05-16T20:22:44Z</DateUtc></FrequencyChange></FrequencyChanges></Clock>\n",60.033,1,801573795,0,,-999999,8,64138,t,97938,162076,5/16/2014,13:22:44,8:22:44 PM,1,Session1,SessionsList,,,,,,,,,,1,1,1,4,,626441,,,4,1,4,,,,Cued2,MiniBlocks1,,,,,1,1,b,-999999,7,643082,b,319,643401,White,Congruent,b,Green,0,,0,11,636086,,0,0,,,,1,1,1,,,,,,,Pictures\green.bmp,6000,4000,Pictures\black.bmp,,,,,,,,,,,,,StimulusPr,Pictures\right.bmp,CuedStim2,Right
POP_2,27027,1,"<?xml version=""1.0""?>\n<Clock xmlns:dt=""urn:schemas-microsoft-com:datatypes""><Description dt:dt=""string"">E-Prime Primary Realtime Clock</Description><StartTime><Timestamp dt:dt=""int"">0</Timestamp><DateUtc dt:dt=""string"">2014-05-16T20:22:44Z</DateUtc></StartTime><FrequencyChanges><FrequencyChange><Frequency dt:dt=""r8"">2793030000</Frequency><Timestamp dt:dt=""r8"">2.19227180652234E+15</Timestamp><Current dt:dt=""r8"">0</Current><DateUtc dt:dt=""string"">2014-05-16T20:22:44Z</DateUtc></FrequencyChange></FrequencyChanges></Clock>\n",60.033,1,801573795,0,,-999999,8,64138,t,97938,162076,5/16/2014,13:22:44,8:22:44 PM,1,Session1,SessionsList,,,,,,,,,,1,1,1,4,,626441,,,4,1,4,,,,Cued2,MiniBlocks1,,,,,2,1,b,-999999,16,659091,b,306,659397,White,Congruent,b,Green,0,,0,3,649063,,0,0,,,,2,1,2,,,,,,,Pictures\green.bmp,9000,10000,Pictures\black.bmp,,,,,,,,,,,,,StimulusPr,Pictures\right.bmp,CuedStim2,Right
POP_2,27027,1,"<?xml version=""1.0""?>\n<Clock xmlns:dt=""urn:schemas-microsoft-com:datatypes""><Description dt:dt=""string"">E-Prime Primary Realtime Clock</Description><StartTime><Timestamp dt:dt=""int"">0</Timestamp><DateUtc dt:dt=""string"">2014-05-16T20:22:44Z</DateUtc></StartTime><FrequencyChanges><FrequencyChange><Frequency dt:dt=""r8"">2793030000</Frequency><Timestamp dt:dt=""r8"">2.19227180652234E+15</Timestamp><Current dt:dt=""r8"">0</Current><DateUtc dt:dt=""string"">2014-05-16T20:22:44Z</DateUtc></FrequencyChange></FrequencyChanges></Clock>\n",60.033,1,801573795,0,,-999999,8,64138,t,97938,162076,5/16/2014,13:22:44,8:22:44 PM,1,Session1,SessionsList,,,,,,,,,,1,1,1,4,,626441,,,4,1,4,,,,Cued2,MiniBlocks1,,,,,3,1,r,-999999,8,675083,r,343,675426,White,Incongruent,r,Red,0,,0,8,671068,,0,0,,,,3,1,3,,,,,,,Pictures\red.bmp,3000,2000,Pictures\black.bmp,,,,,,,,,,,,,StimulusPr,Pictures\right.bmp,CuedStim2,Right
POP_2,27027,1,"<?xml version=""1.0""?>\n<Clock xmlns:dt=""urn:schemas-microsoft-com:datatypes""><Description dt:dt=""string"">E-Prime Primary Realtime Clock</Description><StartTime><Timestamp dt:dt=""int"">0</Timestamp><DateUtc dt:dt=""string"">2014-05-16T20:22:44Z</DateUtc></StartTime><FrequencyChanges><FrequencyChange><Frequency dt:dt=""r8"">2793030000</Frequency><Timestamp dt:dt=""r8"">2.19227180652234E+15</Timestamp><Current dt:dt=""r8"">0</Current><DateUtc dt:dt=""string"">2014-05-16T20:22:44Z</DateUtc></FrequencyChange></FrequencyChanges></Clock>\n",60.033,1,801573795,0,,-999999,8,64138,t,97938,162076,5/16/2014,13:22:44,8:22:44 PM,1,Session1,SessionsList,,,,,,,,,,1,1,1,4,,626441,,,4,1,4,,,,Cued2,MiniBlocks1,,,,,4,1,r,-999999,19,686094,r,573,686667,White,Congruent,r,Green,0,,0,11,679081,,0,0,,,,4,1,4,,,,,,,Pictures\green.bmp,6000,16000,Pictures\left.bmp,,,,,,,,,,,,,StimulusPr,Pictures\black.bmp,CuedStim2,Left
POP_2,27027,1,"<?xml version=""1.0""?>\n<Clock xmlns:dt=""urn:schemas-microsoft-com:datatypes""><Description dt:dt=""string"">E-Prime Primary Realtime Clock</Description><StartTime><Timestamp dt:dt=""int"">0</Timestamp><DateUtc dt:dt=""string"">2014-05-16T20:22:44Z</DateUtc></StartTime><FrequencyChanges><FrequencyChange><Frequency dt:dt=""r8"">2793030000</Frequency><Timestamp dt:dt=""r8"">2.19227180652234E+15</Timestamp><Current dt:dt=""r8"">0</Current><DateUtc dt:dt=""string"">2014-05-16T20:22:44Z</DateUtc></FrequencyChange></FrequencyChanges></Clock>\n",60.033,1,801573795,0,,-999999,8,64138,t,97938,162076,5/16/2014,13:22:44,8:22:44 PM,1,Session1,SessionsList,,,,,,,,,,1,1,1,4,,626441,,,4,1,4,,,,Cued2,MiniBlocks1,,,,,5,1,b,-999999,8,708083,b,275,708358,White,Congruent,b,Green,0,,0,5,704069,,0,0,,,,5,1,5,,,,,,,Pictures\green.bmp,3000,2000,Pictures\black.bmp,,,,,,,,,,,,,StimulusPr,Pictures\right.bmp,CuedStim2,Right
POP_2,27027,1,"<?xml version=""1.0""?>\n<Clock xmlns:dt=""urn:schemas-microsoft-com:datatypes""><Description dt:dt=""string"">E-Prime Primary Realtime Clock</Description><StartTime><Timestamp dt:dt=""int"">0</Timestamp><DateUtc dt:dt=""string"">2014-05-16T20:22:44Z</DateUtc></StartTime><FrequencyChanges><FrequencyChange><Frequency dt:dt=""r8"">2793030000</Frequency><Timestamp dt:dt=""r8"">2.19227180652234E+15</Timestamp><Current dt:dt=""r8"">0</Current><DateUtc dt:dt=""string"">2014-05-16T20:22:44Z</DateUtc></FrequencyChange></FrequencyChanges></Clock>\n",60.033,1,801573795,0,,-999999,8,64138,t,97938,162076,5/16/2014,13:22:44,8:22:44 PM,1,Session1,SessionsList,,,,,,,,,,1,1,1,4,,626441,,,4,1,4,,,,Cued2,MiniBlocks1,,,,,6,1,r,-999999,3,716063,r,290,716353,White,Congruent,r,Green,0,,0,18,712081,,0,0,,,,6,1,6,,,,,,,Pictures\green.bmp,3000,2000,Pictures\left.bmp,,,,,,,,,,,,,StimulusPr,Pictures\black.bmp,CuedStim2,Left
POP_2,27027,1,"<?xml version=""1.0""?>\n<Clock xmlns:dt=""urn:schemas-microsoft-com:datatypes""><Description dt:dt=""string"">E-Prime Primary Realtime Clock</Description><StartTime><Timestamp dt:dt=""int"">0</Timestamp><DateUtc dt:dt=""string"">2014-05-16T20:22:44Z</DateUtc></StartTime><FrequencyChanges><FrequencyChange><Frequency dt:dt=""r8"">2793030000</Frequency><Timestamp dt:dt=""r8"">2.19227180652234E+15</Timestamp><Current dt:dt=""r8"">0</Current><DateUtc dt:dt=""string"">2014-05-16T20:22:44Z</DateUtc></FrequencyChange></FrequencyChanges></Clock>\n",60.033,1,801573795,0,,-999999,8,64138,t,97938,162076,5/16/2014,13:22:44,8:22:44 PM,1,Session1,SessionsList,,,,,,,,,,1,1,1,4,,626441,,,4,1,4,,,,Cued2,MiniBlocks1,,,,,7,1,b,-999999,14,727074,b,326,727400,White,Incongruent,b,Red,0,,0,18,720094,,0,0,,,,7,1,7,,,,,,,Pictures\red.bmp,6000,4000,Pictures\left.bmp,,,,,,,,,,,,,StimulusPr,Pictures\black.bmp,CuedStim2,Left
POP_2,27027,1,"<?xml version=""1.0""?>\n<Clock xmlns:dt=""urn:schemas-microsoft-com:datatypes""><Description dt:dt=""string"">E-Prime Primary Realtime Clock</Description><StartTime><Timestamp dt:dt=""int"">0</Timestamp><DateUtc dt:dt=""string"">2014-05-16T20:22:44Z</DateUtc></StartTime><FrequencyChanges><FrequencyChange><Frequency dt:dt=""r8"">2793030000</Frequency><Timestamp dt:dt=""r8"">2.19227180652234E+15</Timestamp><Current dt:dt=""r8"">0</Current><DateUtc dt:dt=""string"">2014-05-16T20:22:44Z</DateUtc></FrequencyChange></FrequencyChanges></Clock>\n",60.033,1,801573795,0,,-999999,8,64138,t,97938,162076,5/16/2014,13:22:44,8:22:44 PM,1,Session1,SessionsList,,,,,,,,,,1,1,1,4,,626441,,,4,1,4,,,,Cued2,MiniBlocks1,,,,,8,1,b,-999999,8,738068,b,319,738387,White,Congruent,b,Green,0,,0,2,733071,,0,0,,,,8,1,8,,,,,,,Pictures\green.bmp,4000,4000,Pictures\black.bmp,,,,,,,,,,,,,StimulusPr,Pictures\right.bmp,CuedStim2,Right
POP_2,27027,1,"<?xml version=""1.0""?>\n<Clock xmlns:dt=""urn:schemas-microsoft-com:datatypes""><Description dt:dt=""string"">E-Prime Primary Realtime Clock</Description><StartTime><Timestamp dt:dt=""int"">0</Timestamp><DateUtc dt:dt=""string"">2014-05-16T20:22:44Z</DateUtc></StartTime><FrequencyChanges><FrequencyChange><Frequency dt:dt=""r8"">2793030000</Frequency><Timestamp dt:dt=""r8"">2.19227180652234E+15</Timestamp><Current dt:dt=""r8"">0</Current><DateUtc dt:dt=""string"">2014-05-16T20:22:44Z</DateUtc></FrequencyChange></FrequencyChanges></Clock>\n",60.033,1,801573795,0,,-999999,8,64138,t,97938,162076,5/16/2014,13:22:44,8:22:44 PM,1,Session1,SessionsList,,,,,,,,,,1,1,1,4,,626441,,,4,1,4,,,,Cued2,MiniBlocks1,,,,,9,1,b,-999999,19,754094,b,316,754410,White,Incongruent,b,Red,0,,0,4,744065,,0,0,,,,9,1,9,,,,,,,Pictures\red.bmp,9000,10000,Pictures\left.bmp,,,,,,,,,,,,,StimulusPr,Pictures\black.bmp,CuedStim2,Left
POP_2,27027,1,"<?xml version=""1.0""?>\n<Clock xmlns:dt=""urn:schemas-microsoft-com:datatypes""><Description dt:dt=""string"">E-Prime Primary Realtime Clock</Description><StartTime><Timestamp dt:dt=""int"">0</Timestamp><DateUtc dt:dt=""string"">2014-05-16T20:22:44Z</DateUtc></StartTime><FrequencyChanges><FrequencyChange><Frequency dt:dt=""r8"">2793030000</Frequency><Timestamp dt:dt=""r8"">2.19227180652234E+15</Timestamp><Current dt:dt=""r8"">0</Current><DateUtc dt:dt=""string"">2014-05-16T20:22:44Z</DateUtc></FrequencyChange></FrequencyChanges></Clock>\n",60.033,1,801573795,0,,-999999,8,64138,t,97938,162076,5/16/2014,13:22:44,8:22:44 PM,1,Session1,SessionsList,,,,,,,,,,1,1,1,4,,626441,,,4,1,4,,,,Cued2,MiniBlocks1,,,,,10,1,r,-999999,8,776083,r,307,776390,White,Congruent,r,Green,0,,0,13,766088,,0,0,,,,10,1,10,,,,,,,Pictures\green.bmp,9000,10000,Pictures\left.bmp,,,,,,,,,,,,,StimulusPr,Pictures\black.bmp,CuedStim2,Left
POP_2,27027,1,"<?xml version=""1.0""?>\n<Clock xmlns:dt=""urn:schemas-microsoft-com:datatypes""><Description dt:dt=""string"">E-Prime Primary Realtime Clock</Description><StartTime><Timestamp dt:dt=""int"">0</Timestamp><DateUtc dt:dt=""string"">2014-05-16T20:22:44Z</DateUtc></StartTime><FrequencyChanges><FrequencyChange><Frequency dt:dt=""r8"">2793030000</Frequency><Timestamp dt:dt=""r8"">2.19227180652234E+15</Timestamp><Current dt:dt=""r8"">0</Current><DateUtc dt:dt=""string"">2014-05-16T20:22:44Z</DateUtc></FrequencyChange></FrequencyChanges></Clock>\n",60.033,1,801573795,0,,-999999,8,64138,t,97938,162076,5/16/2014,13:22:44,8:22:44 PM,2,Session2,SessionsList,0,,-999999,17,806967,t,67634,874601,786411,2,1,2,1,,,,,,,,1,1,1,NonCued3,MiniBlocks2,,,874617,,1,0,b,-999999,6,894607,r,550,895157,Green,Congruent,b,White,0,,0,11,884612,,0,0,,,,,,,,,,,,,Pictures\white.bmp,9000,10000,Pictures\black.bmp,,,,,,,1,1,1,,,,StimulusPr,Pictures\GreenRight.bmp,NonCuedStim3,Right
POP_2,27027,1,"<?xml version=""1.0""?>\n<Clock xmlns:dt=""urn:schemas-microsoft-com:datatypes""><Description dt:dt=""string"">E-Prime Primary Realtime Clock</Description><StartTime><Timestamp dt:dt=""int"">0</Timestamp><DateUtc dt:dt=""string"">2014-05-16T20:22:44Z</DateUtc></StartTime><FrequencyChanges><FrequencyChange><Frequency dt:dt=""r8"">2793030000</Frequency><Timestamp dt:dt=""r8"">2.19227180652234E+15</Timestamp><Current dt:dt=""r8"">0</Current><DateUtc dt:dt=""string"">2014-05-16T20:22:44Z</DateUtc></FrequencyChange></FrequencyChanges></Clock>\n",60.033,1,801573795,0,,-999999,8,64138,t,97938,162076,5/16/2014,13:22:44,8:22:44 PM,2,Session2,SessionsList,0,,-999999,17,806967,t,67634,874601,786411,2,1,2,1,,,,,,,,1,1,1,NonCued3,MiniBlocks2,,,874617,,2,1,r,-999999,11,916612,r,540,917152,Red,Incongruent,r,White,0,,0,16,906617,,0,0,,,,,,,,,,,,,Pictures\white.bmp,9000,10000,Pictures\black.bmp,,,,,,,2,1,2,,,,StimulusPr,Pictures\RedRight.bmp,NonCuedStim3,Right
POP_2,27027,1,"<?xml version=""1.0""?>\n<Clock xmlns:dt=""urn:schemas-microsoft-com:datatypes""><Description dt:dt=""string"">E-Prime Primary Realtime Clock</Description><StartTime><Timestamp dt:dt=""int"">0</Timestamp><DateUtc dt:dt=""string"">2014-05-16T20:22:44Z</DateUtc></StartTime><FrequencyChanges><FrequencyChange><Frequency dt:dt=""r8"">2793030000</Frequency><Timestamp dt:dt=""r8"">2.19227180652234E+15</Timestamp><Current dt:dt=""r8"">0</Current><DateUtc dt:dt=""string"">2014-05-16T20:22:44Z</DateUtc></FrequencyChange></FrequencyChanges></Clock>\n",60.033,1,801573795,0,,-999999,8,64138,t,97938,162076,5/16/2014,13:22:44,8:22:44 PM,2,Session2,SessionsList,0,,-999999,17,806967,t,67634,874601,786411,2,1,2,1,,,,,,,,1,1,1,NonCued3,MiniBlocks2,,,874617,,3,1,r,-999999,4,933604,r,423,934027,Green,Congruent,r,White,0,,0,5,928606,,0,0,,,,,,,,,,,,,Pictures\white.bmp,4000,4000,Pictures\GreenLeft.bmp,,,,,,,3,1,3,,,,StimulusPr,Pictures\black.bmp,NonCuedStim3,Left
POP_2,27027,1,"<?xml version=""1.0""?>\n<Clock xmlns:dt=""urn:schemas-microsoft-com:datatypes""><Description dt:dt=""string"">E-Prime Primary Realtime Clock</Description><StartTime><Timestamp dt:dt=""int"">0</Timestamp><DateUtc dt:dt=""string"">2014-05-16T20:22:44Z</DateUtc></StartTime><FrequencyChanges><FrequencyChange><Frequency dt:dt=""r8"">2793030000</Frequency><Timestamp dt:dt=""r8"">2.19227180652234E+15</Timestamp><Current dt:dt=""r8"">0</Current><DateUtc dt:dt=""string"">2014-05-16T20:22:44Z</DateUtc></FrequencyChange></FrequencyChanges></Clock>\n",60.033,1,801573795,0,,-999999,8,64138,t,97938,162076,5/16/2014,13:22:44,8:22:44 PM,2,Session2,SessionsList,0,,-999999,17,806967,t,67634,874601,786411,2,1,2,1,,,,,,,,1,1,1,NonCued3,MiniBlocks2,,,874617,,4,1,b,-999999,16,946598,b,424,947022,Red,Incongruent,b,White,0,,0,17,939618,,0,0,,,,,,,,,,,,,Pictures\white.bmp,6000,4000,Pictures\RedLeft.bmp,,,,,,,4,1,4,,,,StimulusPr,Pictures\black.bmp,NonCuedStim3,Left
POP_2,27027,1,"<?xml version=""1.0""?>\n<Clock xmlns:dt=""urn:schemas-microsoft-com:datatypes""><Description dt:dt=""string"">E-Prime Primary Realtime Clock</Description><StartTime><Timestamp dt:dt=""int"">0</Timestamp><DateUtc dt:dt=""string"">2014-05-16T20:22:44Z</DateUtc></StartTime><FrequencyChanges><FrequencyChange><Frequency dt:dt=""r8"">2793030000</Frequency><Timestamp dt:dt=""r8"">2.19227180652234E+15</Timestamp><Current dt:dt=""r8"">0</Current><DateUtc dt:dt=""string"">2014-05-16T20:22:44Z</DateUtc></FrequencyChange></FrequencyChanges></Clock>\n",60.033,1,801573795,0,,-999999,8,64138,t,97938,162076,5/16/2014,13:22:44,8:22:44 PM,2,Session2,SessionsList,0,,-999999,17,806967,t,67634,874601,786411,2,1,2,1,,,,,,,,1,1,1,NonCued3,MiniBlocks2,,,874617,,5,1,b,-999999,8,956609,b,429,957038,Green,Congruent,b,White,0,,0,11,952611,,0,0,,,,,,,,,,,,,Pictures\white.bmp,3000,2000,Pictures\black.bmp,,,,,,,5,1,5,,,,StimulusPr,Pictures\GreenRight.bmp,NonCuedStim3,Right
POP_2,27027,1,"<?xml version=""1.0""?>\n<Clock xmlns:dt=""urn:schemas-microsoft-com:datatypes""><Description dt:dt=""string"">E-Prime Primary Realtime Clock</Description><StartTime><Timestamp dt:dt=""int"">0</Timestamp><DateUtc dt:dt=""string"">2014-05-16T20:22:44Z</DateUtc></StartTime><FrequencyChanges><FrequencyChange><Frequency dt:dt=""r8"">2793030000</Frequency><Timestamp dt:dt=""r8"">2.19227180652234E+15</Timestamp><Current dt:dt=""r8"">0</Current><DateUtc dt:dt=""string"">2014-05-16T20:22:44Z</DateUtc></FrequencyChange></FrequencyChanges></Clock>\n",60.033,1,801573795,0,,-999999,8,64138,t,97938,162076,5/16/2014,13:22:44,8:22:44 PM,2,Session2,SessionsList,0,,-999999,17,806967,t,67634,874601,786411,2,1,2,1,,,,,,,,1,1,1,NonCued3,MiniBlocks2,,,874617,,6,1,r,-999999,4,964605,r,525,965130,Green,Congruent,r,White,0,,0,6,960607,,0,0,,,,,,,,,,,,,Pictures\white.bmp,3000,2000,Pictures\GreenLeft.bmp,,,,,,,6,1,6,,,,StimulusPr,Pictures\black.bmp,NonCuedStim3,Left
POP_2,27027,1,"<?xml version=""1.0""?>\n<Clock xmlns:dt=""urn:schemas-microsoft-com:datatypes""><Description dt:dt=""string"">E-Prime Primary Realtime Clock</Description><StartTime><Timestamp dt:dt=""int"">0</Timestamp><DateUtc dt:dt=""string"">2014-05-16T20:22:44Z</DateUtc></StartTime><FrequencyChanges><FrequencyChange><Frequency dt:dt=""r8"">2793030000</Frequency><Timestamp dt:dt=""r8"">2.19227180652234E+15</Timestamp><Current dt:dt=""r8"">0</Current><DateUtc dt:dt=""string"">2014-05-16T20:22:44Z</DateUtc></FrequencyChange></FrequencyChanges></Clock>\n",60.033,1,801573795,0,,-999999,8,64138,t,97938,162076,5/16/2014,13:22:44,8:22:44 PM,2,Session2,SessionsList,0,,-999999,17,806967,t,67634,874601,786411,2,1,2,1,,,,,,,,1,1,1,NonCued3,MiniBlocks2,,,874617,,7,1,b,-999999,18,975600,b,406,976006,Green,Congruent,b,White,0,,0,16,968603,,0,0,,,,,,,,,,,,,Pictures\white.bmp,6000,16000,Pictures\black.bmp,,,,,,,7,1,7,,,,StimulusPr,Pictures\GreenRight.bmp,NonCuedStim3,Right
POP_2,27027,1,"<?xml version=""1.0""?>\n<Clock xmlns:dt=""urn:schemas-microsoft-com:datatypes""><Description dt:dt=""string"">E-Prime Primary Realtime Clock</Description><StartTime><Timestamp dt:dt=""int"">0</Timestamp><DateUtc dt:dt=""string"">2014-05-16T20:22:44Z</DateUtc></StartTime><FrequencyChanges><FrequencyChange><Frequency dt:dt=""r8"">2793030000</Frequency><Timestamp dt:dt=""r8"">2.19227180652234E+15</Timestamp><Current dt:dt=""r8"">0</Current><DateUtc dt:dt=""string"">2014-05-16T20:22:44Z</DateUtc></FrequencyChange></FrequencyChanges></Clock>\n",60.033,1,801573795,0,,-999999,8,64138,t,97938,162076,5/16/2014,13:22:44,8:22:44 PM,2,Session2,SessionsList,0,,-999999,17,806967,t,67634,874601,786411,2,1,2,1,,,,,,,,1,1,1,NonCued3,MiniBlocks2,,,874617,,8,1,r,-999999,4,997605,r,554,998159,Red,Incongruent,r,White,0,,0,8,993591,,0,0,,,,,,,,,,,,,Pictures\white.bmp,3000,2000,Pictures\black.bmp,,,,,,,8,1,8,,,,StimulusPr,Pictures\RedRight.bmp,NonCuedStim3,Right
POP_2,27027,1,"<?xml version=""1.0""?>\n<Clock xmlns:dt=""urn:schemas-microsoft-com:datatypes""><Description dt:dt=""string"">E-Prime Primary Realtime Clock</Description><StartTime><Timestamp dt:dt=""int"">0</Timestamp><DateUtc dt:dt=""string"">2014-05-16T20:22:44Z</DateUtc></StartTime><FrequencyChanges><FrequencyChange><Frequency dt:dt=""r8"">2793030000</Frequency><Timestamp dt:dt=""r8"">2.19227180652234E+15</Timestamp><Current dt:dt=""r8"">0</Current><DateUtc dt:dt=""string"">2014-05-16T20:22:44Z</DateUtc></FrequencyChange></FrequencyChanges></Clock>\n",60.033,1,801573795,0,,-999999,8,64138,t,97938,162076,5/16/2014,13:22:44,8:22:44 PM,2,Session2,SessionsList,0,,-999999,17,806967,t,67634,874601,786411,2,1,2,1,,,,,,,,1,1,1,NonCued3,MiniBlocks2,,,874617,,9,1,r,-999999,9,1011598,r,329,1011927,Green,Congruent,r,White,0,,0,2,1001603,,0,0,,,,,,,,,,,,,Pictures\white.bmp,9000,10000,Pictures\GreenLeft.bmp,,,,,,,9,1,9,,,,StimulusPr,Pictures\black.bmp,NonCuedStim3,Left
POP_2,27027,1,"<?xml version=""1.0""?>\n<Clock xmlns:dt=""urn:schemas-microsoft-com:datatypes""><Description dt:dt=""string"">E-Prime Primary Realtime Clock</Description><StartTime><Timestamp dt:dt=""int"">0</Timestamp><DateUtc dt:dt=""string"">2014-05-16T20:22:44Z</DateUtc></StartTime><FrequencyChanges><FrequencyChange><Frequency dt:dt=""r8"">2793030000</Frequency><Timestamp dt:dt=""r8"">2.19227180652234E+15</Timestamp><Current dt:dt=""r8"">0</Current><DateUtc dt:dt=""string"">2014-05-16T20:22:44Z</DateUtc></FrequencyChange></FrequencyChanges></Clock>\n",60.033,1,801573795,0,,-999999,8,64138,t,97938,162076,5/16/2014,13:22:44,8:22:44 PM,2,Session2,SessionsList,0,,-999999,17,806967,t,67634,874601,786411,2,1,2,1,,,,,,,,1,1,1,NonCued3,MiniBlocks2,,,874617,,10,1,r,-999999,5,1030606,r,340,1030946,Green,Congruent,r,White,0,,0,10,1023592,,0,0,,,,,,,,,,,,,Pictures\white.bmp,6000,4000,Pictures\GreenLeft.bmp,,,,,,,10,1,10,,,,StimulusPr,Pictures\black.bmp,NonCuedStim3,Left
POP_2,27027,1,"<?xml version=""1.0""?>\n<Clock xmlns:dt=""urn:schemas-microsoft-com:datatypes""><Description dt:dt=""string"">E-Prime Primary Realtime Clock</Description><StartTime><Timestamp dt:dt=""int"">0</Timestamp><DateUtc dt:dt=""string"">2014-05-16T20:22:44Z</DateUtc></StartTime><FrequencyChanges><FrequencyChange><Frequency dt:dt=""r8"">2793030000</Frequency><Timestamp dt:dt=""r8"">2.19227180652234E+15</Timestamp><Current dt:dt=""r8"">0</Current><DateUtc dt:dt=""string"">2014-05-16T20:22:44Z</DateUtc></FrequencyChange></FrequencyChanges></Clock>\n",60.033,1,801573795,0,,-999999,8,64138,t,97938,162076,5/16/2014,13:22:44,8:22:44 PM,2,Session2,SessionsList,0,,-999999,17,806967,t,67634,874601,786411,2,1,2,2,,,1034970,,,,,2,1,2,Cued3,MiniBlocks2,,,,,1,1,b,-999999,11,1048613,b,299,1048912,White,Congruent,b,Green,0,,0,13,1044615,,0,0,,,,,,,1,1,1,,,,Pictures\green.bmp,3000,2000,Pictures\black.bmp,,,,,,,,,,,,,StimulusPr,Pictures\right.bmp,CuedStim3,Right
POP_2,27027,1,"<?xml version=""1.0""?>\n<Clock xmlns:dt=""urn:schemas-microsoft-com:datatypes""><Description dt:dt=""string"">E-Prime Primary Realtime Clock</Description><StartTime><Timestamp dt:dt=""int"">0</Timestamp><DateUtc dt:dt=""string"">2014-05-16T20:22:44Z</DateUtc></StartTime><FrequencyChanges><FrequencyChange><Frequency dt:dt=""r8"">2793030000</Frequency><Timestamp dt:dt=""r8"">2.19227180652234E+15</Timestamp><Current dt:dt=""r8"">0</Current><DateUtc dt:dt=""string"">2014-05-16T20:22:44Z</DateUtc></FrequencyChange></FrequencyChanges></Clock>\n",60.033,1,801573795,0,,-999999,8,64138,t,97938,162076,5/16/2014,13:22:44,8:22:44 PM,2,Session2,SessionsList,0,,-999999,17,806967,t,67634,874601,786411,2,1,2,2,,,1034970,,,,,2,1,2,Cued3,MiniBlocks2,,,,,2,1,b,-999999,19,1056609,b,436,1057045,White,Congruent,b,Green,0,,0,10,1052611,,0,0,,,,,,,2,1,2,,,,Pictures\green.bmp,3000,10000,Pictures\black.bmp,,,,,,,,,,,,,StimulusPr,Pictures\right.bmp,CuedStim3,Right
POP_2,27027,1,"<?xml version=""1.0""?>\n<Clock xmlns:dt=""urn:schemas-microsoft-com:datatypes""><Description dt:dt=""string"">E-Prime Primary Realtime Clock</Description><StartTime><Timestamp dt:dt=""int"">0</Timestamp><DateUtc dt:dt=""string"">2014-05-16T20:22:44Z</DateUtc></StartTime><FrequencyChanges><FrequencyChange><Frequency dt:dt=""r8"">2793030000</Frequency><Timestamp dt:dt=""r8"">2.19227180652234E+15</Timestamp><Current dt:dt=""r8"">0</Current><DateUtc dt:dt=""string"">2014-05-16T20:22:44Z</DateUtc></FrequencyChange></FrequencyChanges></Clock>\n",60.033,1,801573795,0,,-999999,8,64138,t,97938,162076,5/16/2014,13:22:44,8:22:44 PM,2,Session2,SessionsList,0,,-999999,17,806967,t,67634,874601,786411,2,1,2,2,,,1034970,,,,,2,1,2,Cued3,MiniBlocks2,,,,,3,1,r,-999999,15,1078615,r,429,1079044,White,Congruent,r,Green,0,,0,2,1068604,,0,0,,,,,,,3,1,3,,,,Pictures\green.bmp,9000,2000,Pictures\left.bmp,,,,,,,,,,,,,StimulusPr,Pictures\black.bmp,CuedStim3,Left
POP_2,27027,1,"<?xml version=""1.0""?>\n<Clock xmlns:dt=""urn:schemas-microsoft-com:datatypes""><Description dt:dt=""string"">E-Prime Primary Realtime Clock</Description><StartTime><Timestamp dt:dt=""int"">0</Timestamp><DateUtc dt:dt=""string"">2014-05-16T20:22:44Z</DateUtc></StartTime><FrequencyChanges><FrequencyChange><Frequency dt:dt=""r8"">2793030000</Frequency><Timestamp dt:dt=""r8"">2.19227180652234E+15</Timestamp><Current dt:dt=""r8"">0</Current><DateUtc dt:dt=""string"">2014-05-16T20:22:44Z</DateUtc></FrequencyChange></FrequencyChanges></Clock>\n",60.033,1,801573795,0,,-999999,8,64138,t,97938,162076,5/16/2014,13:22:44,8:22:44 PM,2,Session2,SessionsList,0,,-999999,17,806967,t,67634,874601,786411,2,1,2,2,,,1034970,,,,,2,1,2,Cued3,MiniBlocks2,,,,,4,1,r,-999999,9,1087610,r,409,1088019,White,Congruent,r,Green,0,,0,12,1082613,,0,0,,,,,,,4,1,4,,,,Pictures\green.bmp,4000,16000,Pictures\left.bmp,,,,,,,,,,,,,StimulusPr,Pictures\black.bmp,CuedStim3,Left
POP_2,27027,1,"<?xml version=""1.0""?>\n<Clock xmlns:dt=""urn:schemas-microsoft-com:datatypes""><Description dt:dt=""string"">E-Prime Primary Realtime Clock</Description><StartTime><Timestamp dt:dt=""int"">0</Timestamp><DateUtc dt:dt=""string"">2014-05-16T20:22:44Z</DateUtc></StartTime><FrequencyChanges><FrequencyChange><Frequency dt:dt=""r8"">2793030000</Frequency><Timestamp dt:dt=""r8"">2.19227180652234E+15</Timestamp><Current dt:dt=""r8"">0</Current><DateUtc dt:dt=""string"">2014-05-16T20:22:44Z</DateUtc></FrequencyChange></FrequencyChanges></Clock>\n",60.033,1,801573795,0,,-999999,8,64138,t,97938,162076,5/16/2014,13:22:44,8:22:44 PM,2,Session2,SessionsList,0,,-999999,17,806967,t,67634,874601,786411,2,1,2,2,,,1034970,,,,,2,1,2,Cued3,MiniBlocks2,,,,,5,1,r,-999999,8,1109599,r,507,1110106,White,Incongruent,r,Red,0,,0,17,1105618,,0,0,,,,,,,5,1,5,,,,Pictures\red.bmp,3000,4000,Pictures\black.bmp,,,,,,,,,,,,,StimulusPr,Pictures\right.bmp,CuedStim3,Right
POP_2,27027,1,"<?xml version=""1.0""?>\n<Clock xmlns:dt=""urn:schemas-microsoft-com:datatypes""><Description dt:dt=""string"">E-Prime Primary Realtime Clock</Description><StartTime><Timestamp dt:dt=""int"">0</Timestamp><DateUtc dt:dt=""string"">2014-05-16T20:22:44Z</DateUtc></StartTime><FrequencyChanges><FrequencyChange><Frequency dt:dt=""r8"">2793030000</Frequency><Timestamp dt:dt=""r8"">2.19227180652234E+15</Timestamp><Current dt:dt=""r8"">0</Current><DateUtc dt:dt=""string"">2014-05-16T20:22:44Z</DateUtc></FrequencyChange></FrequencyChanges></Clock>\n",60.033,1,801573795,0,,-999999,8,64138,t,97938,162076,5/16/2014,13:22:44,8:22:44 PM,2,Session2,SessionsList,0,,-999999,17,806967,t,67634,874601,786411,2,1,2,2,,,1034970,,,,,2,1,2,Cued3,MiniBlocks2,,,,,6,1,b,-999999,9,1122610,b,290,1122900,White,Congruent,b,Green,0,,0,5,1115596,,0,0,,,,,,,6,1,6,,,,Pictures\green.bmp,6000,4000,Pictures\black.bmp,,,,,,,,,,,,,StimulusPr,Pictures\right.bmp,CuedStim3,Right
POP_2,27027,1,"<?xml version=""1.0""?>\n<Clock xmlns:dt=""urn:schemas-microsoft-com:datatypes""><Description dt:dt=""string"">E-Prime Primary Realtime Clock</Description><StartTime><Timestamp dt:dt=""int"">0</Timestamp><DateUtc dt:dt=""string"">2014-05-16T20:22:44Z</DateUtc></StartTime><FrequencyChanges><FrequencyChange><Frequency dt:dt=""r8"">2793030000</Frequency><Timestamp dt:dt=""r8"">2.19227180652234E+15</Timestamp><Current dt:dt=""r8"">0</Current><DateUtc dt:dt=""string"">2014-05-16T20:22:44Z</DateUtc></FrequencyChange></FrequencyChanges></Clock>\n",60.033,1,801573795,0,,-999999,8,64138,t,97938,162076,5/16/2014,13:22:44,8:22:44 PM,2,Session2,SessionsList,0,,-999999,17,806967,t,67634,874601,786411,2,1,2,2,,,1034970,,,,,2,1,2,Cued3,MiniBlocks2,,,,,7,1,r,-999999,3,1133604,r,678,1134282,White,Congruent,r,Green,0,,0,2,1128590,,0,0,,,,,,,7,1,7,,,,Pictures\green.bmp,4000,16000,Pictures\left.bmp,,,,,,,,,,,,,StimulusPr,Pictures\black.bmp,CuedStim3,Left
POP_2,27027,1,"<?xml version=""1.0""?>\n<Clock xmlns:dt=""urn:schemas-microsoft-com:datatypes""><Description dt:dt=""string"">E-Prime Primary Realtime Clock</Description><StartTime><Timestamp dt:dt=""int"">0</Timestamp><DateUtc dt:dt=""string"">2014-05-16T20:22:44Z</DateUtc></StartTime><FrequencyChanges><FrequencyChange><Frequency dt:dt=""r8"">2793030000</Frequency><Timestamp dt:dt=""r8"">2.19227180652234E+15</Timestamp><Current dt:dt=""r8"">0</Current><DateUtc dt:dt=""string"">2014-05-16T20:22:44Z</DateUtc></FrequencyChange></FrequencyChanges></Clock>\n",60.033,1,801573795,0,,-999999,8,64138,t,97938,162076,5/16/2014,13:22:44,8:22:44 PM,2,Session2,SessionsList,0,,-999999,17,806967,t,67634,874601,786411,2,1,2,2,,,1034970,,,,,2,1,2,Cued3,MiniBlocks2,,,,,8,1,b,-999999,7,1155593,b,300,1155893,White,Incongruent,b,Red,0,,0,11,1151612,,0,0,,,,,,,8,1,8,,,,Pictures\red.bmp,3000,2000,Pictures\left.bmp,,,,,,,,,,,,,StimulusPr,Pictures\black.bmp,CuedStim3,Left
POP_2,27027,1,"<?xml version=""1.0""?>\n<Clock xmlns:dt=""urn:schemas-microsoft-com:datatypes""><Description dt:dt=""string"">E-Prime Primary Realtime Clock</Description><StartTime><Timestamp dt:dt=""int"">0</Timestamp><DateUtc dt:dt=""string"">2014-05-16T20:22:44Z</DateUtc></StartTime><FrequencyChanges><FrequencyChange><Frequency dt:dt=""r8"">2793030000</Frequency><Timestamp dt:dt=""r8"">2.19227180652234E+15</Timestamp><Current dt:dt=""r8"">0</Current><DateUtc dt:dt=""string"">2014-05-16T20:22:44Z</DateUtc></FrequencyChange></FrequencyChanges></Clock>\n",60.033,1,801573795,0,,-999999,8,64138,t,97938,162076,5/16/2014,13:22:44,8:22:44 PM,2,Session2,SessionsList,0,,-999999,17,806967,t,67634,874601,786411,2,1,2,2,,,1034970,,,,,2,1,2,Cued3,MiniBlocks2,,,,,9,1,r,-999999,5,1163589,r,384,1163973,White,Congruent,r,Green,0,,0,7,1159608,,0,0,,,,,,,9,1,9,,,,Pictures\green.bmp,3000,2000,Pictures\left.bmp,,,,,,,,,,,,,StimulusPr,Pictures\black.bmp,CuedStim3,Left
POP_2,27027,1,"<?xml version=""1.0""?>\n<Clock xmlns:dt=""urn:schemas-microsoft-com:datatypes""><Description dt:dt=""string"">E-Prime Primary Realtime Clock</Description><StartTime><Timestamp dt:dt=""int"">0</Timestamp><DateUtc dt:dt=""string"">2014-05-16T20:22:44Z</DateUtc></StartTime><FrequencyChanges><FrequencyChange><Frequency dt:dt=""r8"">2793030000</Frequency><Timestamp dt:dt=""r8"">2.19227180652234E+15</Timestamp><Current dt:dt=""r8"">0</Current><DateUtc dt:dt=""string"">2014-05-16T20:22:44Z</DateUtc></FrequencyChange></FrequencyChanges></Clock>\n",60.033,1,801573795,0,,-999999,8,64138,t,97938,162076,5/16/2014,13:22:44,8:22:44 PM,2,Session2,SessionsList,0,,-999999,17,806967,t,67634,874601,786411,2,1,2,2,,,1034970,,,,,2,1,2,Cued3,MiniBlocks2,,,,,10,1,b,-999999,9,1177599,b,274,1177873,White,Congruent,b,Green,0,,0,3,1167604,,0,0,,,,,,,10,1,10,,,,Pictures\green.bmp,9000,10000,Pictures\black.bmp,,,,,,,,,,,,,StimulusPr,Pictures\right.bmp,CuedStim3,Right
POP_2,27027,1,"<?xml version=""1.0""?>\n<Clock xmlns:dt=""urn:schemas-microsoft-com:datatypes""><Description dt:dt=""string"">E-Prime Primary Realtime Clock</Description><StartTime><Timestamp dt:dt=""int"">0</Timestamp><DateUtc dt:dt=""string"">2014-05-16T20:22:44Z</DateUtc></StartTime><FrequencyChanges><FrequencyChange><Frequency dt:dt=""r8"">2793030000</Frequency><Timestamp dt:dt=""r8"">2.19227180652234E+15</Timestamp><Current dt:dt=""r8"">0</Current><DateUtc dt:dt=""string"">2014-05-16T20:22:44Z</DateUtc></FrequencyChange></FrequencyChanges></Clock>\n",60.033,1,801573795,0,,-999999,8,64138,t,97938,162076,5/16/2014,13:22:44,8:22:44 PM,2,Session2,SessionsList,0,,-999999,17,806967,t,67634,874601,786411,2,1,2,3,,,,1187894,,,,3,1,3,Cued4,MiniBlocks2,,,,,1,1,b,-999999,18,1204619,b,296,1204915,White,Congruent,b,Green,0,,0,5,1197606,,0,0,,,,,,,,,,1,1,1,Pictures\green.bmp,6000,2000,Pictures\black.bmp,,,,,,,,,,,,,StimulusPr,Pictures\right.bmp,CuedStim4,Right
POP_2,27027,1,"<?xml version=""1.0""?>\n<Clock xmlns:dt=""urn:schemas-microsoft-com:datatypes""><Description dt:dt=""string"">E-Prime Primary Realtime Clock</Description><StartTime><Timestamp dt:dt=""int"">0</Timestamp><DateUtc dt:dt=""string"">2014-05-16T20:22:44Z</DateUtc></StartTime><FrequencyChanges><FrequencyChange><Frequency dt:dt=""r8"">2793030000</Frequency><Timestamp dt:dt=""r8"">2.19227180652234E+15</Timestamp><Current dt:dt=""r8"">0</Current><DateUtc dt:dt=""string"">2014-05-16T20:22:44Z</DateUtc></FrequencyChange></FrequencyChanges></Clock>\n",60.033,1,801573795,0,,-999999,8,64138,t,97938,162076,5/16/2014,13:22:44,8:22:44 PM,2,Session2,SessionsList,0,,-999999,17,806967,t,67634,874601,786411,2,1,2,3,,,,1187894,,,,3,1,3,Cued4,MiniBlocks2,,,,,2,1,r,-999999,12,1218612,r,464,1219076,White,Incongruent,r,Red,0,,0,16,1208617,,0,0,,,,,,,,,,2,1,2,Pictures\red.bmp,9000,2000,Pictures\black.bmp,,,,,,,,,,,,,StimulusPr,Pictures\right.bmp,CuedStim4,Right
POP_2,27027,1,"<?xml version=""1.0""?>\n<Clock xmlns:dt=""urn:schemas-microsoft-com:datatypes""><Description dt:dt=""string"">E-Prime Primary Realtime Clock</Description><StartTime><Timestamp dt:dt=""int"">0</Timestamp><DateUtc dt:dt=""string"">2014-05-16T20:22:44Z</DateUtc></StartTime><FrequencyChanges><FrequencyChange><Frequency dt:dt=""r8"">2793030000</Frequency><Timestamp dt:dt=""r8"">2.19227180652234E+15</Timestamp><Current dt:dt=""r8"">0</Current><DateUtc dt:dt=""string"">2014-05-16T20:22:44Z</DateUtc></FrequencyChange></FrequencyChanges></Clock>\n",60.033,1,801573795,0,,-999999,8,64138,t,97938,162076,5/16/2014,13:22:44,8:22:44 PM,2,Session2,SessionsList,0,,-999999,17,806967,t,67634,874601,786411,2,1,2,3,,,,1187894,,,,3,1,3,Cued4,MiniBlocks2,,,,,3,1,b,-999999,7,1226608,b,519,1227127,White,Congruent,b,Green,0,,0,3,1222593,,0,0,,,,,,,,,,3,1,3,Pictures\green.bmp,3000,4000,Pictures\black.bmp,,,,,,,,,,,,,StimulusPr,Pictures\right.bmp,CuedStim4,Right
POP_2,27027,1,"<?xml version=""1.0""?>\n<Clock xmlns:dt=""urn:schemas-microsoft-com:datatypes""><Description dt:dt=""string"">E-Prime Primary Realtime Clock</Description><StartTime><Timestamp dt:dt=""int"">0</Timestamp><DateUtc dt:dt=""string"">2014-05-16T20:22:44Z</DateUtc></StartTime><FrequencyChanges><FrequencyChange><Frequency dt:dt=""r8"">2793030000</Frequency><Timestamp dt:dt=""r8"">2.19227180652234E+15</Timestamp><Current dt:dt=""r8"">0</Current><DateUtc dt:dt=""string"">2014-05-16T20:22:44Z</DateUtc></FrequencyChange></FrequencyChanges></Clock>\n",60.033,1,801573795,0,,-999999,8,64138,t,97938,162076,5/16/2014,13:22:44,8:22:44 PM,2,Session2,SessionsList,0,,-999999,17,806967,t,67634,874601,786411,2,1,2,3,,,,1187894,,,,3,1,3,Cued4,MiniBlocks2,,,,,4,1,r,-999999,13,1236603,r,554,1237157,White,Congruent,r,Green,0,,0,4,1232605,,0,0,,,,,,,,,,4,1,4,Pictures\green.bmp,3000,4000,Pictures\left.bmp,,,,,,,,,,,,,StimulusPr,Pictures\black.bmp,CuedStim4,Left
POP_2,27027,1,"<?xml version=""1.0""?>\n<Clock xmlns:dt=""urn:schemas-microsoft-com:datatypes""><Description dt:dt=""string"">E-Prime Primary Realtime Clock</Description><StartTime><Timestamp dt:dt=""int"">0</Timestamp><DateUtc dt:dt=""string"">2014-05-16T20:22:44Z</DateUtc></StartTime><FrequencyChanges><FrequencyChange><Frequency dt:dt=""r8"">2793030000</Frequency><Timestamp dt:dt=""r8"">2.19227180652234E+15</Timestamp><Current dt:dt=""r8"">0</Current><DateUtc dt:dt=""string"">2014-05-16T20:22:44Z</DateUtc></FrequencyChange></FrequencyChanges></Clock>\n",60.033,1,801573795,0,,-999999,8,64138,t,97938,162076,5/16/2014,13:22:44,8:22:44 PM,2,Session2,SessionsList,0,,-999999,17,806967,t,67634,874601,786411,2,1,2,3,,,,1187894,,,,3,1,3,Cued4,MiniBlocks2,,,,,5,1,b,-999999,15,1247614,b,345,1247959,White,Incongruent,b,Red,0,,0,15,1242616,,0,0,,,,,,,,,,5,1,5,Pictures\red.bmp,4000,16000,Pictures\left.bmp,,,,,,,,,,,,,StimulusPr,Pictures\black.bmp,CuedStim4,Left
POP_2,27027,1,"<?xml version=""1.0""?>\n<Clock xmlns:dt=""urn:schemas-microsoft-com:datatypes""><Description dt:dt=""string"">E-Prime Primary Realtime Clock</Description><StartTime><Timestamp dt:dt=""int"">0</Timestamp><DateUtc dt:dt=""string"">2014-05-16T20:22:44Z</DateUtc></StartTime><FrequencyChanges><FrequencyChange><Frequency dt:dt=""r8"">2793030000</Frequency><Timestamp dt:dt=""r8"">2.19227180652234E+15</Timestamp><Current dt:dt=""r8"">0</Current><DateUtc dt:dt=""string"">2014-05-16T20:22:44Z</DateUtc></FrequencyChange></FrequencyChanges></Clock>\n",60.033,1,801573795,0,,-999999,8,64138,t,97938,162076,5/16/2014,13:22:44,8:22:44 PM,2,Session2,SessionsList,0,,-999999,17,806967,t,67634,874601,786411,2,1,2,3,,,,1187894,,,,3,1,3,Cued4,MiniBlocks2,,,,,6,1,b,-999999,3,1269604,b,262,1269866,White,Congruent,b,Green,0,,0,4,1265605,,0,0,,,,,,,,,,6,1,6,Pictures\green.bmp,3000,2000,Pictures\black.bmp,,,,,,,,,,,,,StimulusPr,Pictures\right.bmp,CuedStim4,Right
POP_2,27027,1,"<?xml version=""1.0""?>\n<Clock xmlns:dt=""urn:schemas-microsoft-com:datatypes""><Description dt:dt=""string"">E-Prime Primary Realtime Clock</Description><StartTime><Timestamp dt:dt=""int"">0</Timestamp><DateUtc dt:dt=""string"">2014-05-16T20:22:44Z</DateUtc></StartTime><FrequencyChanges><FrequencyChange><Frequency dt:dt=""r8"">2793030000</Frequency><Timestamp dt:dt=""r8"">2.19227180652234E+15</Timestamp><Current dt:dt=""r8"">0</Current><DateUtc dt:dt=""string"">2014-05-16T20:22:44Z</DateUtc></FrequencyChange></FrequencyChanges></Clock>\n",60.033,1,801573795,0,,-999999,8,64138,t,97938,162076,5/16/2014,13:22:44,8:22:44 PM,2,Session2,SessionsList,0,,-999999,17,806967,t,67634,874601,786411,2,1,2,3,,,,1187894,,,,3,1,3,Cued4,MiniBlocks2,,,,,7,1,b,-999999,12,1283613,b,271,1283884,White,Congruent,b,Green,0,,0,17,1273618,,0,0,,,,,,,,,,7,1,7,Pictures\green.bmp,9000,10000,Pictures\black.bmp,,,,,,,,,,,,,StimulusPr,Pictures\right.bmp,CuedStim4,Right
POP_2,27027,1,"<?xml version=""1.0""?>\n<Clock xmlns:dt=""urn:schemas-microsoft-com:datatypes""><Description dt:dt=""string"">E-Prime Primary Realtime Clock</Description><StartTime><Timestamp dt:dt=""int"">0</Timestamp><DateUtc dt:dt=""string"">2014-05-16T20:22:44Z</DateUtc></StartTime><FrequencyChanges><FrequencyChange><Frequency dt:dt=""r8"">2793030000</Frequency><Timestamp dt:dt=""r8"">2.19227180652234E+15</Timestamp><Current dt:dt=""r8"">0</Current><DateUtc dt:dt=""string"">2014-05-16T20:22:44Z</DateUtc></FrequencyChange></FrequencyChanges></Clock>\n",60.033,1,801573795,0,,-999999,8,64138,t,97938,162076,5/16/2014,13:22:44,8:22:44 PM,2,Session2,SessionsList,0,,-999999,17,806967,t,67634,874601,786411,2,1,2,3,,,,1187894,,,,3,1,3,Cued4,MiniBlocks2,,,,,8,1,b,-999999,13,1302603,b,446,1303049,White,Incongruent,b,Red,0,,0,6,1295607,,0,0,,,,,,,,,,8,1,8,Pictures\red.bmp,6000,10000,Pictures\left.bmp,,,,,,,,,,,,,StimulusPr,Pictures\black.bmp,CuedStim4,Left
POP_2,27027,1,"<?xml version=""1.0""?>\n<Clock xmlns:dt=""urn:schemas-microsoft-com:datatypes""><Description dt:dt=""string"">E-Prime Primary Realtime Clock</Description><StartTime><Timestamp dt:dt=""int"">0</Timestamp><DateUtc dt:dt=""string"">2014-05-16T20:22:44Z</DateUtc></StartTime><FrequencyChanges><FrequencyChange><Frequency dt:dt=""r8"">2793030000</Frequency><Timestamp dt:dt=""r8"">2.19227180652234E+15</Timestamp><Current dt:dt=""r8"">0</Current><DateUtc dt:dt=""string"">2014-05-16T20:22:44Z</DateUtc></FrequencyChange></FrequencyChanges></Clock>\n",60.033,1,801573795,0,,-999999,8,64138,t,97938,162076,5/16/2014,13:22:44,8:22:44 PM,2,Session2,SessionsList,0,,-999999,17,806967,t,67634,874601,786411,2,1,2,3,,,,1187894,,,,3,1,3,Cued4,MiniBlocks2,,,,,9,1,r,-999999,8,1321610,r,308,1321918,White,Congruent,r,Green,0,,0,12,1314614,,0,0,,,,,,,,,,9,1,9,Pictures\green.bmp,6000,16000,Pictures\left.bmp,,,,,,,,,,,,,StimulusPr,Pictures\black.bmp,CuedStim4,Left
POP_2,27027,1,"<?xml version=""1.0""?>\n<Clock xmlns:dt=""urn:schemas-microsoft-com:datatypes""><Description dt:dt=""string"">E-Prime Primary Realtime Clock</Description><StartTime><Timestamp dt:dt=""int"">0</Timestamp><DateUtc dt:dt=""string"">2014-05-16T20:22:44Z</DateUtc></StartTime><FrequencyChanges><FrequencyChange><Frequency dt:dt=""r8"">2793030000</Frequency><Timestamp dt:dt=""r8"">2.19227180652234E+15</Timestamp><Current dt:dt=""r8"">0</Current><DateUtc dt:dt=""string"">2014-05-16T20:22:44Z</DateUtc></FrequencyChange></FrequencyChanges></Clock>\n",60.033,1,801573795,0,,-999999,8,64138,t,97938,162076,5/16/2014,13:22:44,8:22:44 PM,2,Session2,SessionsList,0,,-999999,17,806967,t,67634,874601,786411,2,1,2,3,,,,1187894,,,,3,1,3,Cued4,MiniBlocks2,,,,,10,1,r,-999999,13,1344615,r,384,1344999,White,Congruent,r,Green,0,,0,13,1339601,,0,0,,,,,,,,,,10,1,10,Pictures\green.bmp,4000,2000,Pictures\left.bmp,,,,,,,,,,,,,StimulusPr,Pictures\black.bmp,CuedStim4,Left
POP_2,27027,1,"<?xml version=""1.0""?>\n<Clock xmlns:dt=""urn:schemas-microsoft-com:datatypes""><Description dt:dt=""string"">E-Prime Primary Realtime Clock</Description><StartTime><Timestamp dt:dt=""int"">0</Timestamp><DateUtc dt:dt=""string"">2014-05-16T20:22:44Z</DateUtc></StartTime><FrequencyChanges><FrequencyChange><Frequency dt:dt=""r8"">2793030000</Frequency><Timestamp dt:dt=""r8"">2.19227180652234E+15</Timestamp><Current dt:dt=""r8"">0</Current><DateUtc dt:dt=""string"">2014-05-16T20:22:44Z</DateUtc></FrequencyChange></FrequencyChanges></Clock>\n",60.033,1,801573795,0,,-999999,8,64138,t,97938,162076,5/16/2014,13:22:44,8:22:44 PM,2,Session2,SessionsList,0,,-999999,17,806967,t,67634,874601,786411,2,1,2,4,,,,,,,,4,1,4,NonCued4,MiniBlocks2,,,,1347031,1,1,r,-999999,6,1360607,r,633,1361240,Green,Congruent,r,White,0,,0,10,1356593,,0,0,,,,,,,,,,,,,Pictures\white.bmp,3000,2000,Pictures\GreenLeft.bmp,,,,,,,,,,1,1,1,StimulusPr,Pictures\black.bmp,NonCuedStim4,Left
POP_2,27027,1,"<?xml version=""1.0""?>\n<Clock xmlns:dt=""urn:schemas-microsoft-com:datatypes""><Description dt:dt=""string"">E-Prime Primary Realtime Clock</Description><StartTime><Timestamp dt:dt=""int"">0</Timestamp><DateUtc dt:dt=""string"">2014-05-16T20:22:44Z</DateUtc></StartTime><FrequencyChanges><FrequencyChange><Frequency dt:dt=""r8"">2793030000</Frequency><Timestamp dt:dt=""r8"">2.19227180652234E+15</Timestamp><Current dt:dt=""r8"">0</Current><DateUtc dt:dt=""string"">2014-05-16T20:22:44Z</DateUtc></FrequencyChange></FrequencyChanges></Clock>\n",60.033,1,801573795,0,,-999999,8,64138,t,97938,162076,5/16/2014,13:22:44,8:22:44 PM,2,Session2,SessionsList,0,,-999999,17,806967,t,67634,874601,786411,2,1,2,4,,,,,,,,4,1,4,NonCued4,MiniBlocks2,,,,1347031,2,1,r,-999999,19,1369603,r,622,1370225,Green,Congruent,r,White,0,,0,4,1364605,,0,0,,,,,,,,,,,,,Pictures\white.bmp,4000,2000,Pictures\GreenLeft.bmp,,,,,,,,,,2,1,2,StimulusPr,Pictures\black.bmp,NonCuedStim4,Left
POP_2,27027,1,"<?xml version=""1.0""?>\n<Clock xmlns:dt=""urn:schemas-microsoft-com:datatypes""><Description dt:dt=""string"">E-Prime Primary Realtime Clock</Description><StartTime><Timestamp dt:dt=""int"">0</Timestamp><DateUtc dt:dt=""string"">2014-05-16T20:22:44Z</DateUtc></StartTime><FrequencyChanges><FrequencyChange><Frequency dt:dt=""r8"">2793030000</Frequency><Timestamp dt:dt=""r8"">2.19227180652234E+15</Timestamp><Current dt:dt=""r8"">0</Current><DateUtc dt:dt=""string"">2014-05-16T20:22:44Z</DateUtc></FrequencyChange></FrequencyChanges></Clock>\n",60.033,1,801573795,0,,-999999,8,64138,t,97938,162076,5/16/2014,13:22:44,8:22:44 PM,2,Session2,SessionsList,0,,-999999,17,806967,t,67634,874601,786411,2,1,2,4,,,,,,,,4,1,4,NonCued4,MiniBlocks2,,,,1347031,3,0,r,-999999,16,1378598,b,432,1379030,Red,Incongruent,r,White,0,,0,17,1373618,,0,0,,,,,,,,,,,,,Pictures\white.bmp,4000,2000,Pictures\black.bmp,,,,,,,,,,3,1,3,StimulusPr,Pictures\RedRight.bmp,NonCuedStim4,Right
POP_2,27027,1,"<?xml version=""1.0""?>\n<Clock xmlns:dt=""urn:schemas-microsoft-com:datatypes""><Description dt:dt=""string"">E-Prime Primary Realtime Clock</Description><StartTime><Timestamp dt:dt=""int"">0</Timestamp><DateUtc dt:dt=""string"">2014-05-16T20:22:44Z</DateUtc></StartTime><FrequencyChanges><FrequencyChange><Frequency dt:dt=""r8"">2793030000</Frequency><Timestamp dt:dt=""r8"">2.19227180652234E+15</Timestamp><Current dt:dt=""r8"">0</Current><DateUtc dt:dt=""string"">2014-05-16T20:22:44Z</DateUtc></FrequencyChange></FrequencyChanges></Clock>\n",60.033,1,801573795,0,,-999999,8,64138,t,97938,162076,5/16/2014,13:22:44,8:22:44 PM,2,Session2,SessionsList,0,,-999999,17,806967,t,67634,874601,786411,2,1,2,4,,,,,,,,4,1,4,NonCued4,MiniBlocks2,,,,1347031,4,1,b,-999999,9,1386595,b,703,1387298,Green,Congruent,b,White,0,,0,7,1382597,,0,0,,,,,,,,,,,,,Pictures\white.bmp,3000,16000,Pictures\black.bmp,,,,,,,,,,4,1,4,StimulusPr,Pictures\GreenRight.bmp,NonCuedStim4,Right
POP_2,27027,1,"<?xml version=""1.0""?>\n<Clock xmlns:dt=""urn:schemas-microsoft-com:datatypes""><Description dt:dt=""string"">E-Prime Primary Realtime Clock</Description><StartTime><Timestamp dt:dt=""int"">0</Timestamp><DateUtc dt:dt=""string"">2014-05-16T20:22:44Z</DateUtc></StartTime><FrequencyChanges><FrequencyChange><Frequency dt:dt=""r8"">2793030000</Frequency><Timestamp dt:dt=""r8"">2.19227180652234E+15</Timestamp><Current dt:dt=""r8"">0</Current><DateUtc dt:dt=""string"">2014-05-16T20:22:44Z</DateUtc></FrequencyChange></FrequencyChanges></Clock>\n",60.033,1,801573795,0,,-999999,8,64138,t,97938,162076,5/16/2014,13:22:44,8:22:44 PM,2,Session2,SessionsList,0,,-999999,17,806967,t,67634,874601,786411,2,1,2,4,,,,,,,,4,1,4,NonCued4,MiniBlocks2,,,,1347031,5,1,r,-999999,12,1414614,r,387,1415001,Green,Congruent,r,White,0,,0,17,1404619,,0,0,,,,,,,,,,,,,Pictures\white.bmp,9000,10000,Pictures\GreenLeft.bmp,,,,,,,,,,5,1,5,StimulusPr,Pictures\black.bmp,NonCuedStim4,Left
POP_2,27027,1,"<?xml version=""1.0""?>\n<Clock xmlns:dt=""urn:schemas-microsoft-com:datatypes""><Description dt:dt=""string"">E-Prime Primary Realtime Clock</Description><StartTime><Timestamp dt:dt=""int"">0</Timestamp><DateUtc dt:dt=""string"">2014-05-16T20:22:44Z</DateUtc></StartTime><FrequencyChanges><FrequencyChange><Frequency dt:dt=""r8"">2793030000</Frequency><Timestamp dt:dt=""r8"">2.19227180652234E+15</Timestamp><Current dt:dt=""r8"">0</Current><DateUtc dt:dt=""string"">2014-05-16T20:22:44Z</DateUtc></FrequencyChange></FrequencyChanges></Clock>\n",60.033,1,801573795,0,,-999999,8,64138,t,97938,162076,5/16/2014,13:22:44,8:22:44 PM,2,Session2,SessionsList,0,,-999999,17,806967,t,67634,874601,786411,2,1,2,4,,,,,,,,4,1,4,NonCued4,MiniBlocks2,,,,1347031,6,1,b,-999999,16,1430606,b,427,1431033,Green,Congruent,b,White,0,,0,18,1426608,,0,0,,,,,,,,,,,,,Pictures\white.bmp,3000,16000,Pictures\black.bmp,,,,,,,,,,6,1,6,StimulusPr,Pictures\GreenRight.bmp,NonCuedStim4,Right
POP_2,27027,1,"<?xml version=""1.0""?>\n<Clock xmlns:dt=""urn:schemas-microsoft-com:datatypes""><Description dt:dt=""string"">E-Prime Primary Realtime Clock</Description><StartTime><Timestamp dt:dt=""int"">0</Timestamp><DateUtc dt:dt=""string"">2014-05-16T20:22:44Z</DateUtc></StartTime><FrequencyChanges><FrequencyChange><Frequency dt:dt=""r8"">2793030000</Frequency><Timestamp dt:dt=""r8"">2.19227180652234E+15</Timestamp><Current dt:dt=""r8"">0</Current><DateUtc dt:dt=""string"">2014-05-16T20:22:44Z</DateUtc></FrequencyChange></FrequencyChanges></Clock>\n",60.033,1,801573795,0,,-999999,8,64138,t,97938,162076,5/16/2014,13:22:44,8:22:44 PM,2,Session2,SessionsList,0,,-999999,17,806967,t,67634,874601,786411,2,1,2,4,,,,,,,,4,1,4,NonCued4,MiniBlocks2,,,,1347031,7,1,b,-999999,5,1452595,b,392,1452987,Red,Incongruent,b,White,0,,0,12,1448614,,0,0,,,,,,,,,,,,,Pictures\white.bmp,3000,16000,Pictures\RedLeft.bmp,,,,,,,,,,7,1,7,StimulusPr,Pictures\black.bmp,NonCuedStim4,Left
POP_2,27027,1,"<?xml version=""1.0""?>\n<Clock xmlns:dt=""urn:schemas-microsoft-com:datatypes""><Description dt:dt=""string"">E-Prime Primary Realtime Clock</Description><StartTime><Timestamp dt:dt=""int"">0</Timestamp><DateUtc dt:dt=""string"">2014-05-16T20:22:44Z</DateUtc></StartTime><FrequencyChanges><FrequencyChange><Frequency dt:dt=""r8"">2793030000</Frequency><Timestamp dt:dt=""r8"">2.19227180652234E+15</Timestamp><Current dt:dt=""r8"">0</Current><DateUtc dt:dt=""string"">2014-05-16T20:22:44Z</DateUtc></FrequencyChange></FrequencyChanges></Clock>\n",60.033,1,801573795,0,,-999999,8,64138,t,97938,162076,5/16/2014,13:22:44,8:22:44 PM,2,Session2,SessionsList,0,,-999999,17,806967,t,67634,874601,786411,2,1,2,4,,,,,,,,4,1,4,NonCued4,MiniBlocks2,,,,1347031,8,1,r,-999999,16,1474617,r,347,1474964,Green,Congruent,r,White,0,,0,12,1470603,,0,0,,,,,,,,,,,,,Pictures\white.bmp,3000,2000,Pictures\GreenLeft.bmp,,,,,,,,,,8,1,8,StimulusPr,Pictures\black.bmp,NonCuedStim4,Left
POP_2,27027,1,"<?xml version=""1.0""?>\n<Clock xmlns:dt=""urn:schemas-microsoft-com:datatypes""><Description dt:dt=""string"">E-Prime Primary Realtime Clock</Description><StartTime><Timestamp dt:dt=""int"">0</Timestamp><DateUtc dt:dt=""string"">2014-05-16T20:22:44Z</DateUtc></StartTime><FrequencyChanges><FrequencyChange><Frequency dt:dt=""r8"">2793030000</Frequency><Timestamp dt:dt=""r8"">2.19227180652234E+15</Timestamp><Current dt:dt=""r8"">0</Current><DateUtc dt:dt=""string"">2014-05-16T20:22:44Z</DateUtc></FrequencyChange></FrequencyChanges></Clock>\n",60.033,1,801573795,0,,-999999,8,64138,t,97938,162076,5/16/2014,13:22:44,8:22:44 PM,2,Session2,SessionsList,0,,-999999,17,806967,t,67634,874601,786411,2,1,2,4,,,,,,,,4,1,4,NonCued4,MiniBlocks2,,,,1347031,9,1,b,-999999,5,1485595,b,477,1486072,Green,Congruent,b,White,0,,0,14,1478615,,0,0,,,,,,,,,,,,,Pictures\white.bmp,6000,2000,Pictures\black.bmp,,,,,,,,,,9,1,9,StimulusPr,Pictures\GreenRight.bmp,NonCuedStim4,Right
POP_2,27027,1,"<?xml version=""1.0""?>\n<Clock xmlns:dt=""urn:schemas-microsoft-com:datatypes""><Description dt:dt=""string"">E-Prime Primary Realtime Clock</Description><StartTime><Timestamp dt:dt=""int"">0</Timestamp><DateUtc dt:dt=""string"">2014-05-16T20:22:44Z</DateUtc></StartTime><FrequencyChanges><FrequencyChange><Frequency dt:dt=""r8"">2793030000</Frequency><Timestamp dt:dt=""r8"">2.19227180652234E+15</Timestamp><Current dt:dt=""r8"">0</Current><DateUtc dt:dt=""string"">2014-05-16T20:22:44Z</DateUtc></FrequencyChange></FrequencyChanges></Clock>\n",60.033,1,801573795,0,,-999999,8,64138,t,97938,162076,5/16/2014,13:22:44,8:22:44 PM,2,Session2,SessionsList,0,,-999999,17,806967,t,67634,874601,786411,2,1,2,4,,,,,,,,4,1,4,NonCued4,MiniBlocks2,,,,1347031,10,1,b,-999999,5,1494607,b,455,1495062,Green,Congruent,b,White,0,,0,10,1489593,,0,0,,,,,,,,,,,,,Pictures\white.bmp,4000,4000,Pictures\black.bmp,,,,,,,,,,10,1,10,StimulusPr,Pictures\GreenRight.bmp,NonCuedStim4,Right
