ExperimentName,Subject,Session,Clock.Information,Display.RefreshRate,Group,RandomSeed,Session1Onset.ACC,Session1Onset.CRESP,Session1Onset.DurationError,Session1Onset.OnsetDelay,Session1Onset.OnsetTime,Session1Onset.RESP,Session1Onset.RT,Session1Onset.RTTime,SessionDate,SessionTime,SessionTimeUtc,Block,Procedure[Block],Running[Block],Session2Onset.ACC,Session2Onset.CRESP,Session2Onset.DurationError,Session2Onset.OnsetDelay,Session2Onset.OnsetTime,Session2Onset.RESP,Session2Onset.RT,Session2Onset.RTTime,SessionBreak.OnsetTime,SessionsList,SessionsList.Cycle,SessionsList.Sample,Trial,CuedPrompt1.OnsetTime,CuedPrompt2.OnsetTime,CuedPrompt3.OnsetTime,CuedPrompt4.OnsetTime,MiniBlocks1,MiniBlocks1.Cycle,MiniBlocks1.Sample,MiniBlocks2,MiniBlocks2.Cycle,MiniBlocks2.Sample,Procedure[Trial],Running[Trial],UncuedPrompt1.OnsetTime,UncuedPrompt2.OnsetTime,UncuedPrompt3.OnsetTime,UncuedPrompt4.OnsetTime,SubTrial,Arrow1.ACC,Arrow1.CRESP,Arrow1.DurationError,Arrow1.OnsetDelay,Arrow1.OnsetTime,Arrow1.RESP,Arrow1.RT,Arrow1.RTTime,ArrowColor,Congruence,CorrectResp,Cue,Cue.ACC,Cue.CRESP,Cue.DurationError,Cue.OnsetDelay,Cue.OnsetTime,Cue.RESP,Cue.RT,Cue.RTTime,CuedStim1,CuedStim1.Cycle,CuedStim1.Sample,CuedStim2,CuedStim2.Cycle,CuedStim2.Sample,CuedStim3,CuedStim3.Cycle,CuedStim3.Sample,CuedStim4,CuedStim4.Cycle,CuedStim4.Sample,CueImage,JitterCue,JitterTrial,LeftImage,NonCuedStim1,NonCuedStim1.Cycle,NonCuedStim1.Sample,NonCuedStim2,NonCuedStim2.Cycle,NonCuedStim2.Sample,NonCuedStim3,NonCuedStim3.Cycle,NonCuedStim3.Sample,NonCuedStim4,NonCuedStim4.Cycle,NonCuedStim4.Sample,Procedure[SubTrial],RightImage,Running[SubTrial],Stimulus
POP_2,27034,1,"<?xml version=""1.0""?>\n<Clock xmlns:dt=""urn:schemas-microsoft-com:datatypes""><Description dt:dt=""string"">E-Prime Primary Realtime Clock</Description><StartTime><Timestamp dt:dt=""int"">0</Timestamp><DateUtc dt:dt=""string"">2014-06-02T19:28:13Z</DateUtc></StartTime><FrequencyChanges><FrequencyChange><Frequency dt:dt=""r8"">2793040000</Frequency><Timestamp dt:dt=""r8"">1.2173127631308E+15</Timestamp><Current dt:dt=""r8"">0</Current><DateUtc dt:dt=""string"">2014-06-02T19:28:13Z</DateUtc></FrequencyChange></FrequencyChanges></Clock>\n",60.033,1,-1016424431,0,,-999999,14,22180,t,94726,116906,6/2/2014,12:28:13,7:28:13 PM,1,Session1,SessionsList,,,,,,,,,,1,1,1,1,,,,,,,,1,1,1,NonCued3,MiniBlocks2,,,116916,,1,1,b,-999999,17,136923,b,621,137544,Green,Congruent,b,White,0,,0,6,126911,,0,0,,,,,,,,,,,,,Pictures\white.bmp,9000,10000,Pictures\black.bmp,,,,,,,1,1,1,,,,StimulusPr,Pictures\GreenRight.bmp,NonCuedStim3,Right
POP_2,27034,1,"<?xml version=""1.0""?>\n<Clock xmlns:dt=""urn:schemas-microsoft-com:datatypes""><Description dt:dt=""string"">E-Prime Primary Realtime Clock</Description><StartTime><Timestamp dt:dt=""int"">0</Timestamp><DateUtc dt:dt=""string"">2014-06-02T19:28:13Z</DateUtc></StartTime><FrequencyChanges><FrequencyChange><Frequency dt:dt=""r8"">2793040000</Frequency><Timestamp dt:dt=""r8"">1.2173127631308E+15</Timestamp><Current dt:dt=""r8"">0</Current><DateUtc dt:dt=""string"">2014-06-02T19:28:13Z</DateUtc></FrequencyChange></FrequencyChanges></Clock>\n",60.033,1,-1016424431,0,,-999999,14,22180,t,94726,116906,6/2/2014,12:28:13,7:28:13 PM,1,Session1,SessionsList,,,,,,,,,,1,1,1,1,,,,,,,,1,1,1,NonCued3,MiniBlocks2,,,116916,,2,1,r,-999999,7,158912,r,566,159478,Red,Incongruent,r,White,0,,0,12,148917,,0,0,,,,,,,,,,,,,Pictures\white.bmp,9000,10000,Pictures\black.bmp,,,,,,,2,1,2,,,,StimulusPr,Pictures\RedRight.bmp,NonCuedStim3,Right
POP_2,27034,1,"<?xml version=""1.0""?>\n<Clock xmlns:dt=""urn:schemas-microsoft-com:datatypes""><Description dt:dt=""string"">E-Prime Primary Realtime Clock</Description><StartTime><Timestamp dt:dt=""int"">0</Timestamp><DateUtc dt:dt=""string"">2014-06-02T19:28:13Z</DateUtc></StartTime><FrequencyChanges><FrequencyChange><Frequency dt:dt=""r8"">2793040000</Frequency><Timestamp dt:dt=""r8"">1.2173127631308E+15</Timestamp><Current dt:dt=""r8"">0</Current><DateUtc dt:dt=""string"">2014-06-02T19:28:13Z</DateUtc></FrequencyChange></FrequencyChanges></Clock>\n",60.033,1,-1016424431,0,,-999999,14,22180,t,94726,116906,6/2/2014,12:28:13,7:28:13 PM,1,Session1,SessionsList,,,,,,,,,,1,1,1,1,,,,,,,,1,1,1,NonCued3,MiniBlocks2,,,116916,,3,1,r,-999999,15,175920,r,675,176595,Green,Congruent,r,White,0,,0,17,170922,,0,0,,,,,,,,,,,,,Pictures\white.bmp,4000,4000,Pictures\GreenLeft.bmp,,,,,,,3,1,3,,,,StimulusPr,Pictures\black.bmp,NonCuedStim3,Left
POP_2,27034,1,"<?xml version=""1.0""?>\n<Clock xmlns:dt=""urn:schemas-microsoft-com:datatypes""><Description dt:dt=""string"">E-Prime Primary Realtime Clock</Description><StartTime><Timestamp dt:dt=""int"">0</Timestamp><DateUtc dt:dt=""string"">2014-06-02T19:28:13Z</DateUtc></StartTime><FrequencyChanges><FrequencyChange><Frequency dt:dt=""r8"">2793040000</Frequency><Timestamp dt:dt=""r8"">1.2173127631308E+15</Timestamp><Current dt:dt=""r8"">0</Current><DateUtc dt:dt=""string"">2014-06-02T19:28:13Z</DateUtc></FrequencyChange></FrequencyChanges></Clock>\n",60.033,1,-1016424431,0,,-999999,14,22180,t,94726,116906,6/2/2014,12:28:13,7:28:13 PM,1,Session1,SessionsList,,,,,,,,,,1,1,1,1,,,,,,,,1,1,1,NonCued3,MiniBlocks2,,,116916,,4,1,b,-999999,9,188913,b,540,189453,Red,Incongruent,b,White,0,,0,12,181917,,0,0,,,,,,,,,,,,,Pictures\white.bmp,6000,4000,Pictures\RedLeft.bmp,,,,,,,4,1,4,,,,StimulusPr,Pictures\black.bmp,NonCuedStim3,Left
POP_2,27034,1,"<?xml version=""1.0""?>\n<Clock xmlns:dt=""urn:schemas-microsoft-com:datatypes""><Description dt:dt=""string"">E-Prime Primary Realtime Clock</Description><StartTime><Timestamp dt:dt=""int"">0</Timestamp><DateUtc dt:dt=""string"">2014-06-02T19:28:13Z</DateUtc></StartTime><FrequencyChanges><FrequencyChange><Frequency dt:dt=""r8"">2793040000</Frequency><Timestamp dt:dt=""r8"">1.2173127631308E+15</Timestamp><Current dt:dt=""r8"">0</Current><DateUtc dt:dt=""string"">2014-06-02T19:28:13Z</DateUtc></FrequencyChange></FrequencyChanges></Clock>\n",60.033,1,-1016424431,0,,-999999,14,22180,t,94726,116906,6/2/2014,12:28:13,7:28:13 PM,1,Session1,SessionsList,,,,,,,,,,1,1,1,1,,,,,,,,1,1,1,NonCued3,MiniBlocks2,,,116916,,5,1,b,-999999,3,198908,b,552,199460,Green,Congruent,b,White,0,,0,5,194910,,0,0,,,,,,,,,,,,,Pictures\white.bmp,3000,2000,Pictures\black.bmp,,,,,,,5,1,5,,,,StimulusPr,Pictures\GreenRight.bmp,NonCuedStim3,Right
POP_2,27034,1,"<?xml version=""1.0""?>\n<Clock xmlns:dt=""urn:schemas-microsoft-com:datatypes""><Description dt:dt=""string"">E-Prime Primary Realtime Clock</Description><StartTime><Timestamp dt:dt=""int"">0</Timestamp><DateUtc dt:dt=""string"">2014-06-02T19:28:13Z</DateUtc></StartTime><FrequencyChanges><FrequencyChange><Frequency dt:dt=""r8"">2793040000</Frequency><Timestamp dt:dt=""r8"">1.2173127631308E+15</Timestamp><Current dt:dt=""r8"">0</Current><DateUtc dt:dt=""string"">2014-06-02T19:28:13Z</DateUtc></FrequencyChange></FrequencyChanges></Clock>\n",60.033,1,-1016424431,0,,-999999,14,22180,t,94726,116906,6/2/2014,12:28:13,7:28:13 PM,1,Session1,SessionsList,,,,,,,,,,1,1,1,1,,,,,,,,1,1,1,NonCued3,MiniBlocks2,,,116916,,6,1,r,-999999,16,206921,r,599,207520,Green,Congruent,r,White,0,,0,2,202907,,0,0,,,,,,,,,,,,,Pictures\white.bmp,3000,2000,Pictures\GreenLeft.bmp,,,,,,,6,1,6,,,,StimulusPr,Pictures\black.bmp,NonCuedStim3,Left
POP_2,27034,1,"<?xml version=""1.0""?>\n<Clock xmlns:dt=""urn:schemas-microsoft-com:datatypes""><Description dt:dt=""string"">E-Prime Primary Realtime Clock</Description><StartTime><Timestamp dt:dt=""int"">0</Timestamp><DateUtc dt:dt=""string"">2014-06-02T19:28:13Z</DateUtc></StartTime><FrequencyChanges><FrequencyChange><Frequency dt:dt=""r8"">2793040000</Frequency><Timestamp dt:dt=""r8"">1.2173127631308E+15</Timestamp><Current dt:dt=""r8"">0</Current><DateUtc dt:dt=""string"">2014-06-02T19:28:13Z</DateUtc></FrequencyChange></FrequencyChanges></Clock>\n",60.033,1,-1016424431,0,,-999999,14,22180,t,94726,116906,6/2/2014,12:28:13,7:28:13 PM,1,Session1,SessionsList,,,,,,,,,,1,1,1,1,,,,,,,,1,1,1,NonCued3,MiniBlocks2,,,116916,,7,1,b,-999999,10,217915,b,432,218347,Green,Congruent,b,White,0,,0,14,210919,,0,0,,,,,,,,,,,,,Pictures\white.bmp,6000,16000,Pictures\black.bmp,,,,,,,7,1,7,,,,StimulusPr,Pictures\GreenRight.bmp,NonCuedStim3,Right
POP_2,27034,1,"<?xml version=""1.0""?>\n<Clock xmlns:dt=""urn:schemas-microsoft-com:datatypes""><Description dt:dt=""string"">E-Prime Primary Realtime Clock</Description><StartTime><Timestamp dt:dt=""int"">0</Timestamp><DateUtc dt:dt=""string"">2014-06-02T19:28:13Z</DateUtc></StartTime><FrequencyChanges><FrequencyChange><Frequency dt:dt=""r8"">2793040000</Frequency><Timestamp dt:dt=""r8"">1.2173127631308E+15</Timestamp><Current dt:dt=""r8"">0</Current><DateUtc dt:dt=""string"">2014-06-02T19:28:13Z</DateUtc></FrequencyChange></FrequencyChanges></Clock>\n",60.033,1,-1016424431,0,,-999999,14,22180,t,94726,116906,6/2/2014,12:28:13,7:28:13 PM,1,Session1,SessionsList,,,,,,,,,,1,1,1,1,,,,,,,,1,1,1,NonCued3,MiniBlocks2,,,116916,,8,1,r,-999999,16,239921,r,566,240487,Red,Incongruent,r,White,0,,0,2,235907,,0,0,,,,,,,,,,,,,Pictures\white.bmp,3000,2000,Pictures\black.bmp,,,,,,,8,1,8,,,,StimulusPr,Pictures\RedRight.bmp,NonCuedStim3,Right
POP_2,27034,1,"<?xml version=""1.0""?>\n<Clock xmlns:dt=""urn:schemas-microsoft-com:datatypes""><Description dt:dt=""string"">E-Prime Primary Realtime Clock</Description><StartTime><Timestamp dt:dt=""int"">0</Timestamp><DateUtc dt:dt=""string"">2014-06-02T19:28:13Z</DateUtc></StartTime><FrequencyChanges><FrequencyChange><Frequency dt:dt=""r8"">2793040000</Frequency><Timestamp dt:dt=""r8"">1.2173127631308E+15</Timestamp><Current dt:dt=""r8"">0</Current><DateUtc dt:dt=""string"">2014-06-02T19:28:13Z</DateUtc></FrequencyChange></FrequencyChanges></Clock>\n",60.033,1,-1016424431,0,,-999999,14,22180,t,94726,116906,6/2/2014,12:28:13,7:28:13 PM,1,Session1,SessionsList,,,,,,,,,,1,1,1,1,,,,,,,,1,1,1,NonCued3,MiniBlocks2,,,116916,,9,1,r,-999999,9,253914,r,514,254428,Green,Congruent,r,White,0,,0,14,243919,,0,0,,,,,,,,,,,,,Pictures\white.bmp,9000,10000,Pictures\GreenLeft.bmp,,,,,,,9,1,9,,,,StimulusPr,Pictures\black.bmp,NonCuedStim3,Left
POP_2,27034,1,"<?xml version=""1.0""?>\n<Clock xmlns:dt=""urn:schemas-microsoft-com:datatypes""><Description dt:dt=""string"">E-Prime Primary Realtime Clock</Description><StartTime><Timestamp dt:dt=""int"">0</Timestamp><DateUtc dt:dt=""string"">2014-06-02T19:28:13Z</DateUtc></StartTime><FrequencyChanges><FrequencyChange><Frequency dt:dt=""r8"">2793040000</Frequency><Timestamp dt:dt=""r8"">1.2173127631308E+15</Timestamp><Current dt:dt=""r8"">0</Current><DateUtc dt:dt=""string"">2014-06-02T19:28:13Z</DateUtc></FrequencyChange></FrequencyChanges></Clock>\n",60.033,1,-1016424431,0,,-999999,14,22180,t,94726,116906,6/2/2014,12:28:13,7:28:13 PM,1,Session1,SessionsList,,,,,,,,,,1,1,1,1,,,,,,,,1,1,1,NonCued3,MiniBlocks2,,,116916,,10,1,r,-999999,4,272904,r,423,273327,Green,Congruent,r,White,0,,0,3,265908,,0,0,,,,,,,,,,,,,Pictures\white.bmp,6000,4000,Pictures\GreenLeft.bmp,,,,,,,10,1,10,,,,StimulusPr,Pictures\black.bmp,NonCuedStim3,Left
POP_2,27034,1,"<?xml version=""1.0""?>\n<Clock xmlns:dt=""urn:schemas-microsoft-com:datatypes""><Description dt:dt=""string"">E-Prime Primary Realtime Clock</Description><StartTime><Timestamp dt:dt=""int"">0</Timestamp><DateUtc dt:dt=""string"">2014-06-02T19:28:13Z</DateUtc></StartTime><FrequencyChanges><FrequencyChange><Frequency dt:dt=""r8"">2793040000</Frequency><Timestamp dt:dt=""r8"">1.2173127631308E+15</Timestamp><Current dt:dt=""r8"">0</Current><DateUtc dt:dt=""string"">2014-06-02T19:28:13Z</DateUtc></FrequencyChange></FrequencyChanges></Clock>\n",60.033,1,-1016424431,0,,-999999,14,22180,t,94726,116906,6/2/2014,12:28:13,7:28:13 PM,1,Session1,SessionsList,,,,,,,,,,1,1,1,2,,,277352,,,,,2,1,2,Cued3,MiniBlocks2,,,,,1,1,b,-999999,8,290912,b,378,291290,White,Congruent,b,Green,0,,0,10,286914,,0,0,,,,,,,1,1,1,,,,Pictures\green.bmp,3000,2000,Pictures\black.bmp,,,,,,,,,,,,,StimulusPr,Pictures\right.bmp,CuedStim3,Right
POP_2,27034,1,"<?xml version=""1.0""?>\n<Clock xmlns:dt=""urn:schemas-microsoft-com:datatypes""><Description dt:dt=""string"">E-Prime Primary Realtime Clock</Description><StartTime><Timestamp dt:dt=""int"">0</Timestamp><DateUtc dt:dt=""string"">2014-06-02T19:28:13Z</DateUtc></StartTime><FrequencyChanges><FrequencyChange><Frequency dt:dt=""r8"">2793040000</Frequency><Timestamp dt:dt=""r8"">1.2173127631308E+15</Timestamp><Current dt:dt=""r8"">0</Current><DateUtc dt:dt=""string"">2014-06-02T19:28:13Z</DateUtc></FrequencyChange></FrequencyChanges></Clock>\n",60.033,1,-1016424431,0,,-999999,14,22180,t,94726,116906,6/2/2014,12:28:13,7:28:13 PM,1,Session1,SessionsList,,,,,,,,,,1,1,1,2,,,277352,,,,,2,1,2,Cued3,MiniBlocks2,,,,,2,1,b,-999999,4,298908,b,369,299277,White,Congruent,b,Green,0,,0,6,294910,,0,0,,,,,,,2,1,2,,,,Pictures\green.bmp,3000,10000,Pictures\black.bmp,,,,,,,,,,,,,StimulusPr,Pictures\right.bmp,CuedStim3,Right
POP_2,27034,1,"<?xml version=""1.0""?>\n<Clock xmlns:dt=""urn:schemas-microsoft-com:datatypes""><Description dt:dt=""string"">E-Prime Primary Realtime Clock</Description><StartTime><Timestamp dt:dt=""int"">0</Timestamp><DateUtc dt:dt=""string"">2014-06-02T19:28:13Z</DateUtc></StartTime><FrequencyChanges><FrequencyChange><Frequency dt:dt=""r8"">2793040000</Frequency><Timestamp dt:dt=""r8"">1.2173127631308E+15</Timestamp><Current dt:dt=""r8"">0</Current><DateUtc dt:dt=""string"">2014-06-02T19:28:13Z</DateUtc></FrequencyChange></FrequencyChanges></Clock>\n",60.033,1,-1016424431,0,,-999999,14,22180,t,94726,116906,6/2/2014,12:28:13,7:28:13 PM,1,Session1,SessionsList,,,,,,,,,,1,1,1,2,,,277352,,,,,2,1,2,Cued3,MiniBlocks2,,,,,3,1,r,-999999,10,320914,r,389,321303,White,Congruent,r,Green,0,,0,15,310919,,0,0,,,,,,,3,1,3,,,,Pictures\green.bmp,9000,2000,Pictures\left.bmp,,,,,,,,,,,,,StimulusPr,Pictures\black.bmp,CuedStim3,Left
POP_2,27034,1,"<?xml version=""1.0""?>\n<Clock xmlns:dt=""urn:schemas-microsoft-com:datatypes""><Description dt:dt=""string"">E-Prime Primary Realtime Clock</Description><StartTime><Timestamp dt:dt=""int"">0</Timestamp><DateUtc dt:dt=""string"">2014-06-02T19:28:13Z</DateUtc></StartTime><FrequencyChanges><FrequencyChange><Frequency dt:dt=""r8"">2793040000</Frequency><Timestamp dt:dt=""r8"">1.2173127631308E+15</Timestamp><Current dt:dt=""r8"">0</Current><DateUtc dt:dt=""string"">2014-06-02T19:28:13Z</DateUtc></FrequencyChange></FrequencyChanges></Clock>\n",60.033,1,-1016424431,0,,-999999,14,22180,t,94726,116906,6/2/2014,12:28:13,7:28:13 PM,1,Session1,SessionsList,,,,,,,,,,1,1,1,2,,,277352,,,,,2,1,2,Cued3,MiniBlocks2,,,,,4,1,r,-999999,5,329909,r,860,330769,White,Congruent,r,Green,0,,0,8,324912,,0,0,,,,,,,4,1,4,,,,Pictures\green.bmp,4000,16000,Pictures\left.bmp,,,,,,,,,,,,,StimulusPr,Pictures\black.bmp,CuedStim3,Left
POP_2,27034,1,"<?xml version=""1.0""?>\n<Clock xmlns:dt=""urn:schemas-microsoft-com:datatypes""><Description dt:dt=""string"">E-Prime Primary Realtime Clock</Description><StartTime><Timestamp dt:dt=""int"">0</Timestamp><DateUtc dt:dt=""string"">2014-06-02T19:28:13Z</DateUtc></StartTime><FrequencyChanges><FrequencyChange><Frequency dt:dt=""r8"">2793040000</Frequency><Timestamp dt:dt=""r8"">1.2173127631308E+15</Timestamp><Current dt:dt=""r8"">0</Current><DateUtc dt:dt=""string"">2014-06-02T19:28:13Z</DateUtc></FrequencyChange></FrequencyChanges></Clock>\n",60.033,1,-1016424431,0,,-999999,14,22180,t,94726,116906,6/2/2014,12:28:13,7:28:13 PM,1,Session1,SessionsList,,,,,,,,,,1,1,1,2,,,277352,,,,,2,1,2,Cued3,MiniBlocks2,,,,,5,1,r,-999999,11,351915,r,422,352337,White,Incongruent,r,Red,0,,0,13,347917,,0,0,,,,,,,5,1,5,,,,Pictures\red.bmp,3000,4000,Pictures\black.bmp,,,,,,,,,,,,,StimulusPr,Pictures\right.bmp,CuedStim3,Right
POP_2,27034,1,"<?xml version=""1.0""?>\n<Clock xmlns:dt=""urn:schemas-microsoft-com:datatypes""><Description dt:dt=""string"">E-Prime Primary Realtime Clock</Description><StartTime><Timestamp dt:dt=""int"">0</Timestamp><DateUtc dt:dt=""string"">2014-06-02T19:28:13Z</DateUtc></StartTime><FrequencyChanges><FrequencyChange><Frequency dt:dt=""r8"">2793040000</Frequency><Timestamp dt:dt=""r8"">1.2173127631308E+15</Timestamp><Current dt:dt=""r8"">0</Current><DateUtc dt:dt=""string"">2014-06-02T19:28:13Z</DateUtc></FrequencyChange></FrequencyChanges></Clock>\n",60.033,1,-1016424431,0,,-999999,14,22180,t,94726,116906,6/2/2014,12:28:13,7:28:13 PM,1,Session1,SessionsList,,,,,,,,,,1,1,1,2,,,277352,,,,,2,1,2,Cued3,MiniBlocks2,,,,,6,1,b,-999999,4,364908,b,466,365374,White,Congruent,b,Green,0,,0,8,357912,,0,0,,,,,,,6,1,6,,,,Pictures\green.bmp,6000,4000,Pictures\black.bmp,,,,,,,,,,,,,StimulusPr,Pictures\right.bmp,CuedStim3,Right
POP_2,27034,1,"<?xml version=""1.0""?>\n<Clock xmlns:dt=""urn:schemas-microsoft-com:datatypes""><Description dt:dt=""string"">E-Prime Primary Realtime Clock</Description><StartTime><Timestamp dt:dt=""int"">0</Timestamp><DateUtc dt:dt=""string"">2014-06-02T19:28:13Z</DateUtc></StartTime><FrequencyChanges><FrequencyChange><Frequency dt:dt=""r8"">2793040000</Frequency><Timestamp dt:dt=""r8"">1.2173127631308E+15</Timestamp><Current dt:dt=""r8"">0</Current><DateUtc dt:dt=""string"">2014-06-02T19:28:13Z</DateUtc></FrequencyChange></FrequencyChanges></Clock>\n",60.033,1,-1016424431,0,,-999999,14,22180,t,94726,116906,6/2/2014,12:28:13,7:28:13 PM,1,Session1,SessionsList,,,,,,,,,,1,1,1,2,,,277352,,,,,2,1,2,Cued3,MiniBlocks2,,,,,7,1,r,-999999,15,375919,r,369,376288,White,Congruent,r,Green,0,,0,18,370922,,0,0,,,,,,,7,1,7,,,,Pictures\green.bmp,4000,16000,Pictures\left.bmp,,,,,,,,,,,,,StimulusPr,Pictures\black.bmp,CuedStim3,Left
POP_2,27034,1,"<?xml version=""1.0""?>\n<Clock xmlns:dt=""urn:schemas-microsoft-com:datatypes""><Description dt:dt=""string"">E-Prime Primary Realtime Clock</Description><StartTime><Timestamp dt:dt=""int"">0</Timestamp><DateUtc dt:dt=""string"">2014-06-02T19:28:13Z</DateUtc></StartTime><FrequencyChanges><FrequencyChange><Frequency dt:dt=""r8"">2793040000</Frequency><Timestamp dt:dt=""r8"">1.2173127631308E+15</Timestamp><Current dt:dt=""r8"">0</Current><DateUtc dt:dt=""string"">2014-06-02T19:28:13Z</DateUtc></FrequencyChange></FrequencyChanges></Clock>\n",60.033,1,-1016424431,0,,-999999,14,22180,t,94726,116906,6/2/2014,12:28:13,7:28:13 PM,1,Session1,SessionsList,,,,,,,,,,1,1,1,2,,,277352,,,,,2,1,2,Cued3,MiniBlocks2,,,,,8,1,b,-999999,4,397908,b,520,398428,White,Incongruent,b,Red,0,,0,6,393910,,0,0,,,,,,,8,1,8,,,,Pictures\red.bmp,3000,2000,Pictures\left.bmp,,,,,,,,,,,,,StimulusPr,Pictures\black.bmp,CuedStim3,Left
POP_2,27034,1,"<?xml version=""1.0""?>\n<Clock xmlns:dt=""urn:schemas-microsoft-com:datatypes""><Description dt:dt=""string"">E-Prime Primary Realtime Clock</Description><StartTime><Timestamp dt:dt=""int"">0</Timestamp><DateUtc dt:dt=""string"">2014-06-02T19:28:13Z</DateUtc></StartTime><FrequencyChanges><FrequencyChange><Frequency dt:dt=""r8"">2793040000</Frequency><Timestamp dt:dt=""r8"">1.2173127631308E+15</Timestamp><Current dt:dt=""r8"">0</Current><DateUtc dt:dt=""string"">2014-06-02T19:28:13Z</DateUtc></FrequencyChange></FrequencyChanges></Clock>\n",60.033,1,-1016424431,0,,-999999,14,22180,t,94726,116906,6/2/2014,12:28:13,7:28:13 PM,1,Session1,SessionsList,,,,,,,,,,1,1,1,2,,,277352,,,,,2,1,2,Cued3,MiniBlocks2,,,,,9,1,r,-999999,17,405921,r,432,406353,White,Congruent,r,Green,0,,0,2,401906,,0,0,,,,,,,9,1,9,,,,Pictures\green.bmp,3000,2000,Pictures\left.bmp,,,,,,,,,,,,,StimulusPr,Pictures\black.bmp,CuedStim3,Left
POP_2,27034,1,"<?xml version=""1.0""?>\n<Clock xmlns:dt=""urn:schemas-microsoft-com:datatypes""><Description dt:dt=""string"">E-Prime Primary Realtime Clock</Description><StartTime><Timestamp dt:dt=""int"">0</Timestamp><DateUtc dt:dt=""string"">2014-06-02T19:28:13Z</DateUtc></StartTime><FrequencyChanges><FrequencyChange><Frequency dt:dt=""r8"">2793040000</Frequency><Timestamp dt:dt=""r8"">1.2173127631308E+15</Timestamp><Current dt:dt=""r8"">0</Current><DateUtc dt:dt=""string"">2014-06-02T19:28:13Z</DateUtc></FrequencyChange></FrequencyChanges></Clock>\n",60.033,1,-1016424431,0,,-999999,14,22180,t,94726,116906,6/2/2014,12:28:13,7:28:13 PM,1,Session1,SessionsList,,,,,,,,,,1,1,1,2,,,277352,,,,,2,1,2,Cued3,MiniBlocks2,,,,,10,1,b,-999999,10,419914,b,410,420324,White,Congruent,b,Green,0,,0,15,409919,,0,0,,,,,,,10,1,10,,,,Pictures\green.bmp,9000,10000,Pictures\black.bmp,,,,,,,,,,,,,StimulusPr,Pictures\right.bmp,CuedStim3,Right
POP_2,27034,1,"<?xml version=""1.0""?>\n<Clock xmlns:dt=""urn:schemas-microsoft-com:datatypes""><Description dt:dt=""string"">E-Prime Primary Realtime Clock</Description><StartTime><Timestamp dt:dt=""int"">0</Timestamp><DateUtc dt:dt=""string"">2014-06-02T19:28:13Z</DateUtc></StartTime><FrequencyChanges><FrequencyChange><Frequency dt:dt=""r8"">2793040000</Frequency><Timestamp dt:dt=""r8"">1.2173127631308E+15</Timestamp><Current dt:dt=""r8"">0</Current><DateUtc dt:dt=""string"">2014-06-02T19:28:13Z</DateUtc></FrequencyChange></FrequencyChanges></Clock>\n",60.033,1,-1016424431,0,,-999999,14,22180,t,94726,116906,6/2/2014,12:28:13,7:28:13 PM,1,Session1,SessionsList,,,,,,,,,,1,1,1,3,,,,430342,,,,3,1,3,Cued4,MiniBlocks2,,,,,1,1,b,-999999,13,446917,b,374,447291,White,Congruent,b,Green,0,,0,16,439920,,0,0,,,,,,,,,,1,1,1,Pictures\green.bmp,6000,2000,Pictures\black.bmp,,,,,,,,,,,,,StimulusPr,Pictures\right.bmp,CuedStim4,Right
POP_2,27034,1,"<?xml version=""1.0""?>\n<Clock xmlns:dt=""urn:schemas-microsoft-com:datatypes""><Description dt:dt=""string"">E-Prime Primary Realtime Clock</Description><StartTime><Timestamp dt:dt=""int"">0</Timestamp><DateUtc dt:dt=""string"">2014-06-02T19:28:13Z</DateUtc></StartTime><FrequencyChanges><FrequencyChange><Frequency dt:dt=""r8"">2793040000</Frequency><Timestamp dt:dt=""r8"">1.2173127631308E+15</Timestamp><Current dt:dt=""r8"">0</Current><DateUtc dt:dt=""string"">2014-06-02T19:28:13Z</DateUtc></FrequencyChange></FrequencyChanges></Clock>\n",60.033,1,-1016424431,0,,-999999,14,22180,t,94726,116906,6/2/2014,12:28:13,7:28:13 PM,1,Session1,SessionsList,,,,,,,,,,1,1,1,3,,,,430342,,,,3,1,3,Cued4,MiniBlocks2,,,,,2,1,r,-999999,6,460910,r,542,461452,White,Incongruent,r,Red,0,,0,11,450915,,0,0,,,,,,,,,,2,1,2,Pictures\red.bmp,9000,2000,Pictures\black.bmp,,,,,,,,,,,,,StimulusPr,Pictures\right.bmp,CuedStim4,Right
POP_2,27034,1,"<?xml version=""1.0""?>\n<Clock xmlns:dt=""urn:schemas-microsoft-com:datatypes""><Description dt:dt=""string"">E-Prime Primary Realtime Clock</Description><StartTime><Timestamp dt:dt=""int"">0</Timestamp><DateUtc dt:dt=""string"">2014-06-02T19:28:13Z</DateUtc></StartTime><FrequencyChanges><FrequencyChange><Frequency dt:dt=""r8"">2793040000</Frequency><Timestamp dt:dt=""r8"">1.2173127631308E+15</Timestamp><Current dt:dt=""r8"">0</Current><DateUtc dt:dt=""string"">2014-06-02T19:28:13Z</DateUtc></FrequencyChange></FrequencyChanges></Clock>\n",60.033,1,-1016424431,0,,-999999,14,22180,t,94726,116906,6/2/2014,12:28:13,7:28:13 PM,1,Session1,SessionsList,,,,,,,,,,1,1,1,3,,,,430342,,,,3,1,3,Cued4,MiniBlocks2,,,,,3,1,b,-999999,19,468923,b,324,469247,White,Congruent,b,Green,0,,0,4,464908,,0,0,,,,,,,,,,3,1,3,Pictures\green.bmp,3000,4000,Pictures\black.bmp,,,,,,,,,,,,,StimulusPr,Pictures\right.bmp,CuedStim4,Right
POP_2,27034,1,"<?xml version=""1.0""?>\n<Clock xmlns:dt=""urn:schemas-microsoft-com:datatypes""><Description dt:dt=""string"">E-Prime Primary Realtime Clock</Description><StartTime><Timestamp dt:dt=""int"">0</Timestamp><DateUtc dt:dt=""string"">2014-06-02T19:28:13Z</DateUtc></StartTime><FrequencyChanges><FrequencyChange><Frequency dt:dt=""r8"">2793040000</Frequency><Timestamp dt:dt=""r8"">1.2173127631308E+15</Timestamp><Current dt:dt=""r8"">0</Current><DateUtc dt:dt=""string"">2014-06-02T19:28:13Z</DateUtc></FrequencyChange></FrequencyChanges></Clock>\n",60.033,1,-1016424431,0,,-999999,14,22180,t,94726,116906,6/2/2014,12:28:13,7:28:13 PM,1,Session1,SessionsList,,,,,,,,,,1,1,1,3,,,,430342,,,,3,1,3,Cued4,MiniBlocks2,,,,,4,1,r,-999999,13,478917,r,421,479338,White,Congruent,r,Green,0,,0,15,474919,,0,0,,,,,,,,,,4,1,4,Pictures\green.bmp,3000,4000,Pictures\left.bmp,,,,,,,,,,,,,StimulusPr,Pictures\black.bmp,CuedStim4,Left
POP_2,27034,1,"<?xml version=""1.0""?>\n<Clock xmlns:dt=""urn:schemas-microsoft-com:datatypes""><Description dt:dt=""string"">E-Prime Primary Realtime Clock</Description><StartTime><Timestamp dt:dt=""int"">0</Timestamp><DateUtc dt:dt=""string"">2014-06-02T19:28:13Z</DateUtc></StartTime><FrequencyChanges><FrequencyChange><Frequency dt:dt=""r8"">2793040000</Frequency><Timestamp dt:dt=""r8"">1.2173127631308E+15</Timestamp><Current dt:dt=""r8"">0</Current><DateUtc dt:dt=""string"">2014-06-02T19:28:13Z</DateUtc></FrequencyChange></FrequencyChanges></Clock>\n",60.033,1,-1016424431,0,,-999999,14,22180,t,94726,116906,6/2/2014,12:28:13,7:28:13 PM,1,Session1,SessionsList,,,,,,,,,,1,1,1,3,,,,430342,,,,3,1,3,Cued4,MiniBlocks2,,,,,5,1,b,-999999,8,489912,b,536,490448,White,Incongruent,b,Red,0,,0,10,484914,,0,0,,,,,,,,,,5,1,5,Pictures\red.bmp,4000,16000,Pictures\left.bmp,,,,,,,,,,,,,StimulusPr,Pictures\black.bmp,CuedStim4,Left
POP_2,27034,1,"<?xml version=""1.0""?>\n<Clock xmlns:dt=""urn:schemas-microsoft-com:datatypes""><Description dt:dt=""string"">E-Prime Primary Realtime Clock</Description><StartTime><Timestamp dt:dt=""int"">0</Timestamp><DateUtc dt:dt=""string"">2014-06-02T19:28:13Z</DateUtc></StartTime><FrequencyChanges><FrequencyChange><Frequency dt:dt=""r8"">2793040000</Frequency><Timestamp dt:dt=""r8"">1.2173127631308E+15</Timestamp><Current dt:dt=""r8"">0</Current><DateUtc dt:dt=""string"">2014-06-02T19:28:13Z</DateUtc></FrequencyChange></FrequencyChanges></Clock>\n",60.033,1,-1016424431,0,,-999999,14,22180,t,94726,116906,6/2/2014,12:28:13,7:28:13 PM,1,Session1,SessionsList,,,,,,,,,,1,1,1,3,,,,430342,,,,3,1,3,Cued4,MiniBlocks2,,,,,6,1,b,-999999,14,511918,b,462,512380,White,Congruent,b,Green,0,,0,16,507920,,0,0,,,,,,,,,,6,1,6,Pictures\green.bmp,3000,2000,Pictures\black.bmp,,,,,,,,,,,,,StimulusPr,Pictures\right.bmp,CuedStim4,Right
POP_2,27034,1,"<?xml version=""1.0""?>\n<Clock xmlns:dt=""urn:schemas-microsoft-com:datatypes""><Description dt:dt=""string"">E-Prime Primary Realtime Clock</Description><StartTime><Timestamp dt:dt=""int"">0</Timestamp><DateUtc dt:dt=""string"">2014-06-02T19:28:13Z</DateUtc></StartTime><FrequencyChanges><FrequencyChange><Frequency dt:dt=""r8"">2793040000</Frequency><Timestamp dt:dt=""r8"">1.2173127631308E+15</Timestamp><Current dt:dt=""r8"">0</Current><DateUtc dt:dt=""string"">2014-06-02T19:28:13Z</DateUtc></FrequencyChange></FrequencyChanges></Clock>\n",60.033,1,-1016424431,0,,-999999,14,22180,t,94726,116906,6/2/2014,12:28:13,7:28:13 PM,1,Session1,SessionsList,,,,,,,,,,1,1,1,3,,,,430342,,,,3,1,3,Cued4,MiniBlocks2,,,,,7,1,b,-999999,8,525911,b,388,526299,White,Congruent,b,Green,0,,0,12,515916,,0,0,,,,,,,,,,7,1,7,Pictures\green.bmp,9000,10000,Pictures\black.bmp,,,,,,,,,,,,,StimulusPr,Pictures\right.bmp,CuedStim4,Right
POP_2,27034,1,"<?xml version=""1.0""?>\n<Clock xmlns:dt=""urn:schemas-microsoft-com:datatypes""><Description dt:dt=""string"">E-Prime Primary Realtime Clock</Description><StartTime><Timestamp dt:dt=""int"">0</Timestamp><DateUtc dt:dt=""string"">2014-06-02T19:28:13Z</DateUtc></StartTime><FrequencyChanges><FrequencyChange><Frequency dt:dt=""r8"">2793040000</Frequency><Timestamp dt:dt=""r8"">1.2173127631308E+15</Timestamp><Current dt:dt=""r8"">0</Current><DateUtc dt:dt=""string"">2014-06-02T19:28:13Z</DateUtc></FrequencyChange></FrequencyChanges></Clock>\n",60.033,1,-1016424431,0,,-999999,14,22180,t,94726,116906,6/2/2014,12:28:13,7:28:13 PM,1,Session1,SessionsList,,,,,,,,,,1,1,1,3,,,,430342,,,,3,1,3,Cued4,MiniBlocks2,,,,,8,1,b,-999999,15,544918,b,407,545325,White,Incongruent,b,Red,0,,0,18,537921,,0,0,,,,,,,,,,8,1,8,Pictures\red.bmp,6000,10000,Pictures\left.bmp,,,,,,,,,,,,,StimulusPr,Pictures\black.bmp,CuedStim4,Left
POP_2,27034,1,"<?xml version=""1.0""?>\n<Clock xmlns:dt=""urn:schemas-microsoft-com:datatypes""><Description dt:dt=""string"">E-Prime Primary Realtime Clock</Description><StartTime><Timestamp dt:dt=""int"">0</Timestamp><DateUtc dt:dt=""string"">2014-06-02T19:28:13Z</DateUtc></StartTime><FrequencyChanges><FrequencyChange><Frequency dt:dt=""r8"">2793040000</Frequency><Timestamp dt:dt=""r8"">1.2173127631308E+15</Timestamp><Current dt:dt=""r8"">0</Current><DateUtc dt:dt=""string"">2014-06-02T19:28:13Z</DateUtc></FrequencyChange></FrequencyChanges></Clock>\n",60.033,1,-1016424431,0,,-999999,14,22180,t,94726,116906,6/2/2014,12:28:13,7:28:13 PM,1,Session1,SessionsList,,,,,,,,,,1,1,1,3,,,,430342,,,,3,1,3,Cued4,MiniBlocks2,,,,,9,1,r,-999999,5,563908,r,415,564323,White,Congruent,r,Green,0,,0,9,556912,,0,0,,,,,,,,,,9,1,9,Pictures\green.bmp,6000,16000,Pictures\left.bmp,,,,,,,,,,,,,StimulusPr,Pictures\black.bmp,CuedStim4,Left
POP_2,27034,1,"<?xml version=""1.0""?>\n<Clock xmlns:dt=""urn:schemas-microsoft-com:datatypes""><Description dt:dt=""string"">E-Prime Primary Realtime Clock</Description><StartTime><Timestamp dt:dt=""int"">0</Timestamp><DateUtc dt:dt=""string"">2014-06-02T19:28:13Z</DateUtc></StartTime><FrequencyChanges><FrequencyChange><Frequency dt:dt=""r8"">2793040000</Frequency><Timestamp dt:dt=""r8"">1.2173127631308E+15</Timestamp><Current dt:dt=""r8"">0</Current><DateUtc dt:dt=""string"">2014-06-02T19:28:13Z</DateUtc></FrequencyChange></FrequencyChanges></Clock>\n",60.033,1,-1016424431,0,,-999999,14,22180,t,94726,116906,6/2/2014,12:28:13,7:28:13 PM,1,Session1,SessionsList,,,,,,,,,,1,1,1,3,,,,430342,,,,3,1,3,Cued4,MiniBlocks2,,,,,10,1,r,-999999,10,586913,r,502,587415,White,Congruent,r,Green,0,,0,13,581916,,0,0,,,,,,,,,,10,1,10,Pictures\green.bmp,4000,2000,Pictures\left.bmp,,,,,,,,,,,,,StimulusPr,Pictures\black.bmp,CuedStim4,Left
POP_2,27034,1,"<?xml version=""1.0""?>\n<Clock xmlns:dt=""urn:schemas-microsoft-com:datatypes""><Description dt:dt=""string"">E-Prime Primary Realtime Clock</Description><StartTime><Timestamp dt:dt=""int"">0</Timestamp><DateUtc dt:dt=""string"">2014-06-02T19:28:13Z</DateUtc></StartTime><FrequencyChanges><FrequencyChange><Frequency dt:dt=""r8"">2793040000</Frequency><Timestamp dt:dt=""r8"">1.2173127631308E+15</Timestamp><Current dt:dt=""r8"">0</Current><DateUtc dt:dt=""string"">2014-06-02T19:28:13Z</DateUtc></FrequencyChange></FrequencyChanges></Clock>\n",60.033,1,-1016424431,0,,-999999,14,22180,t,94726,116906,6/2/2014,12:28:13,7:28:13 PM,1,Session1,SessionsList,,,,,,,,,,1,1,1,4,,,,,,,,4,1,4,NonCued4,MiniBlocks2,,,,589445,1,1,r,-999999,18,603921,r,475,604396,Green,Congruent,r,White,0,,0,4,599907,,0,0,,,,,,,,,,,,,Pictures\white.bmp,3000,2000,Pictures\GreenLeft.bmp,,,,,,,,,,1,1,1,StimulusPr,Pictures\black.bmp,NonCuedStim4,Left
POP_2,27034,1,"<?xml version=""1.0""?>\n<Clock xmlns:dt=""urn:schemas-microsoft-com:datatypes""><Description dt:dt=""string"">E-Prime Primary Realtime Clock</Description><StartTime><Timestamp dt:dt=""int"">0</Timestamp><DateUtc dt:dt=""string"">2014-06-02T19:28:13Z</DateUtc></StartTime><FrequencyChanges><FrequencyChange><Frequency dt:dt=""r8"">2793040000</Frequency><Timestamp dt:dt=""r8"">1.2173127631308E+15</Timestamp><Current dt:dt=""r8"">0</Current><DateUtc dt:dt=""string"">2014-06-02T19:28:13Z</DateUtc></FrequencyChange></FrequencyChanges></Clock>\n",60.033,1,-1016424431,0,,-999999,14,22180,t,94726,116906,6/2/2014,12:28:13,7:28:13 PM,1,Session1,SessionsList,,,,,,,,,,1,1,1,4,,,,,,,,4,1,4,NonCued4,MiniBlocks2,,,,589445,2,1,r,-999999,14,612917,r,414,613331,Green,Congruent,r,White,0,,0,16,607919,,0,0,,,,,,,,,,,,,Pictures\white.bmp,4000,2000,Pictures\GreenLeft.bmp,,,,,,,,,,2,1,2,StimulusPr,Pictures\black.bmp,NonCuedStim4,Left
POP_2,27034,1,"<?xml version=""1.0""?>\n<Clock xmlns:dt=""urn:schemas-microsoft-com:datatypes""><Description dt:dt=""string"">E-Prime Primary Realtime Clock</Description><StartTime><Timestamp dt:dt=""int"">0</Timestamp><DateUtc dt:dt=""string"">2014-06-02T19:28:13Z</DateUtc></StartTime><FrequencyChanges><FrequencyChange><Frequency dt:dt=""r8"">2793040000</Frequency><Timestamp dt:dt=""r8"">1.2173127631308E+15</Timestamp><Current dt:dt=""r8"">0</Current><DateUtc dt:dt=""string"">2014-06-02T19:28:13Z</DateUtc></FrequencyChange></FrequencyChanges></Clock>\n",60.033,1,-1016424431,0,,-999999,14,22180,t,94726,116906,6/2/2014,12:28:13,7:28:13 PM,1,Session1,SessionsList,,,,,,,,,,1,1,1,4,,,,,,,,4,1,4,NonCued4,MiniBlocks2,,,,589445,3,1,r,-999999,10,621912,r,447,622359,Red,Incongruent,r,White,0,,0,12,616915,,0,0,,,,,,,,,,,,,Pictures\white.bmp,4000,2000,Pictures\black.bmp,,,,,,,,,,3,1,3,StimulusPr,Pictures\RedRight.bmp,NonCuedStim4,Right
POP_2,27034,1,"<?xml version=""1.0""?>\n<Clock xmlns:dt=""urn:schemas-microsoft-com:datatypes""><Description dt:dt=""string"">E-Prime Primary Realtime Clock</Description><StartTime><Timestamp dt:dt=""int"">0</Timestamp><DateUtc dt:dt=""string"">2014-06-02T19:28:13Z</DateUtc></StartTime><FrequencyChanges><FrequencyChange><Frequency dt:dt=""r8"">2793040000</Frequency><Timestamp dt:dt=""r8"">1.2173127631308E+15</Timestamp><Current dt:dt=""r8"">0</Current><DateUtc dt:dt=""string"">2014-06-02T19:28:13Z</DateUtc></FrequencyChange></FrequencyChanges></Clock>\n",60.033,1,-1016424431,0,,-999999,14,22180,t,94726,116906,6/2/2014,12:28:13,7:28:13 PM,1,Session1,SessionsList,,,,,,,,,,1,1,1,4,,,,,,,,4,1,4,NonCued4,MiniBlocks2,,,,589445,4,1,b,-999999,8,629908,b,499,630407,Green,Congruent,b,White,0,,0,10,625910,,0,0,,,,,,,,,,,,,Pictures\white.bmp,3000,16000,Pictures\black.bmp,,,,,,,,,,4,1,4,StimulusPr,Pictures\GreenRight.bmp,NonCuedStim4,Right
POP_2,27034,1,"<?xml version=""1.0""?>\n<Clock xmlns:dt=""urn:schemas-microsoft-com:datatypes""><Description dt:dt=""string"">E-Prime Primary Realtime Clock</Description><StartTime><Timestamp dt:dt=""int"">0</Timestamp><DateUtc dt:dt=""string"">2014-06-02T19:28:13Z</DateUtc></StartTime><FrequencyChanges><FrequencyChange><Frequency dt:dt=""r8"">2793040000</Frequency><Timestamp dt:dt=""r8"">1.2173127631308E+15</Timestamp><Current dt:dt=""r8"">0</Current><DateUtc dt:dt=""string"">2014-06-02T19:28:13Z</DateUtc></FrequencyChange></FrequencyChanges></Clock>\n",60.033,1,-1016424431,0,,-999999,14,22180,t,94726,116906,6/2/2014,12:28:13,7:28:13 PM,1,Session1,SessionsList,,,,,,,,,,1,1,1,4,,,,,,,,4,1,4,NonCued4,MiniBlocks2,,,,589445,5,1,r,-999999,8,657911,r,444,658355,Green,Congruent,r,White,0,,0,13,647916,,0,0,,,,,,,,,,,,,Pictures\white.bmp,9000,10000,Pictures\GreenLeft.bmp,,,,,,,,,,5,1,5,StimulusPr,Pictures\black.bmp,NonCuedStim4,Left
POP_2,27034,1,"<?xml version=""1.0""?>\n<Clock xmlns:dt=""urn:schemas-microsoft-com:datatypes""><Description dt:dt=""string"">E-Prime Primary Realtime Clock</Description><StartTime><Timestamp dt:dt=""int"">0</Timestamp><DateUtc dt:dt=""string"">2014-06-02T19:28:13Z</DateUtc></StartTime><FrequencyChanges><FrequencyChange><Frequency dt:dt=""r8"">2793040000</Frequency><Timestamp dt:dt=""r8"">1.2173127631308E+15</Timestamp><Current dt:dt=""r8"">0</Current><DateUtc dt:dt=""string"">2014-06-02T19:28:13Z</DateUtc></FrequencyChange></FrequencyChanges></Clock>\n",60.033,1,-1016424431,0,,-999999,14,22180,t,94726,116906,6/2/2014,12:28:13,7:28:13 PM,1,Session1,SessionsList,,,,,,,,,,1,1,1,4,,,,,,,,4,1,4,NonCued4,MiniBlocks2,,,,589445,6,1,b,-999999,16,673919,b,469,674388,Green,Congruent,b,White,0,,0,2,669905,,0,0,,,,,,,,,,,,,Pictures\white.bmp,3000,16000,Pictures\black.bmp,,,,,,,,,,6,1,6,StimulusPr,Pictures\GreenRight.bmp,NonCuedStim4,Right
POP_2,27034,1,"<?xml version=""1.0""?>\n<Clock xmlns:dt=""urn:schemas-microsoft-com:datatypes""><Description dt:dt=""string"">E-Prime Primary Realtime Clock</Description><StartTime><Timestamp dt:dt=""int"">0</Timestamp><DateUtc dt:dt=""string"">2014-06-02T19:28:13Z</DateUtc></StartTime><FrequencyChanges><FrequencyChange><Frequency dt:dt=""r8"">2793040000</Frequency><Timestamp dt:dt=""r8"">1.2173127631308E+15</Timestamp><Current dt:dt=""r8"">0</Current><DateUtc dt:dt=""string"">2014-06-02T19:28:13Z</DateUtc></FrequencyChange></FrequencyChanges></Clock>\n",60.033,1,-1016424431,0,,-999999,14,22180,t,94726,116906,6/2/2014,12:28:13,7:28:13 PM,1,Session1,SessionsList,,,,,,,,,,1,1,1,4,,,,,,,,4,1,4,NonCued4,MiniBlocks2,,,,589445,7,1,b,-999999,6,695908,b,570,696478,Red,Incongruent,b,White,0,,0,7,691910,,0,0,,,,,,,,,,,,,Pictures\white.bmp,3000,16000,Pictures\RedLeft.bmp,,,,,,,,,,7,1,7,StimulusPr,Pictures\black.bmp,NonCuedStim4,Left
POP_2,27034,1,"<?xml version=""1.0""?>\n<Clock xmlns:dt=""urn:schemas-microsoft-com:datatypes""><Description dt:dt=""string"">E-Prime Primary Realtime Clock</Description><StartTime><Timestamp dt:dt=""int"">0</Timestamp><DateUtc dt:dt=""string"">2014-06-02T19:28:13Z</DateUtc></StartTime><FrequencyChanges><FrequencyChange><Frequency dt:dt=""r8"">2793040000</Frequency><Timestamp dt:dt=""r8"">1.2173127631308E+15</Timestamp><Current dt:dt=""r8"">0</Current><DateUtc dt:dt=""string"">2014-06-02T19:28:13Z</DateUtc></FrequencyChange></FrequencyChanges></Clock>\n",60.033,1,-1016424431,0,,-999999,14,22180,t,94726,116906,6/2/2014,12:28:13,7:28:13 PM,1,Session1,SessionsList,,,,,,,,,,1,1,1,4,,,,,,,,4,1,4,NonCued4,MiniBlocks2,,,,589445,8,1,r,-999999,11,717914,r,542,718456,Green,Congruent,r,White,0,,0,14,713916,,0,0,,,,,,,,,,,,,Pictures\white.bmp,3000,2000,Pictures\GreenLeft.bmp,,,,,,,,,,8,1,8,StimulusPr,Pictures\black.bmp,NonCuedStim4,Left
POP_2,27034,1,"<?xml version=""1.0""?>\n<Clock xmlns:dt=""urn:schemas-microsoft-com:datatypes""><Description dt:dt=""string"">E-Prime Primary Realtime Clock</Description><StartTime><Timestamp dt:dt=""int"">0</Timestamp><DateUtc dt:dt=""string"">2014-06-02T19:28:13Z</DateUtc></StartTime><FrequencyChanges><FrequencyChange><Frequency dt:dt=""r8"">2793040000</Frequency><Timestamp dt:dt=""r8"">1.2173127631308E+15</Timestamp><Current dt:dt=""r8"">0</Current><DateUtc dt:dt=""string"">2014-06-02T19:28:13Z</DateUtc></FrequencyChange></FrequencyChanges></Clock>\n",60.033,1,-1016424431,0,,-999999,14,22180,t,94726,116906,6/2/2014,12:28:13,7:28:13 PM,1,Session1,SessionsList,,,,,,,,,,1,1,1,4,,,,,,,,4,1,4,NonCued4,MiniBlocks2,,,,589445,9,1,b,-999999,7,728909,b,332,729241,Green,Congruent,b,White,0,,0,11,721912,,0,0,,,,,,,,,,,,,Pictures\white.bmp,6000,2000,Pictures\black.bmp,,,,,,,,,,9,1,9,StimulusPr,Pictures\GreenRight.bmp,NonCuedStim4,Right
POP_2,27034,1,"<?xml version=""1.0""?>\n<Clock xmlns:dt=""urn:schemas-microsoft-com:datatypes""><Description dt:dt=""string"">E-Prime Primary Realtime Clock</Description><StartTime><Timestamp dt:dt=""int"">0</Timestamp><DateUtc dt:dt=""string"">2014-06-02T19:28:13Z</DateUtc></StartTime><FrequencyChanges><FrequencyChange><Frequency dt:dt=""r8"">2793040000</Frequency><Timestamp dt:dt=""r8"">1.2173127631308E+15</Timestamp><Current dt:dt=""r8"">0</Current><DateUtc dt:dt=""string"">2014-06-02T19:28:13Z</DateUtc></FrequencyChange></FrequencyChanges></Clock>\n",60.033,1,-1016424431,0,,-999999,14,22180,t,94726,116906,6/2/2014,12:28:13,7:28:13 PM,1,Session1,SessionsList,,,,,,,,,,1,1,1,4,,,,,,,,4,1,4,NonCued4,MiniBlocks2,,,,589445,10,1,b,-999999,4,737904,b,345,738249,Green,Congruent,b,White,0,,0,4,732906,,0,0,,,,,,,,,,,,,Pictures\white.bmp,4000,4000,Pictures\black.bmp,,,,,,,,,,10,1,10,StimulusPr,Pictures\GreenRight.bmp,NonCuedStim4,Right
POP_2,27034,1,"<?xml version=""1.0""?>\n<Clock xmlns:dt=""urn:schemas-microsoft-com:datatypes""><Description dt:dt=""string"">E-Prime Primary Realtime Clock</Description><StartTime><Timestamp dt:dt=""int"">0</Timestamp><DateUtc dt:dt=""string"">2014-06-02T19:28:13Z</DateUtc></StartTime><FrequencyChanges><FrequencyChange><Frequency dt:dt=""r8"">2793040000</Frequency><Timestamp dt:dt=""r8"">1.2173127631308E+15</Timestamp><Current dt:dt=""r8"">0</Current><DateUtc dt:dt=""string"">2014-06-02T19:28:13Z</DateUtc></FrequencyChange></FrequencyChanges></Clock>\n",60.033,1,-1016424431,0,,-999999,14,22180,t,94726,116906,6/2/2014,12:28:13,7:28:13 PM,2,Session2,SessionsList,0,,-999999,15,768322,t,48137,816459,742268,2,1,2,1,816464,,,,1,1,1,,,,Cued1,MiniBlocks1,,,,,1,1,r,-999999,8,830474,r,389,830863,White,Congruent,r,Green,0,,0,11,825477,,0,0,1,1,1,,,,,,,,,,Pictures\green.bmp,4000,4000,Pictures\left.bmp,,,,,,,,,,,,,StimulusPr,Pictures\black.bmp,CuedStim1,Left
POP_2,27034,1,"<?xml version=""1.0""?>\n<Clock xmlns:dt=""urn:schemas-microsoft-com:datatypes""><Description dt:dt=""string"">E-Prime Primary Realtime Clock</Description><StartTime><Timestamp dt:dt=""int"">0</Timestamp><DateUtc dt:dt=""string"">2014-06-02T19:28:13Z</DateUtc></StartTime><FrequencyChanges><FrequencyChange><Frequency dt:dt=""r8"">2793040000</Frequency><Timestamp dt:dt=""r8"">1.2173127631308E+15</Timestamp><Current dt:dt=""r8"">0</Current><DateUtc dt:dt=""string"">2014-06-02T19:28:13Z</DateUtc></FrequencyChange></FrequencyChanges></Clock>\n",60.033,1,-1016424431,0,,-999999,14,22180,t,94726,116906,6/2/2014,12:28:13,7:28:13 PM,2,Session2,SessionsList,0,,-999999,15,768322,t,48137,816459,742268,2,1,2,1,816464,,,,1,1,1,,,,Cued1,MiniBlocks1,,,,,2,1,b,-999999,18,843484,b,310,843794,White,Congruent,b,Green,0,,0,8,836471,,0,0,2,1,2,,,,,,,,,,Pictures\green.bmp,6000,2000,Pictures\black.bmp,,,,,,,,,,,,,StimulusPr,Pictures\right.bmp,CuedStim1,Right
POP_2,27034,1,"<?xml version=""1.0""?>\n<Clock xmlns:dt=""urn:schemas-microsoft-com:datatypes""><Description dt:dt=""string"">E-Prime Primary Realtime Clock</Description><StartTime><Timestamp dt:dt=""int"">0</Timestamp><DateUtc dt:dt=""string"">2014-06-02T19:28:13Z</DateUtc></StartTime><FrequencyChanges><FrequencyChange><Frequency dt:dt=""r8"">2793040000</Frequency><Timestamp dt:dt=""r8"">1.2173127631308E+15</Timestamp><Current dt:dt=""r8"">0</Current><DateUtc dt:dt=""string"">2014-06-02T19:28:13Z</DateUtc></FrequencyChange></FrequencyChanges></Clock>\n",60.033,1,-1016424431,0,,-999999,14,22180,t,94726,116906,6/2/2014,12:28:13,7:28:13 PM,2,Session2,SessionsList,0,,-999999,15,768322,t,48137,816459,742268,2,1,2,1,816464,,,,1,1,1,,,,Cued1,MiniBlocks1,,,,,3,1,b,-999999,14,851464,b,327,851791,White,Congruent,b,Green,0,,0,16,847482,,0,0,3,1,3,,,,,,,,,,Pictures\green.bmp,3000,2000,Pictures\black.bmp,,,,,,,,,,,,,StimulusPr,Pictures\right.bmp,CuedStim1,Right
POP_2,27034,1,"<?xml version=""1.0""?>\n<Clock xmlns:dt=""urn:schemas-microsoft-com:datatypes""><Description dt:dt=""string"">E-Prime Primary Realtime Clock</Description><StartTime><Timestamp dt:dt=""int"">0</Timestamp><DateUtc dt:dt=""string"">2014-06-02T19:28:13Z</DateUtc></StartTime><FrequencyChanges><FrequencyChange><Frequency dt:dt=""r8"">2793040000</Frequency><Timestamp dt:dt=""r8"">1.2173127631308E+15</Timestamp><Current dt:dt=""r8"">0</Current><DateUtc dt:dt=""string"">2014-06-02T19:28:13Z</DateUtc></FrequencyChange></FrequencyChanges></Clock>\n",60.033,1,-1016424431,0,,-999999,14,22180,t,94726,116906,6/2/2014,12:28:13,7:28:13 PM,2,Session2,SessionsList,0,,-999999,15,768322,t,48137,816459,742268,2,1,2,1,816464,,,,1,1,1,,,,Cued1,MiniBlocks1,,,,,4,1,b,-999999,10,859476,b,373,859849,White,Incongruent,b,Red,0,,0,2,855462,,0,0,4,1,4,,,,,,,,,,Pictures\red.bmp,3000,16000,Pictures\left.bmp,,,,,,,,,,,,,StimulusPr,Pictures\black.bmp,CuedStim1,Left
POP_2,27034,1,"<?xml version=""1.0""?>\n<Clock xmlns:dt=""urn:schemas-microsoft-com:datatypes""><Description dt:dt=""string"">E-Prime Primary Realtime Clock</Description><StartTime><Timestamp dt:dt=""int"">0</Timestamp><DateUtc dt:dt=""string"">2014-06-02T19:28:13Z</DateUtc></StartTime><FrequencyChanges><FrequencyChange><Frequency dt:dt=""r8"">2793040000</Frequency><Timestamp dt:dt=""r8"">1.2173127631308E+15</Timestamp><Current dt:dt=""r8"">0</Current><DateUtc dt:dt=""string"">2014-06-02T19:28:13Z</DateUtc></FrequencyChange></FrequencyChanges></Clock>\n",60.033,1,-1016424431,0,,-999999,14,22180,t,94726,116906,6/2/2014,12:28:13,7:28:13 PM,2,Session2,SessionsList,0,,-999999,15,768322,t,48137,816459,742268,2,1,2,1,816464,,,,1,1,1,,,,Cued1,MiniBlocks1,,,,,5,1,r,-999999,16,881482,r,438,881920,White,Congruent,r,Green,0,,0,18,877484,,0,0,5,1,5,,,,,,,,,,Pictures\green.bmp,3000,16000,Pictures\left.bmp,,,,,,,,,,,,,StimulusPr,Pictures\black.bmp,CuedStim1,Left
POP_2,27034,1,"<?xml version=""1.0""?>\n<Clock xmlns:dt=""urn:schemas-microsoft-com:datatypes""><Description dt:dt=""string"">E-Prime Primary Realtime Clock</Description><StartTime><Timestamp dt:dt=""int"">0</Timestamp><DateUtc dt:dt=""string"">2014-06-02T19:28:13Z</DateUtc></StartTime><FrequencyChanges><FrequencyChange><Frequency dt:dt=""r8"">2793040000</Frequency><Timestamp dt:dt=""r8"">1.2173127631308E+15</Timestamp><Current dt:dt=""r8"">0</Current><DateUtc dt:dt=""string"">2014-06-02T19:28:13Z</DateUtc></FrequencyChange></FrequencyChanges></Clock>\n",60.033,1,-1016424431,0,,-999999,14,22180,t,94726,116906,6/2/2014,12:28:13,7:28:13 PM,2,Session2,SessionsList,0,,-999999,15,768322,t,48137,816459,742268,2,1,2,1,816464,,,,1,1,1,,,,Cued1,MiniBlocks1,,,,,6,1,r,-999999,3,909469,r,400,909869,White,Congruent,r,Green,0,,0,7,899473,,0,0,6,1,6,,,,,,,,,,Pictures\green.bmp,9000,10000,Pictures\left.bmp,,,,,,,,,,,,,StimulusPr,Pictures\black.bmp,CuedStim1,Left
POP_2,27034,1,"<?xml version=""1.0""?>\n<Clock xmlns:dt=""urn:schemas-microsoft-com:datatypes""><Description dt:dt=""string"">E-Prime Primary Realtime Clock</Description><StartTime><Timestamp dt:dt=""int"">0</Timestamp><DateUtc dt:dt=""string"">2014-06-02T19:28:13Z</DateUtc></StartTime><FrequencyChanges><FrequencyChange><Frequency dt:dt=""r8"">2793040000</Frequency><Timestamp dt:dt=""r8"">1.2173127631308E+15</Timestamp><Current dt:dt=""r8"">0</Current><DateUtc dt:dt=""string"">2014-06-02T19:28:13Z</DateUtc></FrequencyChange></FrequencyChanges></Clock>\n",60.033,1,-1016424431,0,,-999999,14,22180,t,94726,116906,6/2/2014,12:28:13,7:28:13 PM,2,Session2,SessionsList,0,,-999999,15,768322,t,48137,816459,742268,2,1,2,1,816464,,,,1,1,1,,,,Cued1,MiniBlocks1,,,,,7,1,b,-999999,10,925476,b,330,925806,White,Congruent,b,Green,0,,0,10,921462,,0,0,7,1,7,,,,,,,,,,Pictures\green.bmp,3000,16000,Pictures\black.bmp,,,,,,,,,,,,,StimulusPr,Pictures\right.bmp,CuedStim1,Right
POP_2,27034,1,"<?xml version=""1.0""?>\n<Clock xmlns:dt=""urn:schemas-microsoft-com:datatypes""><Description dt:dt=""string"">E-Prime Primary Realtime Clock</Description><StartTime><Timestamp dt:dt=""int"">0</Timestamp><DateUtc dt:dt=""string"">2014-06-02T19:28:13Z</DateUtc></StartTime><FrequencyChanges><FrequencyChange><Frequency dt:dt=""r8"">2793040000</Frequency><Timestamp dt:dt=""r8"">1.2173127631308E+15</Timestamp><Current dt:dt=""r8"">0</Current><DateUtc dt:dt=""string"">2014-06-02T19:28:13Z</DateUtc></FrequencyChange></FrequencyChanges></Clock>\n",60.033,1,-1016424431,0,,-999999,14,22180,t,94726,116906,6/2/2014,12:28:13,7:28:13 PM,2,Session2,SessionsList,0,,-999999,15,768322,t,48137,816459,742268,2,1,2,1,816464,,,,1,1,1,,,,Cued1,MiniBlocks1,,,,,8,1,r,-999999,15,948481,r,432,948913,White,Incongruent,r,Red,0,,0,2,943468,,0,0,8,1,8,,,,,,,,,,Pictures\red.bmp,4000,2000,Pictures\black.bmp,,,,,,,,,,,,,StimulusPr,Pictures\right.bmp,CuedStim1,Right
POP_2,27034,1,"<?xml version=""1.0""?>\n<Clock xmlns:dt=""urn:schemas-microsoft-com:datatypes""><Description dt:dt=""string"">E-Prime Primary Realtime Clock</Description><StartTime><Timestamp dt:dt=""int"">0</Timestamp><DateUtc dt:dt=""string"">2014-06-02T19:28:13Z</DateUtc></StartTime><FrequencyChanges><FrequencyChange><Frequency dt:dt=""r8"">2793040000</Frequency><Timestamp dt:dt=""r8"">1.2173127631308E+15</Timestamp><Current dt:dt=""r8"">0</Current><DateUtc dt:dt=""string"">2014-06-02T19:28:13Z</DateUtc></FrequencyChange></FrequencyChanges></Clock>\n",60.033,1,-1016424431,0,,-999999,14,22180,t,94726,116906,6/2/2014,12:28:13,7:28:13 PM,2,Session2,SessionsList,0,,-999999,15,768322,t,48137,816459,742268,2,1,2,1,816464,,,,1,1,1,,,,Cued1,MiniBlocks1,,,,,9,1,b,-999999,17,957477,b,337,957814,White,Congruent,b,Green,0,,0,16,952479,,0,0,9,1,9,,,,,,,,,,Pictures\green.bmp,4000,2000,Pictures\black.bmp,,,,,,,,,,,,,StimulusPr,Pictures\right.bmp,CuedStim1,Right
POP_2,27034,1,"<?xml version=""1.0""?>\n<Clock xmlns:dt=""urn:schemas-microsoft-com:datatypes""><Description dt:dt=""string"">E-Prime Primary Realtime Clock</Description><StartTime><Timestamp dt:dt=""int"">0</Timestamp><DateUtc dt:dt=""string"">2014-06-02T19:28:13Z</DateUtc></StartTime><FrequencyChanges><FrequencyChange><Frequency dt:dt=""r8"">2793040000</Frequency><Timestamp dt:dt=""r8"">1.2173127631308E+15</Timestamp><Current dt:dt=""r8"">0</Current><DateUtc dt:dt=""string"">2014-06-02T19:28:13Z</DateUtc></FrequencyChange></FrequencyChanges></Clock>\n",60.033,1,-1016424431,0,,-999999,14,22180,t,94726,116906,6/2/2014,12:28:13,7:28:13 PM,2,Session2,SessionsList,0,,-999999,15,768322,t,48137,816459,742268,2,1,2,1,816464,,,,1,1,1,,,,Cued1,MiniBlocks1,,,,,10,1,r,-999999,7,965473,r,475,965948,White,Congruent,r,Green,0,,0,13,961475,,0,0,10,1,10,,,,,,,,,,Pictures\green.bmp,3000,2000,Pictures\left.bmp,,,,,,,,,,,,,StimulusPr,Pictures\black.bmp,CuedStim1,Left
POP_2,27034,1,"<?xml version=""1.0""?>\n<Clock xmlns:dt=""urn:schemas-microsoft-com:datatypes""><Description dt:dt=""string"">E-Prime Primary Realtime Clock</Description><StartTime><Timestamp dt:dt=""int"">0</Timestamp><DateUtc dt:dt=""string"">2014-06-02T19:28:13Z</DateUtc></StartTime><FrequencyChanges><FrequencyChange><Frequency dt:dt=""r8"">2793040000</Frequency><Timestamp dt:dt=""r8"">1.2173127631308E+15</Timestamp><Current dt:dt=""r8"">0</Current><DateUtc dt:dt=""string"">2014-06-02T19:28:13Z</DateUtc></FrequencyChange></FrequencyChanges></Clock>\n",60.033,1,-1016424431,0,,-999999,14,22180,t,94726,116906,6/2/2014,12:28:13,7:28:13 PM,2,Session2,SessionsList,0,,-999999,15,768322,t,48137,816459,742268,2,1,2,2,,,,,2,1,2,,,,NonCued1,MiniBlocks1,967972,,,,1,1,r,-999999,16,983481,r,369,983850,Green,Congruent,r,White,0,,0,7,978466,,0,0,,,,,,,,,,,,,Pictures\white.bmp,4000,2000,Pictures\GreenLeft.bmp,1,1,1,,,,,,,,,,StimulusPr,Pictures\black.bmp,NonCuedStim1,Left
POP_2,27034,1,"<?xml version=""1.0""?>\n<Clock xmlns:dt=""urn:schemas-microsoft-com:datatypes""><Description dt:dt=""string"">E-Prime Primary Realtime Clock</Description><StartTime><Timestamp dt:dt=""int"">0</Timestamp><DateUtc dt:dt=""string"">2014-06-02T19:28:13Z</DateUtc></StartTime><FrequencyChanges><FrequencyChange><Frequency dt:dt=""r8"">2793040000</Frequency><Timestamp dt:dt=""r8"">1.2173127631308E+15</Timestamp><Current dt:dt=""r8"">0</Current><DateUtc dt:dt=""string"">2014-06-02T19:28:13Z</DateUtc></FrequencyChange></FrequencyChanges></Clock>\n",60.033,1,-1016424431,0,,-999999,14,22180,t,94726,116906,6/2/2014,12:28:13,7:28:13 PM,2,Session2,SessionsList,0,,-999999,15,768322,t,48137,816459,742268,2,1,2,2,,,,,2,1,2,,,,NonCued1,MiniBlocks1,967972,,,,2,1,b,-999999,10,994475,b,308,994783,Green,Congruent,b,White,0,,0,14,987479,,0,0,,,,,,,,,,,,,Pictures\white.bmp,6000,16000,Pictures\black.bmp,2,1,2,,,,,,,,,,StimulusPr,Pictures\GreenRight.bmp,NonCuedStim1,Right
POP_2,27034,1,"<?xml version=""1.0""?>\n<Clock xmlns:dt=""urn:schemas-microsoft-com:datatypes""><Description dt:dt=""string"">E-Prime Primary Realtime Clock</Description><StartTime><Timestamp dt:dt=""int"">0</Timestamp><DateUtc dt:dt=""string"">2014-06-02T19:28:13Z</DateUtc></StartTime><FrequencyChanges><FrequencyChange><Frequency dt:dt=""r8"">2793040000</Frequency><Timestamp dt:dt=""r8"">1.2173127631308E+15</Timestamp><Current dt:dt=""r8"">0</Current><DateUtc dt:dt=""string"">2014-06-02T19:28:13Z</DateUtc></FrequencyChange></FrequencyChanges></Clock>\n",60.033,1,-1016424431,0,,-999999,14,22180,t,94726,116906,6/2/2014,12:28:13,7:28:13 PM,2,Session2,SessionsList,0,,-999999,15,768322,t,48137,816459,742268,2,1,2,2,,,,,2,1,2,,,,NonCued1,MiniBlocks1,967972,,,,3,1,r,-999999,14,1019479,r,373,1019852,Red,Incongruent,r,White,0,,0,18,1012483,,0,0,,,,,,,,,,,,,Pictures\white.bmp,6000,10000,Pictures\black.bmp,3,1,3,,,,,,,,,,StimulusPr,Pictures\RedRight.bmp,NonCuedStim1,Right
POP_2,27034,1,"<?xml version=""1.0""?>\n<Clock xmlns:dt=""urn:schemas-microsoft-com:datatypes""><Description dt:dt=""string"">E-Prime Primary Realtime Clock</Description><StartTime><Timestamp dt:dt=""int"">0</Timestamp><DateUtc dt:dt=""string"">2014-06-02T19:28:13Z</DateUtc></StartTime><FrequencyChanges><FrequencyChange><Frequency dt:dt=""r8"">2793040000</Frequency><Timestamp dt:dt=""r8"">1.2173127631308E+15</Timestamp><Current dt:dt=""r8"">0</Current><DateUtc dt:dt=""string"">2014-06-02T19:28:13Z</DateUtc></FrequencyChange></FrequencyChanges></Clock>\n",60.033,1,-1016424431,0,,-999999,14,22180,t,94726,116906,6/2/2014,12:28:13,7:28:13 PM,2,Session2,SessionsList,0,,-999999,15,768322,t,48137,816459,742268,2,1,2,2,,,,,2,1,2,,,,NonCued1,MiniBlocks1,967972,,,,4,1,r,-999999,3,1041468,r,465,1041933,Green,Congruent,r,White,0,,0,12,1031473,,0,0,,,,,,,,,,,,,Pictures\white.bmp,9000,10000,Pictures\GreenLeft.bmp,4,1,4,,,,,,,,,,StimulusPr,Pictures\black.bmp,NonCuedStim1,Left
POP_2,27034,1,"<?xml version=""1.0""?>\n<Clock xmlns:dt=""urn:schemas-microsoft-com:datatypes""><Description dt:dt=""string"">E-Prime Primary Realtime Clock</Description><StartTime><Timestamp dt:dt=""int"">0</Timestamp><DateUtc dt:dt=""string"">2014-06-02T19:28:13Z</DateUtc></StartTime><FrequencyChanges><FrequencyChange><Frequency dt:dt=""r8"">2793040000</Frequency><Timestamp dt:dt=""r8"">1.2173127631308E+15</Timestamp><Current dt:dt=""r8"">0</Current><DateUtc dt:dt=""string"">2014-06-02T19:28:13Z</DateUtc></FrequencyChange></FrequencyChanges></Clock>\n",60.033,1,-1016424431,0,,-999999,14,22180,t,94726,116906,6/2/2014,12:28:13,7:28:13 PM,2,Session2,SessionsList,0,,-999999,15,768322,t,48137,816459,742268,2,1,2,2,,,,,2,1,2,,,,NonCued1,MiniBlocks1,967972,,,,5,1,b,-999999,15,1057477,b,359,1057836,Green,Congruent,b,White,0,,0,13,1053479,,0,0,,,,,,,,,,,,,Pictures\white.bmp,3000,2000,Pictures\black.bmp,5,1,5,,,,,,,,,,StimulusPr,Pictures\GreenRight.bmp,NonCuedStim1,Right
POP_2,27034,1,"<?xml version=""1.0""?>\n<Clock xmlns:dt=""urn:schemas-microsoft-com:datatypes""><Description dt:dt=""string"">E-Prime Primary Realtime Clock</Description><StartTime><Timestamp dt:dt=""int"">0</Timestamp><DateUtc dt:dt=""string"">2014-06-02T19:28:13Z</DateUtc></StartTime><FrequencyChanges><FrequencyChange><Frequency dt:dt=""r8"">2793040000</Frequency><Timestamp dt:dt=""r8"">1.2173127631308E+15</Timestamp><Current dt:dt=""r8"">0</Current><DateUtc dt:dt=""string"">2014-06-02T19:28:13Z</DateUtc></FrequencyChange></FrequencyChanges></Clock>\n",60.033,1,-1016424431,0,,-999999,14,22180,t,94726,116906,6/2/2014,12:28:13,7:28:13 PM,2,Session2,SessionsList,0,,-999999,15,768322,t,48137,816459,742268,2,1,2,2,,,,,2,1,2,,,,NonCued1,MiniBlocks1,967972,,,,6,1,b,-999999,6,1066472,b,511,1066983,Red,Incongruent,b,White,0,,0,3,1061458,,0,0,,,,,,,,,,,,,Pictures\white.bmp,4000,16000,Pictures\RedLeft.bmp,6,1,6,,,,,,,,,,StimulusPr,Pictures\black.bmp,NonCuedStim1,Left
POP_2,27034,1,"<?xml version=""1.0""?>\n<Clock xmlns:dt=""urn:schemas-microsoft-com:datatypes""><Description dt:dt=""string"">E-Prime Primary Realtime Clock</Description><StartTime><Timestamp dt:dt=""int"">0</Timestamp><DateUtc dt:dt=""string"">2014-06-02T19:28:13Z</DateUtc></StartTime><FrequencyChanges><FrequencyChange><Frequency dt:dt=""r8"">2793040000</Frequency><Timestamp dt:dt=""r8"">1.2173127631308E+15</Timestamp><Current dt:dt=""r8"">0</Current><DateUtc dt:dt=""string"">2014-06-02T19:28:13Z</DateUtc></FrequencyChange></FrequencyChanges></Clock>\n",60.033,1,-1016424431,0,,-999999,14,22180,t,94726,116906,6/2/2014,12:28:13,7:28:13 PM,2,Session2,SessionsList,0,,-999999,15,768322,t,48137,816459,742268,2,1,2,2,,,,,2,1,2,,,,NonCued1,MiniBlocks1,967972,,,,7,1,b,-999999,3,1088461,b,434,1088895,Green,Congruent,b,White,0,,0,7,1084463,,0,0,,,,,,,,,,,,,Pictures\white.bmp,3000,4000,Pictures\black.bmp,7,1,7,,,,,,,,,,StimulusPr,Pictures\GreenRight.bmp,NonCuedStim1,Right
POP_2,27034,1,"<?xml version=""1.0""?>\n<Clock xmlns:dt=""urn:schemas-microsoft-com:datatypes""><Description dt:dt=""string"">E-Prime Primary Realtime Clock</Description><StartTime><Timestamp dt:dt=""int"">0</Timestamp><DateUtc dt:dt=""string"">2014-06-02T19:28:13Z</DateUtc></StartTime><FrequencyChanges><FrequencyChange><Frequency dt:dt=""r8"">2793040000</Frequency><Timestamp dt:dt=""r8"">1.2173127631308E+15</Timestamp><Current dt:dt=""r8"">0</Current><DateUtc dt:dt=""string"">2014-06-02T19:28:13Z</DateUtc></FrequencyChange></FrequencyChanges></Clock>\n",60.033,1,-1016424431,0,,-999999,14,22180,t,94726,116906,6/2/2014,12:28:13,7:28:13 PM,2,Session2,SessionsList,0,,-999999,15,768322,t,48137,816459,742268,2,1,2,2,,,,,2,1,2,,,,NonCued1,MiniBlocks1,967972,,,,8,1,b,-999999,8,1098473,b,388,1098861,Green,Congruent,b,White,0,,0,4,1094458,,0,0,,,,,,,,,,,,,Pictures\white.bmp,3000,4000,Pictures\black.bmp,8,1,8,,,,,,,,,,StimulusPr,Pictures\GreenRight.bmp,NonCuedStim1,Right
POP_2,27034,1,"<?xml version=""1.0""?>\n<Clock xmlns:dt=""urn:schemas-microsoft-com:datatypes""><Description dt:dt=""string"">E-Prime Primary Realtime Clock</Description><StartTime><Timestamp dt:dt=""int"">0</Timestamp><DateUtc dt:dt=""string"">2014-06-02T19:28:13Z</DateUtc></StartTime><FrequencyChanges><FrequencyChange><Frequency dt:dt=""r8"">2793040000</Frequency><Timestamp dt:dt=""r8"">1.2173127631308E+15</Timestamp><Current dt:dt=""r8"">0</Current><DateUtc dt:dt=""string"">2014-06-02T19:28:13Z</DateUtc></FrequencyChange></FrequencyChanges></Clock>\n",60.033,1,-1016424431,0,,-999999,14,22180,t,94726,116906,6/2/2014,12:28:13,7:28:13 PM,2,Session2,SessionsList,0,,-999999,15,768322,t,48137,816459,742268,2,1,2,2,,,,,2,1,2,,,,NonCued1,MiniBlocks1,967972,,,,9,1,b,-999999,16,1114481,b,374,1114855,Red,Incongruent,b,White,0,,0,5,1104470,,0,0,,,,,,,,,,,,,Pictures\white.bmp,9000,2000,Pictures\RedLeft.bmp,9,1,9,,,,,,,,,,StimulusPr,Pictures\black.bmp,NonCuedStim1,Left
POP_2,27034,1,"<?xml version=""1.0""?>\n<Clock xmlns:dt=""urn:schemas-microsoft-com:datatypes""><Description dt:dt=""string"">E-Prime Primary Realtime Clock</Description><StartTime><Timestamp dt:dt=""int"">0</Timestamp><DateUtc dt:dt=""string"">2014-06-02T19:28:13Z</DateUtc></StartTime><FrequencyChanges><FrequencyChange><Frequency dt:dt=""r8"">2793040000</Frequency><Timestamp dt:dt=""r8"">1.2173127631308E+15</Timestamp><Current dt:dt=""r8"">0</Current><DateUtc dt:dt=""string"">2014-06-02T19:28:13Z</DateUtc></FrequencyChange></FrequencyChanges></Clock>\n",60.033,1,-1016424431,0,,-999999,14,22180,t,94726,116906,6/2/2014,12:28:13,7:28:13 PM,2,Session2,SessionsList,0,,-999999,15,768322,t,48137,816459,742268,2,1,2,2,,,,,2,1,2,,,,NonCued1,MiniBlocks1,967972,,,,10,1,r,-999999,7,1125459,r,482,1125941,Green,Congruent,r,White,0,,0,13,1118463,,0,0,,,,,,,,,,,,,Pictures\white.bmp,6000,2000,Pictures\GreenLeft.bmp,10,1,10,,,,,,,,,,StimulusPr,Pictures\black.bmp,NonCuedStim1,Left
POP_2,27034,1,"<?xml version=""1.0""?>\n<Clock xmlns:dt=""urn:schemas-microsoft-com:datatypes""><Description dt:dt=""string"">E-Prime Primary Realtime Clock</Description><StartTime><Timestamp dt:dt=""int"">0</Timestamp><DateUtc dt:dt=""string"">2014-06-02T19:28:13Z</DateUtc></StartTime><FrequencyChanges><FrequencyChange><Frequency dt:dt=""r8"">2793040000</Frequency><Timestamp dt:dt=""r8"">1.2173127631308E+15</Timestamp><Current dt:dt=""r8"">0</Current><DateUtc dt:dt=""string"">2014-06-02T19:28:13Z</DateUtc></FrequencyChange></FrequencyChanges></Clock>\n",60.033,1,-1016424431,0,,-999999,14,22180,t,94726,116906,6/2/2014,12:28:13,7:28:13 PM,2,Session2,SessionsList,0,,-999999,15,768322,t,48137,816459,742268,2,1,2,3,,,,,3,1,3,,,,NonCued2,MiniBlocks1,,1127958,,,1,1,b,-999999,15,1148481,b,309,1148790,Green,Congruent,b,White,0,,0,3,1138469,,0,0,,,,,,,,,,,,,Pictures\white.bmp,9000,10000,Pictures\black.bmp,,,,1,1,1,,,,,,,StimulusPr,Pictures\GreenRight.bmp,NonCuedStim2,Right
POP_2,27034,1,"<?xml version=""1.0""?>\n<Clock xmlns:dt=""urn:schemas-microsoft-com:datatypes""><Description dt:dt=""string"">E-Prime Primary Realtime Clock</Description><StartTime><Timestamp dt:dt=""int"">0</Timestamp><DateUtc dt:dt=""string"">2014-06-02T19:28:13Z</DateUtc></StartTime><FrequencyChanges><FrequencyChange><Frequency dt:dt=""r8"">2793040000</Frequency><Timestamp dt:dt=""r8"">1.2173127631308E+15</Timestamp><Current dt:dt=""r8"">0</Current><DateUtc dt:dt=""string"">2014-06-02T19:28:13Z</DateUtc></FrequencyChange></FrequencyChanges></Clock>\n",60.033,1,-1016424431,0,,-999999,14,22180,t,94726,116906,6/2/2014,12:28:13,7:28:13 PM,2,Session2,SessionsList,0,,-999999,15,768322,t,48137,816459,742268,2,1,2,3,,,,,3,1,3,,,,NonCued2,MiniBlocks1,,1127958,,,2,1,r,-999999,12,1164473,r,515,1164988,Green,Congruent,r,White,0,,0,9,1160475,,0,0,,,,,,,,,,,,,Pictures\white.bmp,3000,2000,Pictures\GreenLeft.bmp,,,,2,1,2,,,,,,,StimulusPr,Pictures\black.bmp,NonCuedStim2,Left
POP_2,27034,1,"<?xml version=""1.0""?>\n<Clock xmlns:dt=""urn:schemas-microsoft-com:datatypes""><Description dt:dt=""string"">E-Prime Primary Realtime Clock</Description><StartTime><Timestamp dt:dt=""int"">0</Timestamp><DateUtc dt:dt=""string"">2014-06-02T19:28:13Z</DateUtc></StartTime><FrequencyChanges><FrequencyChange><Frequency dt:dt=""r8"">2793040000</Frequency><Timestamp dt:dt=""r8"">1.2173127631308E+15</Timestamp><Current dt:dt=""r8"">0</Current><DateUtc dt:dt=""string"">2014-06-02T19:28:13Z</DateUtc></FrequencyChange></FrequencyChanges></Clock>\n",60.033,1,-1016424431,0,,-999999,14,22180,t,94726,116906,6/2/2014,12:28:13,7:28:13 PM,2,Session2,SessionsList,0,,-999999,15,768322,t,48137,816459,742268,2,1,2,3,,,,,3,1,3,,,,NonCued2,MiniBlocks1,,1127958,,,3,1,r,-999999,3,1172469,r,517,1172986,Red,Incongruent,r,White,0,,0,12,1168471,,0,0,,,,,,,,,,,,,Pictures\white.bmp,3000,2000,Pictures\black.bmp,,,,3,1,3,,,,,,,StimulusPr,Pictures\RedRight.bmp,NonCuedStim2,Right
POP_2,27034,1,"<?xml version=""1.0""?>\n<Clock xmlns:dt=""urn:schemas-microsoft-com:datatypes""><Description dt:dt=""string"">E-Prime Primary Realtime Clock</Description><StartTime><Timestamp dt:dt=""int"">0</Timestamp><DateUtc dt:dt=""string"">2014-06-02T19:28:13Z</DateUtc></StartTime><FrequencyChanges><FrequencyChange><Frequency dt:dt=""r8"">2793040000</Frequency><Timestamp dt:dt=""r8"">1.2173127631308E+15</Timestamp><Current dt:dt=""r8"">0</Current><DateUtc dt:dt=""string"">2014-06-02T19:28:13Z</DateUtc></FrequencyChange></FrequencyChanges></Clock>\n",60.033,1,-1016424431,0,,-999999,14,22180,t,94726,116906,6/2/2014,12:28:13,7:28:13 PM,2,Session2,SessionsList,0,,-999999,15,768322,t,48137,816459,742268,2,1,2,3,,,,,3,1,3,,,,NonCued2,MiniBlocks1,,1127958,,,4,1,r,-999999,13,1181464,r,511,1181975,Green,Congruent,r,White,0,,0,3,1176467,,0,0,,,,,,,,,,,,,Pictures\white.bmp,4000,16000,Pictures\GreenLeft.bmp,,,,4,1,4,,,,,,,StimulusPr,Pictures\black.bmp,NonCuedStim2,Left
POP_2,27034,1,"<?xml version=""1.0""?>\n<Clock xmlns:dt=""urn:schemas-microsoft-com:datatypes""><Description dt:dt=""string"">E-Prime Primary Realtime Clock</Description><StartTime><Timestamp dt:dt=""int"">0</Timestamp><DateUtc dt:dt=""string"">2014-06-02T19:28:13Z</DateUtc></StartTime><FrequencyChanges><FrequencyChange><Frequency dt:dt=""r8"">2793040000</Frequency><Timestamp dt:dt=""r8"">1.2173127631308E+15</Timestamp><Current dt:dt=""r8"">0</Current><DateUtc dt:dt=""string"">2014-06-02T19:28:13Z</DateUtc></FrequencyChange></FrequencyChanges></Clock>\n",60.033,1,-1016424431,0,,-999999,14,22180,t,94726,116906,6/2/2014,12:28:13,7:28:13 PM,2,Session2,SessionsList,0,,-999999,15,768322,t,48137,816459,742268,2,1,2,3,,,,,3,1,3,,,,NonCued2,MiniBlocks1,,1127958,,,5,1,r,-999999,4,1206468,r,508,1206976,Green,Congruent,r,White,0,,0,7,1199472,,0,0,,,,,,,,,,,,,Pictures\white.bmp,6000,4000,Pictures\GreenLeft.bmp,,,,5,1,5,,,,,,,StimulusPr,Pictures\black.bmp,NonCuedStim2,Left
POP_2,27034,1,"<?xml version=""1.0""?>\n<Clock xmlns:dt=""urn:schemas-microsoft-com:datatypes""><Description dt:dt=""string"">E-Prime Primary Realtime Clock</Description><StartTime><Timestamp dt:dt=""int"">0</Timestamp><DateUtc dt:dt=""string"">2014-06-02T19:28:13Z</DateUtc></StartTime><FrequencyChanges><FrequencyChange><Frequency dt:dt=""r8"">2793040000</Frequency><Timestamp dt:dt=""r8"">1.2173127631308E+15</Timestamp><Current dt:dt=""r8"">0</Current><DateUtc dt:dt=""string"">2014-06-02T19:28:13Z</DateUtc></FrequencyChange></FrequencyChanges></Clock>\n",60.033,1,-1016424431,0,,-999999,14,22180,t,94726,116906,6/2/2014,12:28:13,7:28:13 PM,2,Session2,SessionsList,0,,-999999,15,768322,t,48137,816459,742268,2,1,2,3,,,,,3,1,3,,,,NonCued2,MiniBlocks1,,1127958,,,6,1,b,-999999,16,1216480,b,743,1217223,Red,Incongruent,b,White,0,,0,18,1212482,,0,0,,,,,,,,,,,,,Pictures\white.bmp,3000,4000,Pictures\RedLeft.bmp,,,,6,1,6,,,,,,,StimulusPr,Pictures\black.bmp,NonCuedStim2,Left
POP_2,27034,1,"<?xml version=""1.0""?>\n<Clock xmlns:dt=""urn:schemas-microsoft-com:datatypes""><Description dt:dt=""string"">E-Prime Primary Realtime Clock</Description><StartTime><Timestamp dt:dt=""int"">0</Timestamp><DateUtc dt:dt=""string"">2014-06-02T19:28:13Z</DateUtc></StartTime><FrequencyChanges><FrequencyChange><Frequency dt:dt=""r8"">2793040000</Frequency><Timestamp dt:dt=""r8"">1.2173127631308E+15</Timestamp><Current dt:dt=""r8"">0</Current><DateUtc dt:dt=""string"">2014-06-02T19:28:13Z</DateUtc></FrequencyChange></FrequencyChanges></Clock>\n",60.033,1,-1016424431,0,,-999999,14,22180,t,94726,116906,6/2/2014,12:28:13,7:28:13 PM,2,Session2,SessionsList,0,,-999999,15,768322,t,48137,816459,742268,2,1,2,3,,,,,3,1,3,,,,NonCued2,MiniBlocks1,,1127958,,,7,1,b,-999999,10,1227475,b,408,1227883,Green,Congruent,b,White,0,,0,8,1222460,,0,0,,,,,,,,,,,,,Pictures\white.bmp,4000,16000,Pictures\black.bmp,,,,7,1,7,,,,,,,StimulusPr,Pictures\GreenRight.bmp,NonCuedStim2,Right
POP_2,27034,1,"<?xml version=""1.0""?>\n<Clock xmlns:dt=""urn:schemas-microsoft-com:datatypes""><Description dt:dt=""string"">E-Prime Primary Realtime Clock</Description><StartTime><Timestamp dt:dt=""int"">0</Timestamp><DateUtc dt:dt=""string"">2014-06-02T19:28:13Z</DateUtc></StartTime><FrequencyChanges><FrequencyChange><Frequency dt:dt=""r8"">2793040000</Frequency><Timestamp dt:dt=""r8"">1.2173127631308E+15</Timestamp><Current dt:dt=""r8"">0</Current><DateUtc dt:dt=""string"">2014-06-02T19:28:13Z</DateUtc></FrequencyChange></FrequencyChanges></Clock>\n",60.033,1,-1016424431,0,,-999999,14,22180,t,94726,116906,6/2/2014,12:28:13,7:28:13 PM,2,Session2,SessionsList,0,,-999999,15,768322,t,48137,816459,742268,2,1,2,3,,,,,3,1,3,,,,NonCued2,MiniBlocks1,,1127958,,,8,1,r,-999999,14,1255477,r,349,1255826,Green,Congruent,r,White,0,,0,16,1245466,,0,0,,,,,,,,,,,,,Pictures\white.bmp,9000,2000,Pictures\GreenLeft.bmp,,,,8,1,8,,,,,,,StimulusPr,Pictures\black.bmp,NonCuedStim2,Left
POP_2,27034,1,"<?xml version=""1.0""?>\n<Clock xmlns:dt=""urn:schemas-microsoft-com:datatypes""><Description dt:dt=""string"">E-Prime Primary Realtime Clock</Description><StartTime><Timestamp dt:dt=""int"">0</Timestamp><DateUtc dt:dt=""string"">2014-06-02T19:28:13Z</DateUtc></StartTime><FrequencyChanges><FrequencyChange><Frequency dt:dt=""r8"">2793040000</Frequency><Timestamp dt:dt=""r8"">1.2173127631308E+15</Timestamp><Current dt:dt=""r8"">0</Current><DateUtc dt:dt=""string"">2014-06-02T19:28:13Z</DateUtc></FrequencyChange></FrequencyChanges></Clock>\n",60.033,1,-1016424431,0,,-999999,14,22180,t,94726,116906,6/2/2014,12:28:13,7:28:13 PM,2,Session2,SessionsList,0,,-999999,15,768322,t,48137,816459,742268,2,1,2,3,,,,,3,1,3,,,,NonCued2,MiniBlocks1,,1127958,,,9,1,b,-999999,8,1263473,b,373,1263846,Green,Congruent,b,White,0,,0,6,1259459,,0,0,,,,,,,,,,,,,Pictures\white.bmp,3000,10000,Pictures\black.bmp,,,,9,1,9,,,,,,,StimulusPr,Pictures\GreenRight.bmp,NonCuedStim2,Right
POP_2,27034,1,"<?xml version=""1.0""?>\n<Clock xmlns:dt=""urn:schemas-microsoft-com:datatypes""><Description dt:dt=""string"">E-Prime Primary Realtime Clock</Description><StartTime><Timestamp dt:dt=""int"">0</Timestamp><DateUtc dt:dt=""string"">2014-06-02T19:28:13Z</DateUtc></StartTime><FrequencyChanges><FrequencyChange><Frequency dt:dt=""r8"">2793040000</Frequency><Timestamp dt:dt=""r8"">1.2173127631308E+15</Timestamp><Current dt:dt=""r8"">0</Current><DateUtc dt:dt=""string"">2014-06-02T19:28:13Z</DateUtc></FrequencyChange></FrequencyChanges></Clock>\n",60.033,1,-1016424431,0,,-999999,14,22180,t,94726,116906,6/2/2014,12:28:13,7:28:13 PM,2,Session2,SessionsList,0,,-999999,15,768322,t,48137,816459,742268,2,1,2,3,,,,,3,1,3,,,,NonCued2,MiniBlocks1,,1127958,,,10,1,b,-999999,17,1279482,b,519,1280001,Green,Congruent,b,White,0,,0,11,1275467,,0,0,,,,,,,,,,,,,Pictures\white.bmp,3000,2000,Pictures\black.bmp,,,,10,1,10,,,,,,,StimulusPr,Pictures\GreenRight.bmp,NonCuedStim2,Right
POP_2,27034,1,"<?xml version=""1.0""?>\n<Clock xmlns:dt=""urn:schemas-microsoft-com:datatypes""><Description dt:dt=""string"">E-Prime Primary Realtime Clock</Description><StartTime><Timestamp dt:dt=""int"">0</Timestamp><DateUtc dt:dt=""string"">2014-06-02T19:28:13Z</DateUtc></StartTime><FrequencyChanges><FrequencyChange><Frequency dt:dt=""r8"">2793040000</Frequency><Timestamp dt:dt=""r8"">1.2173127631308E+15</Timestamp><Current dt:dt=""r8"">0</Current><DateUtc dt:dt=""string"">2014-06-02T19:28:13Z</DateUtc></FrequencyChange></FrequencyChanges></Clock>\n",60.033,1,-1016424431,0,,-999999,14,22180,t,94726,116906,6/2/2014,12:28:13,7:28:13 PM,2,Session2,SessionsList,0,,-999999,15,768322,t,48137,816459,742268,2,1,2,4,,1282031,,,4,1,4,,,,Cued2,MiniBlocks1,,,,,1,1,b,-999999,9,1299472,b,276,1299748,White,Congruent,b,Green,0,,0,11,1292475,,0,0,,,,1,1,1,,,,,,,Pictures\green.bmp,6000,4000,Pictures\black.bmp,,,,,,,,,,,,,StimulusPr,Pictures\right.bmp,CuedStim2,Right
POP_2,27034,1,"<?xml version=""1.0""?>\n<Clock xmlns:dt=""urn:schemas-microsoft-com:datatypes""><Description dt:dt=""string"">E-Prime Primary Realtime Clock</Description><StartTime><Timestamp dt:dt=""int"">0</Timestamp><DateUtc dt:dt=""string"">2014-06-02T19:28:13Z</DateUtc></StartTime><FrequencyChanges><FrequencyChange><Frequency dt:dt=""r8"">2793040000</Frequency><Timestamp dt:dt=""r8"">1.2173127631308E+15</Timestamp><Current dt:dt=""r8"">0</Current><DateUtc dt:dt=""string"">2014-06-02T19:28:13Z</DateUtc></FrequencyChange></FrequencyChanges></Clock>\n",60.033,1,-1016424431,0,,-999999,14,22180,t,94726,116906,6/2/2014,12:28:13,7:28:13 PM,2,Session2,SessionsList,0,,-999999,15,768322,t,48137,816459,742268,2,1,2,4,,1282031,,,4,1,4,,,,Cued2,MiniBlocks1,,,,,2,1,b,-999999,16,1315480,b,306,1315786,White,Congruent,b,Green,0,,0,5,1305469,,0,0,,,,2,1,2,,,,,,,Pictures\green.bmp,9000,10000,Pictures\black.bmp,,,,,,,,,,,,,StimulusPr,Pictures\right.bmp,CuedStim2,Right
POP_2,27034,1,"<?xml version=""1.0""?>\n<Clock xmlns:dt=""urn:schemas-microsoft-com:datatypes""><Description dt:dt=""string"">E-Prime Primary Realtime Clock</Description><StartTime><Timestamp dt:dt=""int"">0</Timestamp><DateUtc dt:dt=""string"">2014-06-02T19:28:13Z</DateUtc></StartTime><FrequencyChanges><FrequencyChange><Frequency dt:dt=""r8"">2793040000</Frequency><Timestamp dt:dt=""r8"">1.2173127631308E+15</Timestamp><Current dt:dt=""r8"">0</Current><DateUtc dt:dt=""string"">2014-06-02T19:28:13Z</DateUtc></FrequencyChange></FrequencyChanges></Clock>\n",60.033,1,-1016424431,0,,-999999,14,22180,t,94726,116906,6/2/2014,12:28:13,7:28:13 PM,2,Session2,SessionsList,0,,-999999,15,768322,t,48137,816459,742268,2,1,2,4,,1282031,,,4,1,4,,,,Cued2,MiniBlocks1,,,,,3,1,r,-999999,6,1331456,r,347,1331803,White,Incongruent,r,Red,0,,0,3,1327458,,0,0,,,,3,1,3,,,,,,,Pictures\red.bmp,3000,2000,Pictures\black.bmp,,,,,,,,,,,,,StimulusPr,Pictures\right.bmp,CuedStim2,Right
POP_2,27034,1,"<?xml version=""1.0""?>\n<Clock xmlns:dt=""urn:schemas-microsoft-com:datatypes""><Description dt:dt=""string"">E-Prime Primary Realtime Clock</Description><StartTime><Timestamp dt:dt=""int"">0</Timestamp><DateUtc dt:dt=""string"">2014-06-02T19:28:13Z</DateUtc></StartTime><FrequencyChanges><FrequencyChange><Frequency dt:dt=""r8"">2793040000</Frequency><Timestamp dt:dt=""r8"">1.2173127631308E+15</Timestamp><Current dt:dt=""r8"">0</Current><DateUtc dt:dt=""string"">2014-06-02T19:28:13Z</DateUtc></FrequencyChange></FrequencyChanges></Clock>\n",60.033,1,-1016424431,0,,-999999,14,22180,t,94726,116906,6/2/2014,12:28:13,7:28:13 PM,2,Session2,SessionsList,0,,-999999,15,768322,t,48137,816459,742268,2,1,2,4,,1282031,,,4,1,4,,,,Cued2,MiniBlocks1,,,,,4,1,r,-999999,11,1342467,r,680,1343147,White,Congruent,r,Green,0,,0,5,1335470,,0,0,,,,4,1,4,,,,,,,Pictures\green.bmp,6000,16000,Pictures\left.bmp,,,,,,,,,,,,,StimulusPr,Pictures\black.bmp,CuedStim2,Left
POP_2,27034,1,"<?xml version=""1.0""?>\n<Clock xmlns:dt=""urn:schemas-microsoft-com:datatypes""><Description dt:dt=""string"">E-Prime Primary Realtime Clock</Description><StartTime><Timestamp dt:dt=""int"">0</Timestamp><DateUtc dt:dt=""string"">2014-06-02T19:28:13Z</DateUtc></StartTime><FrequencyChanges><FrequencyChange><Frequency dt:dt=""r8"">2793040000</Frequency><Timestamp dt:dt=""r8"">1.2173127631308E+15</Timestamp><Current dt:dt=""r8"">0</Current><DateUtc dt:dt=""string"">2014-06-02T19:28:13Z</DateUtc></FrequencyChange></FrequencyChanges></Clock>\n",60.033,1,-1016424431,0,,-999999,14,22180,t,94726,116906,6/2/2014,12:28:13,7:28:13 PM,2,Session2,SessionsList,0,,-999999,15,768322,t,48137,816459,742268,2,1,2,4,,1282031,,,4,1,4,,,,Cued2,MiniBlocks1,,,,,5,1,b,-999999,6,1364456,b,523,1364979,White,Congruent,b,Green,0,,0,4,1360458,,0,0,,,,5,1,5,,,,,,,Pictures\green.bmp,3000,2000,Pictures\black.bmp,,,,,,,,,,,,,StimulusPr,Pictures\right.bmp,CuedStim2,Right
POP_2,27034,1,"<?xml version=""1.0""?>\n<Clock xmlns:dt=""urn:schemas-microsoft-com:datatypes""><Description dt:dt=""string"">E-Prime Primary Realtime Clock</Description><StartTime><Timestamp dt:dt=""int"">0</Timestamp><DateUtc dt:dt=""string"">2014-06-02T19:28:13Z</DateUtc></StartTime><FrequencyChanges><FrequencyChange><Frequency dt:dt=""r8"">2793040000</Frequency><Timestamp dt:dt=""r8"">1.2173127631308E+15</Timestamp><Current dt:dt=""r8"">0</Current><DateUtc dt:dt=""string"">2014-06-02T19:28:13Z</DateUtc></FrequencyChange></FrequencyChanges></Clock>\n",60.033,1,-1016424431,0,,-999999,14,22180,t,94726,116906,6/2/2014,12:28:13,7:28:13 PM,2,Session2,SessionsList,0,,-999999,15,768322,t,48137,816459,742268,2,1,2,4,,1282031,,,4,1,4,,,,Cued2,MiniBlocks1,,,,,6,1,r,-999999,3,1372468,r,322,1372790,White,Congruent,r,Green,0,,0,14,1368470,,0,0,,,,6,1,6,,,,,,,Pictures\green.bmp,3000,2000,Pictures\left.bmp,,,,,,,,,,,,,StimulusPr,Pictures\black.bmp,CuedStim2,Left
POP_2,27034,1,"<?xml version=""1.0""?>\n<Clock xmlns:dt=""urn:schemas-microsoft-com:datatypes""><Description dt:dt=""string"">E-Prime Primary Realtime Clock</Description><StartTime><Timestamp dt:dt=""int"">0</Timestamp><DateUtc dt:dt=""string"">2014-06-02T19:28:13Z</DateUtc></StartTime><FrequencyChanges><FrequencyChange><Frequency dt:dt=""r8"">2793040000</Frequency><Timestamp dt:dt=""r8"">1.2173127631308E+15</Timestamp><Current dt:dt=""r8"">0</Current><DateUtc dt:dt=""string"">2014-06-02T19:28:13Z</DateUtc></FrequencyChange></FrequencyChanges></Clock>\n",60.033,1,-1016424431,0,,-999999,14,22180,t,94726,116906,6/2/2014,12:28:13,7:28:13 PM,2,Session2,SessionsList,0,,-999999,15,768322,t,48137,816459,742268,2,1,2,4,,1282031,,,4,1,4,,,,Cued2,MiniBlocks1,,,,,7,1,b,-999999,16,1383480,b,298,1383778,White,Incongruent,b,Red,0,,0,2,1376467,,0,0,,,,7,1,7,,,,,,,Pictures\red.bmp,6000,4000,Pictures\left.bmp,,,,,,,,,,,,,StimulusPr,Pictures\black.bmp,CuedStim2,Left
POP_2,27034,1,"<?xml version=""1.0""?>\n<Clock xmlns:dt=""urn:schemas-microsoft-com:datatypes""><Description dt:dt=""string"">E-Prime Primary Realtime Clock</Description><StartTime><Timestamp dt:dt=""int"">0</Timestamp><DateUtc dt:dt=""string"">2014-06-02T19:28:13Z</DateUtc></StartTime><FrequencyChanges><FrequencyChange><Frequency dt:dt=""r8"">2793040000</Frequency><Timestamp dt:dt=""r8"">1.2173127631308E+15</Timestamp><Current dt:dt=""r8"">0</Current><DateUtc dt:dt=""string"">2014-06-02T19:28:13Z</DateUtc></FrequencyChange></FrequencyChanges></Clock>\n",60.033,1,-1016424431,0,,-999999,14,22180,t,94726,116906,6/2/2014,12:28:13,7:28:13 PM,2,Session2,SessionsList,0,,-999999,15,768322,t,48137,816459,742268,2,1,2,4,,1282031,,,4,1,4,,,,Cued2,MiniBlocks1,,,,,8,1,b,-999999,10,1394474,b,410,1394884,White,Congruent,b,Green,0,,0,14,1389477,,0,0,,,,8,1,8,,,,,,,Pictures\green.bmp,4000,4000,Pictures\black.bmp,,,,,,,,,,,,,StimulusPr,Pictures\right.bmp,CuedStim2,Right
POP_2,27034,1,"<?xml version=""1.0""?>\n<Clock xmlns:dt=""urn:schemas-microsoft-com:datatypes""><Description dt:dt=""string"">E-Prime Primary Realtime Clock</Description><StartTime><Timestamp dt:dt=""int"">0</Timestamp><DateUtc dt:dt=""string"">2014-06-02T19:28:13Z</DateUtc></StartTime><FrequencyChanges><FrequencyChange><Frequency dt:dt=""r8"">2793040000</Frequency><Timestamp dt:dt=""r8"">1.2173127631308E+15</Timestamp><Current dt:dt=""r8"">0</Current><DateUtc dt:dt=""string"">2014-06-02T19:28:13Z</DateUtc></FrequencyChange></FrequencyChanges></Clock>\n",60.033,1,-1016424431,0,,-999999,14,22180,t,94726,116906,6/2/2014,12:28:13,7:28:13 PM,2,Session2,SessionsList,0,,-999999,15,768322,t,48137,816459,742268,2,1,2,4,,1282031,,,4,1,4,,,,Cued2,MiniBlocks1,,,,,9,1,b,-999999,5,1410466,b,329,1410795,White,Incongruent,b,Red,0,,0,1,1400454,,0,0,,,,9,1,9,,,,,,,Pictures\red.bmp,9000,10000,Pictures\left.bmp,,,,,,,,,,,,,StimulusPr,Pictures\black.bmp,CuedStim2,Left
POP_2,27034,1,"<?xml version=""1.0""?>\n<Clock xmlns:dt=""urn:schemas-microsoft-com:datatypes""><Description dt:dt=""string"">E-Prime Primary Realtime Clock</Description><StartTime><Timestamp dt:dt=""int"">0</Timestamp><DateUtc dt:dt=""string"">2014-06-02T19:28:13Z</DateUtc></StartTime><FrequencyChanges><FrequencyChange><Frequency dt:dt=""r8"">2793040000</Frequency><Timestamp dt:dt=""r8"">1.2173127631308E+15</Timestamp><Current dt:dt=""r8"">0</Current><DateUtc dt:dt=""string"">2014-06-02T19:28:13Z</DateUtc></FrequencyChange></FrequencyChanges></Clock>\n",60.033,1,-1016424431,0,,-999999,14,22180,t,94726,116906,6/2/2014,12:28:13,7:28:13 PM,2,Session2,SessionsList,0,,-999999,15,768322,t,48137,816459,742268,2,1,2,4,,1282031,,,4,1,4,,,,Cued2,MiniBlocks1,,,,,10,0,r,-999999,8,1432472,b,603,1433075,White,Congruent,r,Green,0,,0,13,1422477,,0,0,,,,10,1,10,,,,,,,Pictures\green.bmp,9000,10000,Pictures\left.bmp,,,,,,,,,,,,,StimulusPr,Pictures\black.bmp,CuedStim2,Left
