ExperimentName,Subject,Session,Clock.Information,Display.RefreshRate,Group,RandomSeed,Session1Onset.ACC,Session1Onset.CRESP,Session1Onset.DurationError,Session1Onset.OnsetDelay,Session1Onset.OnsetTime,Session1Onset.RESP,Session1Onset.RT,Session1Onset.RTTime,SessionDate,SessionTime,SessionTimeUtc,Block,Procedure[Block],Running[Block],Session2Onset.ACC,Session2Onset.CRESP,Session2Onset.DurationError,Session2Onset.OnsetDelay,Session2Onset.OnsetTime,Session2Onset.RESP,Session2Onset.RT,Session2Onset.RTTime,SessionBreak.OnsetTime,SessionsList,SessionsList.Cycle,SessionsList.Sample,Trial,CuedPrompt1.OnsetTime,CuedPrompt2.OnsetTime,CuedPrompt3.OnsetTime,CuedPrompt4.OnsetTime,MiniBlocks1,MiniBlocks1.Cycle,MiniBlocks1.Sample,MiniBlocks2,MiniBlocks2.Cycle,MiniBlocks2.Sample,Procedure[Trial],Running[Trial],UncuedPrompt1.OnsetTime,UncuedPrompt2.OnsetTime,UncuedPrompt3.OnsetTime,UncuedPrompt4.OnsetTime,SubTrial,Arrow1.ACC,Arrow1.CRESP,Arrow1.DurationError,Arrow1.OnsetDelay,Arrow1.OnsetTime,Arrow1.RESP,Arrow1.RT,Arrow1.RTTime,ArrowColor,Congruence,CorrectResp,Cue,Cue.ACC,Cue.CRESP,Cue.DurationError,Cue.OnsetDelay,Cue.OnsetTime,Cue.RESP,Cue.RT,Cue.RTTime,CuedStim1,CuedStim1.Cycle,CuedStim1.Sample,CuedStim2,CuedStim2.Cycle,CuedStim2.Sample,CuedStim3,CuedStim3.Cycle,CuedStim3.Sample,CuedStim4,CuedStim4.Cycle,CuedStim4.Sample,CueImage,JitterCue,JitterTrial,LeftImage,NonCuedStim1,NonCuedStim1.Cycle,NonCuedStim1.Sample,NonCuedStim2,NonCuedStim2.Cycle,NonCuedStim2.Sample,NonCuedStim3,NonCuedStim3.Cycle,NonCuedStim3.Sample,NonCuedStim4,NonCuedStim4.Cycle,NonCuedStim4.Sample,Procedure[SubTrial],RightImage,Running[SubTrial],Stimulus
POP_2,27026,1,"<?xml version=""1.0""?>\n<Clock xmlns:dt=""urn:schemas-microsoft-com:datatypes""><Description dt:dt=""string"">E-Prime Primary Realtime Clock</Description><StartTime><Timestamp dt:dt=""int"">0</Timestamp><DateUtc dt:dt=""string"">2014-05-28T21:13:39Z</DateUtc></StartTime><FrequencyChanges><FrequencyChange><Frequency dt:dt=""r8"">2793040000</Frequency><Timestamp dt:dt=""r8"">28378897113758</Timestamp><Current dt:dt=""r8"">0</Current><DateUtc dt:dt=""string"">2014-05-28T21:13:39Z</DateUtc></FrequencyChange></FrequencyChanges></Clock>\n",60.032,1,-2036404827,0,,-999999,15,23438,t,52467,75905,5/28/2014,14:13:39,9:13:39 PM,1,Session1,SessionsList,,,,,,,,,,1,1,1,1,75912,,,,1,1,1,,,,Cued1,MiniBlocks1,,,,,1,1,r,-999999,167,90072,r,604,90676,White,Congruent,r,Green,0,,0,102,85007,,0,0,1,1,1,,,,,,,,,,Pictures\green.bmp,4000,4000,Pictures\left.bmp,,,,,,,,,,,,,StimulusPr,Pictures\black.bmp,CuedStim1,Left
POP_2,27026,1,"<?xml version=""1.0""?>\n<Clock xmlns:dt=""urn:schemas-microsoft-com:datatypes""><Description dt:dt=""string"">E-Prime Primary Realtime Clock</Description><StartTime><Timestamp dt:dt=""int"">0</Timestamp><DateUtc dt:dt=""string"">2014-05-28T21:13:39Z</DateUtc></StartTime><FrequencyChanges><FrequencyChange><Frequency dt:dt=""r8"">2793040000</Frequency><Timestamp dt:dt=""r8"">28378897113758</Timestamp><Current dt:dt=""r8"">0</Current><DateUtc dt:dt=""string"">2014-05-28T21:13:39Z</DateUtc></FrequencyChange></FrequencyChanges></Clock>\n",60.032,1,-2036404827,0,,-999999,15,23438,t,52467,75905,5/28/2014,14:13:39,9:13:39 PM,1,Session1,SessionsList,,,,,,,,,,1,1,1,1,75912,,,,1,1,1,,,,Cued1,MiniBlocks1,,,,,2,1,b,-999999,60,102965,b,328,103293,White,Congruent,b,Green,0,,0,14,95919,,0,0,2,1,2,,,,,,,,,,Pictures\green.bmp,6000,2000,Pictures\black.bmp,,,,,,,,,,,,,StimulusPr,Pictures\right.bmp,CuedStim1,Right
POP_2,27026,1,"<?xml version=""1.0""?>\n<Clock xmlns:dt=""urn:schemas-microsoft-com:datatypes""><Description dt:dt=""string"">E-Prime Primary Realtime Clock</Description><StartTime><Timestamp dt:dt=""int"">0</Timestamp><DateUtc dt:dt=""string"">2014-05-28T21:13:39Z</DateUtc></StartTime><FrequencyChanges><FrequencyChange><Frequency dt:dt=""r8"">2793040000</Frequency><Timestamp dt:dt=""r8"">28378897113758</Timestamp><Current dt:dt=""r8"">0</Current><DateUtc dt:dt=""string"">2014-05-28T21:13:39Z</DateUtc></FrequencyChange></FrequencyChanges></Clock>\n",60.032,1,-2036404827,0,,-999999,15,23438,t,52467,75905,5/28/2014,14:13:39,9:13:39 PM,1,Session1,SessionsList,,,,,,,,,,1,1,1,1,75912,,,,1,1,1,,,,Cued1,MiniBlocks1,,,,,3,1,b,-999999,6,110911,b,458,111369,White,Congruent,b,Green,0,,0,8,106913,,0,0,3,1,3,,,,,,,,,,Pictures\green.bmp,3000,2000,Pictures\black.bmp,,,,,,,,,,,,,StimulusPr,Pictures\right.bmp,CuedStim1,Right
POP_2,27026,1,"<?xml version=""1.0""?>\n<Clock xmlns:dt=""urn:schemas-microsoft-com:datatypes""><Description dt:dt=""string"">E-Prime Primary Realtime Clock</Description><StartTime><Timestamp dt:dt=""int"">0</Timestamp><DateUtc dt:dt=""string"">2014-05-28T21:13:39Z</DateUtc></StartTime><FrequencyChanges><FrequencyChange><Frequency dt:dt=""r8"">2793040000</Frequency><Timestamp dt:dt=""r8"">28378897113758</Timestamp><Current dt:dt=""r8"">0</Current><DateUtc dt:dt=""string"">2014-05-28T21:13:39Z</DateUtc></FrequencyChange></FrequencyChanges></Clock>\n",60.032,1,-2036404827,0,,-999999,15,23438,t,52467,75905,5/28/2014,14:13:39,9:13:39 PM,1,Session1,SessionsList,,,,,,,,,,1,1,1,1,75912,,,,1,1,1,,,,Cued1,MiniBlocks1,,,,,4,1,b,-999999,19,118924,b,478,119402,White,Incongruent,b,Red,0,,0,71,114976,,0,0,4,1,4,,,,,,,,,,Pictures\red.bmp,3000,16000,Pictures\left.bmp,,,,,,,,,,,,,StimulusPr,Pictures\black.bmp,CuedStim1,Left
POP_2,27026,1,"<?xml version=""1.0""?>\n<Clock xmlns:dt=""urn:schemas-microsoft-com:datatypes""><Description dt:dt=""string"">E-Prime Primary Realtime Clock</Description><StartTime><Timestamp dt:dt=""int"">0</Timestamp><DateUtc dt:dt=""string"">2014-05-28T21:13:39Z</DateUtc></StartTime><FrequencyChanges><FrequencyChange><Frequency dt:dt=""r8"">2793040000</Frequency><Timestamp dt:dt=""r8"">28378897113758</Timestamp><Current dt:dt=""r8"">0</Current><DateUtc dt:dt=""string"">2014-05-28T21:13:39Z</DateUtc></FrequencyChange></FrequencyChanges></Clock>\n",60.032,1,-2036404827,0,,-999999,15,23438,t,52467,75905,5/28/2014,14:13:39,9:13:39 PM,1,Session1,SessionsList,,,,,,,,,,1,1,1,1,75912,,,,1,1,1,,,,Cued1,MiniBlocks1,,,,,5,1,r,-999999,8,140913,r,456,141369,White,Congruent,r,Green,0,,0,10,136915,,0,0,5,1,5,,,,,,,,,,Pictures\green.bmp,3000,16000,Pictures\left.bmp,,,,,,,,,,,,,StimulusPr,Pictures\black.bmp,CuedStim1,Left
POP_2,27026,1,"<?xml version=""1.0""?>\n<Clock xmlns:dt=""urn:schemas-microsoft-com:datatypes""><Description dt:dt=""string"">E-Prime Primary Realtime Clock</Description><StartTime><Timestamp dt:dt=""int"">0</Timestamp><DateUtc dt:dt=""string"">2014-05-28T21:13:39Z</DateUtc></StartTime><FrequencyChanges><FrequencyChange><Frequency dt:dt=""r8"">2793040000</Frequency><Timestamp dt:dt=""r8"">28378897113758</Timestamp><Current dt:dt=""r8"">0</Current><DateUtc dt:dt=""string"">2014-05-28T21:13:39Z</DateUtc></FrequencyChange></FrequencyChanges></Clock>\n",60.032,1,-2036404827,0,,-999999,15,23438,t,52467,75905,5/28/2014,14:13:39,9:13:39 PM,1,Session1,SessionsList,,,,,,,,,,1,1,1,1,75912,,,,1,1,1,,,,Cued1,MiniBlocks1,,,,,6,1,r,-999999,10,168915,r,723,169638,White,Congruent,r,Green,0,,0,15,158920,,0,0,6,1,6,,,,,,,,,,Pictures\green.bmp,9000,10000,Pictures\left.bmp,,,,,,,,,,,,,StimulusPr,Pictures\black.bmp,CuedStim1,Left
POP_2,27026,1,"<?xml version=""1.0""?>\n<Clock xmlns:dt=""urn:schemas-microsoft-com:datatypes""><Description dt:dt=""string"">E-Prime Primary Realtime Clock</Description><StartTime><Timestamp dt:dt=""int"">0</Timestamp><DateUtc dt:dt=""string"">2014-05-28T21:13:39Z</DateUtc></StartTime><FrequencyChanges><FrequencyChange><Frequency dt:dt=""r8"">2793040000</Frequency><Timestamp dt:dt=""r8"">28378897113758</Timestamp><Current dt:dt=""r8"">0</Current><DateUtc dt:dt=""string"">2014-05-28T21:13:39Z</DateUtc></FrequencyChange></FrequencyChanges></Clock>\n",60.032,1,-2036404827,0,,-999999,15,23438,t,52467,75905,5/28/2014,14:13:39,9:13:39 PM,1,Session1,SessionsList,,,,,,,,,,1,1,1,1,75912,,,,1,1,1,,,,Cued1,MiniBlocks1,,,,,7,1,b,-999999,2,184907,b,343,185250,White,Congruent,b,Green,0,,0,5,180909,,0,0,7,1,7,,,,,,,,,,Pictures\green.bmp,3000,16000,Pictures\black.bmp,,,,,,,,,,,,,StimulusPr,Pictures\right.bmp,CuedStim1,Right
POP_2,27026,1,"<?xml version=""1.0""?>\n<Clock xmlns:dt=""urn:schemas-microsoft-com:datatypes""><Description dt:dt=""string"">E-Prime Primary Realtime Clock</Description><StartTime><Timestamp dt:dt=""int"">0</Timestamp><DateUtc dt:dt=""string"">2014-05-28T21:13:39Z</DateUtc></StartTime><FrequencyChanges><FrequencyChange><Frequency dt:dt=""r8"">2793040000</Frequency><Timestamp dt:dt=""r8"">28378897113758</Timestamp><Current dt:dt=""r8"">0</Current><DateUtc dt:dt=""string"">2014-05-28T21:13:39Z</DateUtc></FrequencyChange></FrequencyChanges></Clock>\n",60.032,1,-2036404827,0,,-999999,15,23438,t,52467,75905,5/28/2014,14:13:39,9:13:39 PM,1,Session1,SessionsList,,,,,,,,,,1,1,1,1,75912,,,,1,1,1,,,,Cued1,MiniBlocks1,,,,,8,1,r,-999999,7,207912,r,485,208397,White,Incongruent,r,Red,0,,0,10,202915,,0,0,8,1,8,,,,,,,,,,Pictures\red.bmp,4000,2000,Pictures\black.bmp,,,,,,,,,,,,,StimulusPr,Pictures\right.bmp,CuedStim1,Right
POP_2,27026,1,"<?xml version=""1.0""?>\n<Clock xmlns:dt=""urn:schemas-microsoft-com:datatypes""><Description dt:dt=""string"">E-Prime Primary Realtime Clock</Description><StartTime><Timestamp dt:dt=""int"">0</Timestamp><DateUtc dt:dt=""string"">2014-05-28T21:13:39Z</DateUtc></StartTime><FrequencyChanges><FrequencyChange><Frequency dt:dt=""r8"">2793040000</Frequency><Timestamp dt:dt=""r8"">28378897113758</Timestamp><Current dt:dt=""r8"">0</Current><DateUtc dt:dt=""string"">2014-05-28T21:13:39Z</DateUtc></FrequencyChange></FrequencyChanges></Clock>\n",60.032,1,-2036404827,0,,-999999,15,23438,t,52467,75905,5/28/2014,14:13:39,9:13:39 PM,1,Session1,SessionsList,,,,,,,,,,1,1,1,1,75912,,,,1,1,1,,,,Cued1,MiniBlocks1,,,,,9,1,b,-999999,3,216908,b,418,217326,White,Congruent,b,Green,0,,0,11,211910,,0,0,9,1,9,,,,,,,,,,Pictures\green.bmp,4000,2000,Pictures\black.bmp,,,,,,,,,,,,,StimulusPr,Pictures\right.bmp,CuedStim1,Right
POP_2,27026,1,"<?xml version=""1.0""?>\n<Clock xmlns:dt=""urn:schemas-microsoft-com:datatypes""><Description dt:dt=""string"">E-Prime Primary Realtime Clock</Description><StartTime><Timestamp dt:dt=""int"">0</Timestamp><DateUtc dt:dt=""string"">2014-05-28T21:13:39Z</DateUtc></StartTime><FrequencyChanges><FrequencyChange><Frequency dt:dt=""r8"">2793040000</Frequency><Timestamp dt:dt=""r8"">28378897113758</Timestamp><Current dt:dt=""r8"">0</Current><DateUtc dt:dt=""string"">2014-05-28T21:13:39Z</DateUtc></FrequencyChange></FrequencyChanges></Clock>\n",60.032,1,-2036404827,0,,-999999,15,23438,t,52467,75905,5/28/2014,14:13:39,9:13:39 PM,1,Session1,SessionsList,,,,,,,,,,1,1,1,1,75912,,,,1,1,1,,,,Cued1,MiniBlocks1,,,,,10,1,r,-999999,8,224904,r,533,225437,White,Congruent,r,Green,0,,0,17,220922,,0,0,10,1,10,,,,,,,,,,Pictures\green.bmp,3000,2000,Pictures\left.bmp,,,,,,,,,,,,,StimulusPr,Pictures\black.bmp,CuedStim1,Left
POP_2,27026,1,"<?xml version=""1.0""?>\n<Clock xmlns:dt=""urn:schemas-microsoft-com:datatypes""><Description dt:dt=""string"">E-Prime Primary Realtime Clock</Description><StartTime><Timestamp dt:dt=""int"">0</Timestamp><DateUtc dt:dt=""string"">2014-05-28T21:13:39Z</DateUtc></StartTime><FrequencyChanges><FrequencyChange><Frequency dt:dt=""r8"">2793040000</Frequency><Timestamp dt:dt=""r8"">28378897113758</Timestamp><Current dt:dt=""r8"">0</Current><DateUtc dt:dt=""string"">2014-05-28T21:13:39Z</DateUtc></FrequencyChange></FrequencyChanges></Clock>\n",60.032,1,-2036404827,0,,-999999,15,23438,t,52467,75905,5/28/2014,14:13:39,9:13:39 PM,1,Session1,SessionsList,,,,,,,,,,1,1,1,2,,,,,2,1,2,,,,NonCued1,MiniBlocks1,227469,,,,1,1,r,-999999,74,242978,r,452,243430,Green,Congruent,r,White,0,,0,64,237964,,0,0,,,,,,,,,,,,,Pictures\white.bmp,4000,2000,Pictures\GreenLeft.bmp,1,1,1,,,,,,,,,,StimulusPr,Pictures\black.bmp,NonCuedStim1,Left
POP_2,27026,1,"<?xml version=""1.0""?>\n<Clock xmlns:dt=""urn:schemas-microsoft-com:datatypes""><Description dt:dt=""string"">E-Prime Primary Realtime Clock</Description><StartTime><Timestamp dt:dt=""int"">0</Timestamp><DateUtc dt:dt=""string"">2014-05-28T21:13:39Z</DateUtc></StartTime><FrequencyChanges><FrequencyChange><Frequency dt:dt=""r8"">2793040000</Frequency><Timestamp dt:dt=""r8"">28378897113758</Timestamp><Current dt:dt=""r8"">0</Current><DateUtc dt:dt=""string"">2014-05-28T21:13:39Z</DateUtc></FrequencyChange></FrequencyChanges></Clock>\n",60.032,1,-2036404827,0,,-999999,15,23438,t,52467,75905,5/28/2014,14:13:39,9:13:39 PM,1,Session1,SessionsList,,,,,,,,,,1,1,1,2,,,,,2,1,2,,,,NonCued1,MiniBlocks1,227469,,,,2,1,b,-999999,68,253972,b,667,254639,Green,Congruent,b,White,0,,0,5,246909,,0,0,,,,,,,,,,,,,Pictures\white.bmp,6000,16000,Pictures\black.bmp,2,1,2,,,,,,,,,,StimulusPr,Pictures\GreenRight.bmp,NonCuedStim1,Right
POP_2,27026,1,"<?xml version=""1.0""?>\n<Clock xmlns:dt=""urn:schemas-microsoft-com:datatypes""><Description dt:dt=""string"">E-Prime Primary Realtime Clock</Description><StartTime><Timestamp dt:dt=""int"">0</Timestamp><DateUtc dt:dt=""string"">2014-05-28T21:13:39Z</DateUtc></StartTime><FrequencyChanges><FrequencyChange><Frequency dt:dt=""r8"">2793040000</Frequency><Timestamp dt:dt=""r8"">28378897113758</Timestamp><Current dt:dt=""r8"">0</Current><DateUtc dt:dt=""string"">2014-05-28T21:13:39Z</DateUtc></FrequencyChange></FrequencyChanges></Clock>\n",60.032,1,-2036404827,0,,-999999,15,23438,t,52467,75905,5/28/2014,14:13:39,9:13:39 PM,1,Session1,SessionsList,,,,,,,,,,1,1,1,2,,,,,2,1,2,,,,NonCued1,MiniBlocks1,227469,,,,3,1,r,-999999,39,278943,r,678,279621,Red,Incongruent,r,White,0,,0,9,271913,,0,0,,,,,,,,,,,,,Pictures\white.bmp,6000,10000,Pictures\black.bmp,3,1,3,,,,,,,,,,StimulusPr,Pictures\RedRight.bmp,NonCuedStim1,Right
POP_2,27026,1,"<?xml version=""1.0""?>\n<Clock xmlns:dt=""urn:schemas-microsoft-com:datatypes""><Description dt:dt=""string"">E-Prime Primary Realtime Clock</Description><StartTime><Timestamp dt:dt=""int"">0</Timestamp><DateUtc dt:dt=""string"">2014-05-28T21:13:39Z</DateUtc></StartTime><FrequencyChanges><FrequencyChange><Frequency dt:dt=""r8"">2793040000</Frequency><Timestamp dt:dt=""r8"">28378897113758</Timestamp><Current dt:dt=""r8"">0</Current><DateUtc dt:dt=""string"">2014-05-28T21:13:39Z</DateUtc></FrequencyChange></FrequencyChanges></Clock>\n",60.032,1,-2036404827,0,,-999999,15,23438,t,52467,75905,5/28/2014,14:13:39,9:13:39 PM,1,Session1,SessionsList,,,,,,,,,,1,1,1,2,,,,,2,1,2,,,,NonCued1,MiniBlocks1,227469,,,,4,1,r,-999999,11,300915,r,714,301629,Green,Congruent,r,White,0,,0,17,290921,,0,0,,,,,,,,,,,,,Pictures\white.bmp,9000,10000,Pictures\GreenLeft.bmp,4,1,4,,,,,,,,,,StimulusPr,Pictures\black.bmp,NonCuedStim1,Left
POP_2,27026,1,"<?xml version=""1.0""?>\n<Clock xmlns:dt=""urn:schemas-microsoft-com:datatypes""><Description dt:dt=""string"">E-Prime Primary Realtime Clock</Description><StartTime><Timestamp dt:dt=""int"">0</Timestamp><DateUtc dt:dt=""string"">2014-05-28T21:13:39Z</DateUtc></StartTime><FrequencyChanges><FrequencyChange><Frequency dt:dt=""r8"">2793040000</Frequency><Timestamp dt:dt=""r8"">28378897113758</Timestamp><Current dt:dt=""r8"">0</Current><DateUtc dt:dt=""string"">2014-05-28T21:13:39Z</DateUtc></FrequencyChange></FrequencyChanges></Clock>\n",60.032,1,-2036404827,0,,-999999,15,23438,t,52467,75905,5/28/2014,14:13:39,9:13:39 PM,1,Session1,SessionsList,,,,,,,,,,1,1,1,2,,,,,2,1,2,,,,NonCued1,MiniBlocks1,227469,,,,5,1,b,-999999,3,316907,b,515,317422,Green,Congruent,b,White,0,,0,5,312909,,0,0,,,,,,,,,,,,,Pictures\white.bmp,3000,2000,Pictures\black.bmp,5,1,5,,,,,,,,,,StimulusPr,Pictures\GreenRight.bmp,NonCuedStim1,Right
POP_2,27026,1,"<?xml version=""1.0""?>\n<Clock xmlns:dt=""urn:schemas-microsoft-com:datatypes""><Description dt:dt=""string"">E-Prime Primary Realtime Clock</Description><StartTime><Timestamp dt:dt=""int"">0</Timestamp><DateUtc dt:dt=""string"">2014-05-28T21:13:39Z</DateUtc></StartTime><FrequencyChanges><FrequencyChange><Frequency dt:dt=""r8"">2793040000</Frequency><Timestamp dt:dt=""r8"">28378897113758</Timestamp><Current dt:dt=""r8"">0</Current><DateUtc dt:dt=""string"">2014-05-28T21:13:39Z</DateUtc></FrequencyChange></FrequencyChanges></Clock>\n",60.032,1,-2036404827,0,,-999999,15,23438,t,52467,75905,5/28/2014,14:13:39,9:13:39 PM,1,Session1,SessionsList,,,,,,,,,,1,1,1,2,,,,,2,1,2,,,,NonCued1,MiniBlocks1,227469,,,,6,1,b,-999999,49,325953,b,549,326502,Red,Incongruent,b,White,0,,0,2,320906,,0,0,,,,,,,,,,,,,Pictures\white.bmp,4000,16000,Pictures\RedLeft.bmp,6,1,6,,,,,,,,,,StimulusPr,Pictures\black.bmp,NonCuedStim1,Left
POP_2,27026,1,"<?xml version=""1.0""?>\n<Clock xmlns:dt=""urn:schemas-microsoft-com:datatypes""><Description dt:dt=""string"">E-Prime Primary Realtime Clock</Description><StartTime><Timestamp dt:dt=""int"">0</Timestamp><DateUtc dt:dt=""string"">2014-05-28T21:13:39Z</DateUtc></StartTime><FrequencyChanges><FrequencyChange><Frequency dt:dt=""r8"">2793040000</Frequency><Timestamp dt:dt=""r8"">28378897113758</Timestamp><Current dt:dt=""r8"">0</Current><DateUtc dt:dt=""string"">2014-05-28T21:13:39Z</DateUtc></FrequencyChange></FrequencyChanges></Clock>\n",60.032,1,-2036404827,0,,-999999,15,23438,t,52467,75905,5/28/2014,14:13:39,9:13:39 PM,1,Session1,SessionsList,,,,,,,,,,1,1,1,2,,,,,2,1,2,,,,NonCued1,MiniBlocks1,227469,,,,7,1,b,-999999,5,347909,b,840,348749,Green,Congruent,b,White,0,,0,10,343911,,0,0,,,,,,,,,,,,,Pictures\white.bmp,3000,4000,Pictures\black.bmp,7,1,7,,,,,,,,,,StimulusPr,Pictures\GreenRight.bmp,NonCuedStim1,Right
POP_2,27026,1,"<?xml version=""1.0""?>\n<Clock xmlns:dt=""urn:schemas-microsoft-com:datatypes""><Description dt:dt=""string"">E-Prime Primary Realtime Clock</Description><StartTime><Timestamp dt:dt=""int"">0</Timestamp><DateUtc dt:dt=""string"">2014-05-28T21:13:39Z</DateUtc></StartTime><FrequencyChanges><FrequencyChange><Frequency dt:dt=""r8"">2793040000</Frequency><Timestamp dt:dt=""r8"">28378897113758</Timestamp><Current dt:dt=""r8"">0</Current><DateUtc dt:dt=""string"">2014-05-28T21:13:39Z</DateUtc></FrequencyChange></FrequencyChanges></Clock>\n",60.032,1,-2036404827,0,,-999999,15,23438,t,52467,75905,5/28/2014,14:13:39,9:13:39 PM,1,Session1,SessionsList,,,,,,,,,,1,1,1,2,,,,,2,1,2,,,,NonCued1,MiniBlocks1,227469,,,,8,1,b,-999999,16,357920,b,500,358420,Green,Congruent,b,White,0,,0,18,353922,,0,0,,,,,,,,,,,,,Pictures\white.bmp,3000,4000,Pictures\black.bmp,8,1,8,,,,,,,,,,StimulusPr,Pictures\GreenRight.bmp,NonCuedStim1,Right
POP_2,27026,1,"<?xml version=""1.0""?>\n<Clock xmlns:dt=""urn:schemas-microsoft-com:datatypes""><Description dt:dt=""string"">E-Prime Primary Realtime Clock</Description><StartTime><Timestamp dt:dt=""int"">0</Timestamp><DateUtc dt:dt=""string"">2014-05-28T21:13:39Z</DateUtc></StartTime><FrequencyChanges><FrequencyChange><Frequency dt:dt=""r8"">2793040000</Frequency><Timestamp dt:dt=""r8"">28378897113758</Timestamp><Current dt:dt=""r8"">0</Current><DateUtc dt:dt=""string"">2014-05-28T21:13:39Z</DateUtc></FrequencyChange></FrequencyChanges></Clock>\n",60.032,1,-2036404827,0,,-999999,15,23438,t,52467,75905,5/28/2014,14:13:39,9:13:39 PM,1,Session1,SessionsList,,,,,,,,,,1,1,1,2,,,,,2,1,2,,,,NonCued1,MiniBlocks1,227469,,,,9,1,b,-999999,8,373912,b,456,374368,Red,Incongruent,b,White,0,,0,13,363917,,0,0,,,,,,,,,,,,,Pictures\white.bmp,9000,2000,Pictures\RedLeft.bmp,9,1,9,,,,,,,,,,StimulusPr,Pictures\black.bmp,NonCuedStim1,Left
POP_2,27026,1,"<?xml version=""1.0""?>\n<Clock xmlns:dt=""urn:schemas-microsoft-com:datatypes""><Description dt:dt=""string"">E-Prime Primary Realtime Clock</Description><StartTime><Timestamp dt:dt=""int"">0</Timestamp><DateUtc dt:dt=""string"">2014-05-28T21:13:39Z</DateUtc></StartTime><FrequencyChanges><FrequencyChange><Frequency dt:dt=""r8"">2793040000</Frequency><Timestamp dt:dt=""r8"">28378897113758</Timestamp><Current dt:dt=""r8"">0</Current><DateUtc dt:dt=""string"">2014-05-28T21:13:39Z</DateUtc></FrequencyChange></FrequencyChanges></Clock>\n",60.032,1,-2036404827,0,,-999999,15,23438,t,52467,75905,5/28/2014,14:13:39,9:13:39 PM,1,Session1,SessionsList,,,,,,,,,,1,1,1,2,,,,,2,1,2,,,,NonCued1,MiniBlocks1,227469,,,,10,1,r,-999999,3,384907,r,708,385615,Green,Congruent,r,White,0,,0,6,377910,,0,0,,,,,,,,,,,,,Pictures\white.bmp,6000,2000,Pictures\GreenLeft.bmp,10,1,10,,,,,,,,,,StimulusPr,Pictures\black.bmp,NonCuedStim1,Left
POP_2,27026,1,"<?xml version=""1.0""?>\n<Clock xmlns:dt=""urn:schemas-microsoft-com:datatypes""><Description dt:dt=""string"">E-Prime Primary Realtime Clock</Description><StartTime><Timestamp dt:dt=""int"">0</Timestamp><DateUtc dt:dt=""string"">2014-05-28T21:13:39Z</DateUtc></StartTime><FrequencyChanges><FrequencyChange><Frequency dt:dt=""r8"">2793040000</Frequency><Timestamp dt:dt=""r8"">28378897113758</Timestamp><Current dt:dt=""r8"">0</Current><DateUtc dt:dt=""string"">2014-05-28T21:13:39Z</DateUtc></FrequencyChange></FrequencyChanges></Clock>\n",60.032,1,-2036404827,0,,-999999,15,23438,t,52467,75905,5/28/2014,14:13:39,9:13:39 PM,1,Session1,SessionsList,,,,,,,,,,1,1,1,3,,,,,3,1,3,,,,NonCued2,MiniBlocks1,,387639,,,1,1,b,-999999,8,407912,b,630,408542,Green,Congruent,b,White,0,,0,13,397917,,0,0,,,,,,,,,,,,,Pictures\white.bmp,9000,10000,Pictures\black.bmp,,,,1,1,1,,,,,,,StimulusPr,Pictures\GreenRight.bmp,NonCuedStim2,Right
POP_2,27026,1,"<?xml version=""1.0""?>\n<Clock xmlns:dt=""urn:schemas-microsoft-com:datatypes""><Description dt:dt=""string"">E-Prime Primary Realtime Clock</Description><StartTime><Timestamp dt:dt=""int"">0</Timestamp><DateUtc dt:dt=""string"">2014-05-28T21:13:39Z</DateUtc></StartTime><FrequencyChanges><FrequencyChange><Frequency dt:dt=""r8"">2793040000</Frequency><Timestamp dt:dt=""r8"">28378897113758</Timestamp><Current dt:dt=""r8"">0</Current><DateUtc dt:dt=""string"">2014-05-28T21:13:39Z</DateUtc></FrequencyChange></FrequencyChanges></Clock>\n",60.032,1,-2036404827,0,,-999999,15,23438,t,52467,75905,5/28/2014,14:13:39,9:13:39 PM,1,Session1,SessionsList,,,,,,,,,,1,1,1,3,,,,,3,1,3,,,,NonCued2,MiniBlocks1,,387639,,,2,1,r,-999999,17,423920,r,712,424632,Green,Congruent,r,White,0,,0,2,419906,,0,0,,,,,,,,,,,,,Pictures\white.bmp,3000,2000,Pictures\GreenLeft.bmp,,,,2,1,2,,,,,,,StimulusPr,Pictures\black.bmp,NonCuedStim2,Left
POP_2,27026,1,"<?xml version=""1.0""?>\n<Clock xmlns:dt=""urn:schemas-microsoft-com:datatypes""><Description dt:dt=""string"">E-Prime Primary Realtime Clock</Description><StartTime><Timestamp dt:dt=""int"">0</Timestamp><DateUtc dt:dt=""string"">2014-05-28T21:13:39Z</DateUtc></StartTime><FrequencyChanges><FrequencyChange><Frequency dt:dt=""r8"">2793040000</Frequency><Timestamp dt:dt=""r8"">28378897113758</Timestamp><Current dt:dt=""r8"">0</Current><DateUtc dt:dt=""string"">2014-05-28T21:13:39Z</DateUtc></FrequencyChange></FrequencyChanges></Clock>\n",60.032,1,-2036404827,0,,-999999,15,23438,t,52467,75905,5/28/2014,14:13:39,9:13:39 PM,1,Session1,SessionsList,,,,,,,,,,1,1,1,3,,,,,3,1,3,,,,NonCued2,MiniBlocks1,,387639,,,3,1,r,-999999,12,431916,r,647,432563,Red,Incongruent,r,White,0,,0,8,427902,,0,0,,,,,,,,,,,,,Pictures\white.bmp,3000,2000,Pictures\black.bmp,,,,3,1,3,,,,,,,StimulusPr,Pictures\RedRight.bmp,NonCuedStim2,Right
POP_2,27026,1,"<?xml version=""1.0""?>\n<Clock xmlns:dt=""urn:schemas-microsoft-com:datatypes""><Description dt:dt=""string"">E-Prime Primary Realtime Clock</Description><StartTime><Timestamp dt:dt=""int"">0</Timestamp><DateUtc dt:dt=""string"">2014-05-28T21:13:39Z</DateUtc></StartTime><FrequencyChanges><FrequencyChange><Frequency dt:dt=""r8"">2793040000</Frequency><Timestamp dt:dt=""r8"">28378897113758</Timestamp><Current dt:dt=""r8"">0</Current><DateUtc dt:dt=""string"">2014-05-28T21:13:39Z</DateUtc></FrequencyChange></FrequencyChanges></Clock>\n",60.032,1,-2036404827,0,,-999999,15,23438,t,52467,75905,5/28/2014,14:13:39,9:13:39 PM,1,Session1,SessionsList,,,,,,,,,,1,1,1,3,,,,,3,1,3,,,,NonCued2,MiniBlocks1,,387639,,,4,1,r,-999999,17,440912,r,631,441543,Green,Congruent,r,White,0,,0,8,435898,,0,0,,,,,,,,,,,,,Pictures\white.bmp,4000,16000,Pictures\GreenLeft.bmp,,,,4,1,4,,,,,,,StimulusPr,Pictures\black.bmp,NonCuedStim2,Left
POP_2,27026,1,"<?xml version=""1.0""?>\n<Clock xmlns:dt=""urn:schemas-microsoft-com:datatypes""><Description dt:dt=""string"">E-Prime Primary Realtime Clock</Description><StartTime><Timestamp dt:dt=""int"">0</Timestamp><DateUtc dt:dt=""string"">2014-05-28T21:13:39Z</DateUtc></StartTime><FrequencyChanges><FrequencyChange><Frequency dt:dt=""r8"">2793040000</Frequency><Timestamp dt:dt=""r8"">28378897113758</Timestamp><Current dt:dt=""r8"">0</Current><DateUtc dt:dt=""string"">2014-05-28T21:13:39Z</DateUtc></FrequencyChange></FrequencyChanges></Clock>\n",60.032,1,-2036404827,0,,-999999,15,23438,t,52467,75905,5/28/2014,14:13:39,9:13:39 PM,1,Session1,SessionsList,,,,,,,,,,1,1,1,3,,,,,3,1,3,,,,NonCued2,MiniBlocks1,,387639,,,5,1,r,-999999,8,465899,r,468,466367,Green,Congruent,r,White,0,,0,16,458919,,0,0,,,,,,,,,,,,,Pictures\white.bmp,6000,4000,Pictures\GreenLeft.bmp,,,,5,1,5,,,,,,,StimulusPr,Pictures\black.bmp,NonCuedStim2,Left
POP_2,27026,1,"<?xml version=""1.0""?>\n<Clock xmlns:dt=""urn:schemas-microsoft-com:datatypes""><Description dt:dt=""string"">E-Prime Primary Realtime Clock</Description><StartTime><Timestamp dt:dt=""int"">0</Timestamp><DateUtc dt:dt=""string"">2014-05-28T21:13:39Z</DateUtc></StartTime><FrequencyChanges><FrequencyChange><Frequency dt:dt=""r8"">2793040000</Frequency><Timestamp dt:dt=""r8"">28378897113758</Timestamp><Current dt:dt=""r8"">0</Current><DateUtc dt:dt=""string"">2014-05-28T21:13:39Z</DateUtc></FrequencyChange></FrequencyChanges></Clock>\n",60.032,1,-2036404827,0,,-999999,15,23438,t,52467,75905,5/28/2014,14:13:39,9:13:39 PM,1,Session1,SessionsList,,,,,,,,,,1,1,1,3,,,,,3,1,3,,,,NonCued2,MiniBlocks1,,387639,,,6,1,b,-999999,8,475911,b,594,476505,Red,Incongruent,b,White,0,,0,10,471913,,0,0,,,,,,,,,,,,,Pictures\white.bmp,3000,4000,Pictures\RedLeft.bmp,,,,6,1,6,,,,,,,StimulusPr,Pictures\black.bmp,NonCuedStim2,Left
POP_2,27026,1,"<?xml version=""1.0""?>\n<Clock xmlns:dt=""urn:schemas-microsoft-com:datatypes""><Description dt:dt=""string"">E-Prime Primary Realtime Clock</Description><StartTime><Timestamp dt:dt=""int"">0</Timestamp><DateUtc dt:dt=""string"">2014-05-28T21:13:39Z</DateUtc></StartTime><FrequencyChanges><FrequencyChange><Frequency dt:dt=""r8"">2793040000</Frequency><Timestamp dt:dt=""r8"">28378897113758</Timestamp><Current dt:dt=""r8"">0</Current><DateUtc dt:dt=""string"">2014-05-28T21:13:39Z</DateUtc></FrequencyChange></FrequencyChanges></Clock>\n",60.032,1,-2036404827,0,,-999999,15,23438,t,52467,75905,5/28/2014,14:13:39,9:13:39 PM,1,Session1,SessionsList,,,,,,,,,,1,1,1,3,,,,,3,1,3,,,,NonCued2,MiniBlocks1,,387639,,,7,1,b,-999999,3,486906,b,759,487665,Green,Congruent,b,White,0,,0,14,481908,,0,0,,,,,,,,,,,,,Pictures\white.bmp,4000,16000,Pictures\black.bmp,,,,7,1,7,,,,,,,StimulusPr,Pictures\GreenRight.bmp,NonCuedStim2,Right
POP_2,27026,1,"<?xml version=""1.0""?>\n<Clock xmlns:dt=""urn:schemas-microsoft-com:datatypes""><Description dt:dt=""string"">E-Prime Primary Realtime Clock</Description><StartTime><Timestamp dt:dt=""int"">0</Timestamp><DateUtc dt:dt=""string"">2014-05-28T21:13:39Z</DateUtc></StartTime><FrequencyChanges><FrequencyChange><Frequency dt:dt=""r8"">2793040000</Frequency><Timestamp dt:dt=""r8"">28378897113758</Timestamp><Current dt:dt=""r8"">0</Current><DateUtc dt:dt=""string"">2014-05-28T21:13:39Z</DateUtc></FrequencyChange></FrequencyChanges></Clock>\n",60.032,1,-2036404827,0,,-999999,15,23438,t,52467,75905,5/28/2014,14:13:39,9:13:39 PM,1,Session1,SessionsList,,,,,,,,,,1,1,1,3,,,,,3,1,3,,,,NonCued2,MiniBlocks1,,387639,,,8,1,r,-999999,5,514908,r,420,515328,Green,Congruent,r,White,0,,0,10,504913,,0,0,,,,,,,,,,,,,Pictures\white.bmp,9000,2000,Pictures\GreenLeft.bmp,,,,8,1,8,,,,,,,StimulusPr,Pictures\black.bmp,NonCuedStim2,Left
POP_2,27026,1,"<?xml version=""1.0""?>\n<Clock xmlns:dt=""urn:schemas-microsoft-com:datatypes""><Description dt:dt=""string"">E-Prime Primary Realtime Clock</Description><StartTime><Timestamp dt:dt=""int"">0</Timestamp><DateUtc dt:dt=""string"">2014-05-28T21:13:39Z</DateUtc></StartTime><FrequencyChanges><FrequencyChange><Frequency dt:dt=""r8"">2793040000</Frequency><Timestamp dt:dt=""r8"">28378897113758</Timestamp><Current dt:dt=""r8"">0</Current><DateUtc dt:dt=""string"">2014-05-28T21:13:39Z</DateUtc></FrequencyChange></FrequencyChanges></Clock>\n",60.032,1,-2036404827,0,,-999999,15,23438,t,52467,75905,5/28/2014,14:13:39,9:13:39 PM,1,Session1,SessionsList,,,,,,,,,,1,1,1,3,,,,,3,1,3,,,,NonCued2,MiniBlocks1,,387639,,,9,1,b,-999999,10,522904,b,435,523339,Green,Congruent,b,White,0,,0,3,518906,,0,0,,,,,,,,,,,,,Pictures\white.bmp,3000,10000,Pictures\black.bmp,,,,9,1,9,,,,,,,StimulusPr,Pictures\GreenRight.bmp,NonCuedStim2,Right
POP_2,27026,1,"<?xml version=""1.0""?>\n<Clock xmlns:dt=""urn:schemas-microsoft-com:datatypes""><Description dt:dt=""string"">E-Prime Primary Realtime Clock</Description><StartTime><Timestamp dt:dt=""int"">0</Timestamp><DateUtc dt:dt=""string"">2014-05-28T21:13:39Z</DateUtc></StartTime><FrequencyChanges><FrequencyChange><Frequency dt:dt=""r8"">2793040000</Frequency><Timestamp dt:dt=""r8"">28378897113758</Timestamp><Current dt:dt=""r8"">0</Current><DateUtc dt:dt=""string"">2014-05-28T21:13:39Z</DateUtc></FrequencyChange></FrequencyChanges></Clock>\n",60.032,1,-2036404827,0,,-999999,15,23438,t,52467,75905,5/28/2014,14:13:39,9:13:39 PM,1,Session1,SessionsList,,,,,,,,,,1,1,1,3,,,,,3,1,3,,,,NonCued2,MiniBlocks1,,387639,,,10,1,b,-999999,10,538913,b,400,539313,Green,Congruent,b,White,0,,0,12,534915,,0,0,,,,,,,,,,,,,Pictures\white.bmp,3000,2000,Pictures\black.bmp,,,,10,1,10,,,,,,,StimulusPr,Pictures\GreenRight.bmp,NonCuedStim2,Right
POP_2,27026,1,"<?xml version=""1.0""?>\n<Clock xmlns:dt=""urn:schemas-microsoft-com:datatypes""><Description dt:dt=""string"">E-Prime Primary Realtime Clock</Description><StartTime><Timestamp dt:dt=""int"">0</Timestamp><DateUtc dt:dt=""string"">2014-05-28T21:13:39Z</DateUtc></StartTime><FrequencyChanges><FrequencyChange><Frequency dt:dt=""r8"">2793040000</Frequency><Timestamp dt:dt=""r8"">28378897113758</Timestamp><Current dt:dt=""r8"">0</Current><DateUtc dt:dt=""string"">2014-05-28T21:13:39Z</DateUtc></FrequencyChange></FrequencyChanges></Clock>\n",60.032,1,-2036404827,0,,-999999,15,23438,t,52467,75905,5/28/2014,14:13:39,9:13:39 PM,1,Session1,SessionsList,,,,,,,,,,1,1,1,4,,541345,,,4,1,4,,,,Cued2,MiniBlocks1,,,,,1,1,b,-999999,6,557903,b,673,558576,White,Congruent,b,Green,0,,0,4,550907,,0,0,,,,1,1,1,,,,,,,Pictures\green.bmp,6000,4000,Pictures\black.bmp,,,,,,,,,,,,,StimulusPr,Pictures\right.bmp,CuedStim2,Right
POP_2,27026,1,"<?xml version=""1.0""?>\n<Clock xmlns:dt=""urn:schemas-microsoft-com:datatypes""><Description dt:dt=""string"">E-Prime Primary Realtime Clock</Description><StartTime><Timestamp dt:dt=""int"">0</Timestamp><DateUtc dt:dt=""string"">2014-05-28T21:13:39Z</DateUtc></StartTime><FrequencyChanges><FrequencyChange><Frequency dt:dt=""r8"">2793040000</Frequency><Timestamp dt:dt=""r8"">28378897113758</Timestamp><Current dt:dt=""r8"">0</Current><DateUtc dt:dt=""string"">2014-05-28T21:13:39Z</DateUtc></FrequencyChange></FrequencyChanges></Clock>\n",60.032,1,-2036404827,0,,-999999,15,23438,t,52467,75905,5/28/2014,14:13:39,9:13:39 PM,1,Session1,SessionsList,,,,,,,,,,1,1,1,4,,541345,,,4,1,4,,,,Cued2,MiniBlocks1,,,,,2,1,b,-999999,9,573912,b,472,574384,White,Congruent,b,Green,0,,0,14,563917,,0,0,,,,2,1,2,,,,,,,Pictures\green.bmp,9000,10000,Pictures\black.bmp,,,,,,,,,,,,,StimulusPr,Pictures\right.bmp,CuedStim2,Right
POP_2,27026,1,"<?xml version=""1.0""?>\n<Clock xmlns:dt=""urn:schemas-microsoft-com:datatypes""><Description dt:dt=""string"">E-Prime Primary Realtime Clock</Description><StartTime><Timestamp dt:dt=""int"">0</Timestamp><DateUtc dt:dt=""string"">2014-05-28T21:13:39Z</DateUtc></StartTime><FrequencyChanges><FrequencyChange><Frequency dt:dt=""r8"">2793040000</Frequency><Timestamp dt:dt=""r8"">28378897113758</Timestamp><Current dt:dt=""r8"">0</Current><DateUtc dt:dt=""string"">2014-05-28T21:13:39Z</DateUtc></FrequencyChange></FrequencyChanges></Clock>\n",60.032,1,-2036404827,0,,-999999,15,23438,t,52467,75905,5/28/2014,14:13:39,9:13:39 PM,1,Session1,SessionsList,,,,,,,,,,1,1,1,4,,541345,,,4,1,4,,,,Cued2,MiniBlocks1,,,,,3,1,r,-999999,17,589920,r,422,590342,White,Incongruent,r,Red,0,,0,15,585906,,0,0,,,,3,1,3,,,,,,,Pictures\red.bmp,3000,2000,Pictures\black.bmp,,,,,,,,,,,,,StimulusPr,Pictures\right.bmp,CuedStim2,Right
POP_2,27026,1,"<?xml version=""1.0""?>\n<Clock xmlns:dt=""urn:schemas-microsoft-com:datatypes""><Description dt:dt=""string"">E-Prime Primary Realtime Clock</Description><StartTime><Timestamp dt:dt=""int"">0</Timestamp><DateUtc dt:dt=""string"">2014-05-28T21:13:39Z</DateUtc></StartTime><FrequencyChanges><FrequencyChange><Frequency dt:dt=""r8"">2793040000</Frequency><Timestamp dt:dt=""r8"">28378897113758</Timestamp><Current dt:dt=""r8"">0</Current><DateUtc dt:dt=""string"">2014-05-28T21:13:39Z</DateUtc></FrequencyChange></FrequencyChanges></Clock>\n",60.032,1,-2036404827,0,,-999999,15,23438,t,52467,75905,5/28/2014,14:13:39,9:13:39 PM,1,Session1,SessionsList,,,,,,,,,,1,1,1,4,,541345,,,4,1,4,,,,Cued2,MiniBlocks1,,,,,4,1,r,-999999,12,600915,r,407,601322,White,Congruent,r,Green,0,,0,15,593918,,0,0,,,,4,1,4,,,,,,,Pictures\green.bmp,6000,16000,Pictures\left.bmp,,,,,,,,,,,,,StimulusPr,Pictures\black.bmp,CuedStim2,Left
POP_2,27026,1,"<?xml version=""1.0""?>\n<Clock xmlns:dt=""urn:schemas-microsoft-com:datatypes""><Description dt:dt=""string"">E-Prime Primary Realtime Clock</Description><StartTime><Timestamp dt:dt=""int"">0</Timestamp><DateUtc dt:dt=""string"">2014-05-28T21:13:39Z</DateUtc></StartTime><FrequencyChanges><FrequencyChange><Frequency dt:dt=""r8"">2793040000</Frequency><Timestamp dt:dt=""r8"">28378897113758</Timestamp><Current dt:dt=""r8"">0</Current><DateUtc dt:dt=""string"">2014-05-28T21:13:39Z</DateUtc></FrequencyChange></FrequencyChanges></Clock>\n",60.032,1,-2036404827,0,,-999999,15,23438,t,52467,75905,5/28/2014,14:13:39,9:13:39 PM,1,Session1,SessionsList,,,,,,,,,,1,1,1,4,,541345,,,4,1,4,,,,Cued2,MiniBlocks1,,,,,5,1,b,-999999,17,622920,b,449,623369,White,Congruent,b,Green,0,,0,3,618906,,0,0,,,,5,1,5,,,,,,,Pictures\green.bmp,3000,2000,Pictures\black.bmp,,,,,,,,,,,,,StimulusPr,Pictures\right.bmp,CuedStim2,Right
POP_2,27026,1,"<?xml version=""1.0""?>\n<Clock xmlns:dt=""urn:schemas-microsoft-com:datatypes""><Description dt:dt=""string"">E-Prime Primary Realtime Clock</Description><StartTime><Timestamp dt:dt=""int"">0</Timestamp><DateUtc dt:dt=""string"">2014-05-28T21:13:39Z</DateUtc></StartTime><FrequencyChanges><FrequencyChange><Frequency dt:dt=""r8"">2793040000</Frequency><Timestamp dt:dt=""r8"">28378897113758</Timestamp><Current dt:dt=""r8"">0</Current><DateUtc dt:dt=""string"">2014-05-28T21:13:39Z</DateUtc></FrequencyChange></FrequencyChanges></Clock>\n",60.032,1,-2036404827,0,,-999999,15,23438,t,52467,75905,5/28/2014,14:13:39,9:13:39 PM,1,Session1,SessionsList,,,,,,,,,,1,1,1,4,,541345,,,4,1,4,,,,Cued2,MiniBlocks1,,,,,6,1,r,-999999,7,630900,r,594,631494,White,Congruent,r,Green,0,,0,8,626902,,0,0,,,,6,1,6,,,,,,,Pictures\green.bmp,3000,2000,Pictures\left.bmp,,,,,,,,,,,,,StimulusPr,Pictures\black.bmp,CuedStim2,Left
POP_2,27026,1,"<?xml version=""1.0""?>\n<Clock xmlns:dt=""urn:schemas-microsoft-com:datatypes""><Description dt:dt=""string"">E-Prime Primary Realtime Clock</Description><StartTime><Timestamp dt:dt=""int"">0</Timestamp><DateUtc dt:dt=""string"">2014-05-28T21:13:39Z</DateUtc></StartTime><FrequencyChanges><FrequencyChange><Frequency dt:dt=""r8"">2793040000</Frequency><Timestamp dt:dt=""r8"">28378897113758</Timestamp><Current dt:dt=""r8"">0</Current><DateUtc dt:dt=""string"">2014-05-28T21:13:39Z</DateUtc></FrequencyChange></FrequencyChanges></Clock>\n",60.032,1,-2036404827,0,,-999999,15,23438,t,52467,75905,5/28/2014,14:13:39,9:13:39 PM,1,Session1,SessionsList,,,,,,,,,,1,1,1,4,,541345,,,4,1,4,,,,Cued2,MiniBlocks1,,,,,7,1,b,-999999,15,641911,b,414,642325,White,Incongruent,b,Red,0,,0,12,634914,,0,0,,,,7,1,7,,,,,,,Pictures\red.bmp,6000,4000,Pictures\left.bmp,,,,,,,,,,,,,StimulusPr,Pictures\black.bmp,CuedStim2,Left
POP_2,27026,1,"<?xml version=""1.0""?>\n<Clock xmlns:dt=""urn:schemas-microsoft-com:datatypes""><Description dt:dt=""string"">E-Prime Primary Realtime Clock</Description><StartTime><Timestamp dt:dt=""int"">0</Timestamp><DateUtc dt:dt=""string"">2014-05-28T21:13:39Z</DateUtc></StartTime><FrequencyChanges><FrequencyChange><Frequency dt:dt=""r8"">2793040000</Frequency><Timestamp dt:dt=""r8"">28378897113758</Timestamp><Current dt:dt=""r8"">0</Current><DateUtc dt:dt=""string"">2014-05-28T21:13:39Z</DateUtc></FrequencyChange></FrequencyChanges></Clock>\n",60.032,1,-2036404827,0,,-999999,15,23438,t,52467,75905,5/28/2014,14:13:39,9:13:39 PM,1,Session1,SessionsList,,,,,,,,,,1,1,1,4,,541345,,,4,1,4,,,,Cued2,MiniBlocks1,,,,,8,1,b,-999999,3,652905,b,492,653397,White,Congruent,b,Green,0,,0,14,647908,,0,0,,,,8,1,8,,,,,,,Pictures\green.bmp,4000,4000,Pictures\black.bmp,,,,,,,,,,,,,StimulusPr,Pictures\right.bmp,CuedStim2,Right
POP_2,27026,1,"<?xml version=""1.0""?>\n<Clock xmlns:dt=""urn:schemas-microsoft-com:datatypes""><Description dt:dt=""string"">E-Prime Primary Realtime Clock</Description><StartTime><Timestamp dt:dt=""int"">0</Timestamp><DateUtc dt:dt=""string"">2014-05-28T21:13:39Z</DateUtc></StartTime><FrequencyChanges><FrequencyChange><Frequency dt:dt=""r8"">2793040000</Frequency><Timestamp dt:dt=""r8"">28378897113758</Timestamp><Current dt:dt=""r8"">0</Current><DateUtc dt:dt=""string"">2014-05-28T21:13:39Z</DateUtc></FrequencyChange></FrequencyChanges></Clock>\n",60.032,1,-2036404827,0,,-999999,15,23438,t,52467,75905,5/28/2014,14:13:39,9:13:39 PM,1,Session1,SessionsList,,,,,,,,,,1,1,1,4,,541345,,,4,1,4,,,,Cued2,MiniBlocks1,,,,,9,1,b,-999999,15,668914,b,362,669276,White,Incongruent,b,Red,0,,0,16,658919,,0,0,,,,9,1,9,,,,,,,Pictures\red.bmp,9000,10000,Pictures\left.bmp,,,,,,,,,,,,,StimulusPr,Pictures\black.bmp,CuedStim2,Left
POP_2,27026,1,"<?xml version=""1.0""?>\n<Clock xmlns:dt=""urn:schemas-microsoft-com:datatypes""><Description dt:dt=""string"">E-Prime Primary Realtime Clock</Description><StartTime><Timestamp dt:dt=""int"">0</Timestamp><DateUtc dt:dt=""string"">2014-05-28T21:13:39Z</DateUtc></StartTime><FrequencyChanges><FrequencyChange><Frequency dt:dt=""r8"">2793040000</Frequency><Timestamp dt:dt=""r8"">28378897113758</Timestamp><Current dt:dt=""r8"">0</Current><DateUtc dt:dt=""string"">2014-05-28T21:13:39Z</DateUtc></FrequencyChange></FrequencyChanges></Clock>\n",60.032,1,-2036404827,0,,-999999,15,23438,t,52467,75905,5/28/2014,14:13:39,9:13:39 PM,1,Session1,SessionsList,,,,,,,,,,1,1,1,4,,541345,,,4,1,4,,,,Cued2,MiniBlocks1,,,,,10,1,r,-999999,17,690919,r,388,691307,White,Congruent,r,Green,0,,0,6,680908,,0,0,,,,10,1,10,,,,,,,Pictures\green.bmp,9000,10000,Pictures\left.bmp,,,,,,,,,,,,,StimulusPr,Pictures\black.bmp,CuedStim2,Left
POP_2,27026,1,"<?xml version=""1.0""?>\n<Clock xmlns:dt=""urn:schemas-microsoft-com:datatypes""><Description dt:dt=""string"">E-Prime Primary Realtime Clock</Description><StartTime><Timestamp dt:dt=""int"">0</Timestamp><DateUtc dt:dt=""string"">2014-05-28T21:13:39Z</DateUtc></StartTime><FrequencyChanges><FrequencyChange><Frequency dt:dt=""r8"">2793040000</Frequency><Timestamp dt:dt=""r8"">28378897113758</Timestamp><Current dt:dt=""r8"">0</Current><DateUtc dt:dt=""string"">2014-05-28T21:13:39Z</DateUtc></FrequencyChange></FrequencyChanges></Clock>\n",60.032,1,-2036404827,0,,-999999,15,23438,t,52467,75905,5/28/2014,14:13:39,9:13:39 PM,2,Session2,SessionsList,0,,-999999,8,713475,t,35761,749236,701331,2,1,2,1,,,,,,,,1,1,1,NonCued3,MiniBlocks2,,,749240,,1,1,b,-999999,5,769247,b,614,769861,Green,Congruent,b,White,0,,0,9,759252,,0,0,,,,,,,,,,,,,Pictures\white.bmp,9000,10000,Pictures\black.bmp,,,,,,,1,1,1,,,,StimulusPr,Pictures\GreenRight.bmp,NonCuedStim3,Right
POP_2,27026,1,"<?xml version=""1.0""?>\n<Clock xmlns:dt=""urn:schemas-microsoft-com:datatypes""><Description dt:dt=""string"">E-Prime Primary Realtime Clock</Description><StartTime><Timestamp dt:dt=""int"">0</Timestamp><DateUtc dt:dt=""string"">2014-05-28T21:13:39Z</DateUtc></StartTime><FrequencyChanges><FrequencyChange><Frequency dt:dt=""r8"">2793040000</Frequency><Timestamp dt:dt=""r8"">28378897113758</Timestamp><Current dt:dt=""r8"">0</Current><DateUtc dt:dt=""string"">2014-05-28T21:13:39Z</DateUtc></FrequencyChange></FrequencyChanges></Clock>\n",60.032,1,-2036404827,0,,-999999,15,23438,t,52467,75905,5/28/2014,14:13:39,9:13:39 PM,2,Session2,SessionsList,0,,-999999,8,713475,t,35761,749236,701331,2,1,2,1,,,,,,,,1,1,1,NonCued3,MiniBlocks2,,,749240,,2,1,r,-999999,10,791252,r,524,791776,Red,Incongruent,r,White,0,,0,13,781257,,0,0,,,,,,,,,,,,,Pictures\white.bmp,9000,10000,Pictures\black.bmp,,,,,,,2,1,2,,,,StimulusPr,Pictures\RedRight.bmp,NonCuedStim3,Right
POP_2,27026,1,"<?xml version=""1.0""?>\n<Clock xmlns:dt=""urn:schemas-microsoft-com:datatypes""><Description dt:dt=""string"">E-Prime Primary Realtime Clock</Description><StartTime><Timestamp dt:dt=""int"">0</Timestamp><DateUtc dt:dt=""string"">2014-05-28T21:13:39Z</DateUtc></StartTime><FrequencyChanges><FrequencyChange><Frequency dt:dt=""r8"">2793040000</Frequency><Timestamp dt:dt=""r8"">28378897113758</Timestamp><Current dt:dt=""r8"">0</Current><DateUtc dt:dt=""string"">2014-05-28T21:13:39Z</DateUtc></FrequencyChange></FrequencyChanges></Clock>\n",60.032,1,-2036404827,0,,-999999,15,23438,t,52467,75905,5/28/2014,14:13:39,9:13:39 PM,2,Session2,SessionsList,0,,-999999,8,713475,t,35761,749236,701331,2,1,2,1,,,,,,,,1,1,1,NonCued3,MiniBlocks2,,,749240,,3,1,r,-999999,17,808260,r,614,808874,Green,Congruent,r,White,0,,0,3,803246,,0,0,,,,,,,,,,,,,Pictures\white.bmp,4000,4000,Pictures\GreenLeft.bmp,,,,,,,3,1,3,,,,StimulusPr,Pictures\black.bmp,NonCuedStim3,Left
POP_2,27026,1,"<?xml version=""1.0""?>\n<Clock xmlns:dt=""urn:schemas-microsoft-com:datatypes""><Description dt:dt=""string"">E-Prime Primary Realtime Clock</Description><StartTime><Timestamp dt:dt=""int"">0</Timestamp><DateUtc dt:dt=""string"">2014-05-28T21:13:39Z</DateUtc></StartTime><FrequencyChanges><FrequencyChange><Frequency dt:dt=""r8"">2793040000</Frequency><Timestamp dt:dt=""r8"">28378897113758</Timestamp><Current dt:dt=""r8"">0</Current><DateUtc dt:dt=""string"">2014-05-28T21:13:39Z</DateUtc></FrequencyChange></FrequencyChanges></Clock>\n",60.032,1,-2036404827,0,,-999999,15,23438,t,52467,75905,5/28/2014,14:13:39,9:13:39 PM,2,Session2,SessionsList,0,,-999999,8,713475,t,35761,749236,701331,2,1,2,1,,,,,,,,1,1,1,NonCued3,MiniBlocks2,,,749240,,4,1,b,-999999,4,821237,b,650,821887,Red,Incongruent,b,White,0,,0,14,814257,,0,0,,,,,,,,,,,,,Pictures\white.bmp,6000,4000,Pictures\RedLeft.bmp,,,,,,,4,1,4,,,,StimulusPr,Pictures\black.bmp,NonCuedStim3,Left
POP_2,27026,1,"<?xml version=""1.0""?>\n<Clock xmlns:dt=""urn:schemas-microsoft-com:datatypes""><Description dt:dt=""string"">E-Prime Primary Realtime Clock</Description><StartTime><Timestamp dt:dt=""int"">0</Timestamp><DateUtc dt:dt=""string"">2014-05-28T21:13:39Z</DateUtc></StartTime><FrequencyChanges><FrequencyChange><Frequency dt:dt=""r8"">2793040000</Frequency><Timestamp dt:dt=""r8"">28378897113758</Timestamp><Current dt:dt=""r8"">0</Current><DateUtc dt:dt=""string"">2014-05-28T21:13:39Z</DateUtc></FrequencyChange></FrequencyChanges></Clock>\n",60.032,1,-2036404827,0,,-999999,15,23438,t,52467,75905,5/28/2014,14:13:39,9:13:39 PM,2,Session2,SessionsList,0,,-999999,8,713475,t,35761,749236,701331,2,1,2,1,,,,,,,,1,1,1,NonCued3,MiniBlocks2,,,749240,,5,1,b,-999999,6,831249,b,674,831923,Green,Congruent,b,White,0,,0,8,827251,,0,0,,,,,,,,,,,,,Pictures\white.bmp,3000,2000,Pictures\black.bmp,,,,,,,5,1,5,,,,StimulusPr,Pictures\GreenRight.bmp,NonCuedStim3,Right
POP_2,27026,1,"<?xml version=""1.0""?>\n<Clock xmlns:dt=""urn:schemas-microsoft-com:datatypes""><Description dt:dt=""string"">E-Prime Primary Realtime Clock</Description><StartTime><Timestamp dt:dt=""int"">0</Timestamp><DateUtc dt:dt=""string"">2014-05-28T21:13:39Z</DateUtc></StartTime><FrequencyChanges><FrequencyChange><Frequency dt:dt=""r8"">2793040000</Frequency><Timestamp dt:dt=""r8"">28378897113758</Timestamp><Current dt:dt=""r8"">0</Current><DateUtc dt:dt=""string"">2014-05-28T21:13:39Z</DateUtc></FrequencyChange></FrequencyChanges></Clock>\n",60.032,1,-2036404827,0,,-999999,15,23438,t,52467,75905,5/28/2014,14:13:39,9:13:39 PM,2,Session2,SessionsList,0,,-999999,8,713475,t,35761,749236,701331,2,1,2,1,,,,,,,,1,1,1,NonCued3,MiniBlocks2,,,749240,,6,1,r,-999999,19,839262,r,512,839774,Green,Congruent,r,White,0,,0,17,835247,,0,0,,,,,,,,,,,,,Pictures\white.bmp,3000,2000,Pictures\GreenLeft.bmp,,,,,,,6,1,6,,,,StimulusPr,Pictures\black.bmp,NonCuedStim3,Left
POP_2,27026,1,"<?xml version=""1.0""?>\n<Clock xmlns:dt=""urn:schemas-microsoft-com:datatypes""><Description dt:dt=""string"">E-Prime Primary Realtime Clock</Description><StartTime><Timestamp dt:dt=""int"">0</Timestamp><DateUtc dt:dt=""string"">2014-05-28T21:13:39Z</DateUtc></StartTime><FrequencyChanges><FrequencyChange><Frequency dt:dt=""r8"">2793040000</Frequency><Timestamp dt:dt=""r8"">28378897113758</Timestamp><Current dt:dt=""r8"">0</Current><DateUtc dt:dt=""string"">2014-05-28T21:13:39Z</DateUtc></FrequencyChange></FrequencyChanges></Clock>\n",60.032,1,-2036404827,0,,-999999,15,23438,t,52467,75905,5/28/2014,14:13:39,9:13:39 PM,2,Session2,SessionsList,0,,-999999,8,713475,t,35761,749236,701331,2,1,2,1,,,,,,,,1,1,1,NonCued3,MiniBlocks2,,,749240,,7,1,b,-999999,13,850256,b,442,850698,Green,Congruent,b,White,0,,0,17,843260,,0,0,,,,,,,,,,,,,Pictures\white.bmp,6000,16000,Pictures\black.bmp,,,,,,,7,1,7,,,,StimulusPr,Pictures\GreenRight.bmp,NonCuedStim3,Right
POP_2,27026,1,"<?xml version=""1.0""?>\n<Clock xmlns:dt=""urn:schemas-microsoft-com:datatypes""><Description dt:dt=""string"">E-Prime Primary Realtime Clock</Description><StartTime><Timestamp dt:dt=""int"">0</Timestamp><DateUtc dt:dt=""string"">2014-05-28T21:13:39Z</DateUtc></StartTime><FrequencyChanges><FrequencyChange><Frequency dt:dt=""r8"">2793040000</Frequency><Timestamp dt:dt=""r8"">28378897113758</Timestamp><Current dt:dt=""r8"">0</Current><DateUtc dt:dt=""string"">2014-05-28T21:13:39Z</DateUtc></FrequencyChange></FrequencyChanges></Clock>\n",60.032,1,-2036404827,0,,-999999,15,23438,t,52467,75905,5/28/2014,14:13:39,9:13:39 PM,2,Session2,SessionsList,0,,-999999,8,713475,t,35761,749236,701331,2,1,2,1,,,,,,,,1,1,1,NonCued3,MiniBlocks2,,,749240,,8,1,r,-999999,18,872262,r,583,872845,Red,Incongruent,r,White,0,,0,3,868247,,0,0,,,,,,,,,,,,,Pictures\white.bmp,3000,2000,Pictures\black.bmp,,,,,,,8,1,8,,,,StimulusPr,Pictures\RedRight.bmp,NonCuedStim3,Right
POP_2,27026,1,"<?xml version=""1.0""?>\n<Clock xmlns:dt=""urn:schemas-microsoft-com:datatypes""><Description dt:dt=""string"">E-Prime Primary Realtime Clock</Description><StartTime><Timestamp dt:dt=""int"">0</Timestamp><DateUtc dt:dt=""string"">2014-05-28T21:13:39Z</DateUtc></StartTime><FrequencyChanges><FrequencyChange><Frequency dt:dt=""r8"">2793040000</Frequency><Timestamp dt:dt=""r8"">28378897113758</Timestamp><Current dt:dt=""r8"">0</Current><DateUtc dt:dt=""string"">2014-05-28T21:13:39Z</DateUtc></FrequencyChange></FrequencyChanges></Clock>\n",60.032,1,-2036404827,0,,-999999,15,23438,t,52467,75905,5/28/2014,14:13:39,9:13:39 PM,2,Session2,SessionsList,0,,-999999,8,713475,t,35761,749236,701331,2,1,2,1,,,,,,,,1,1,1,NonCued3,MiniBlocks2,,,749240,,9,1,r,-999999,11,886255,r,352,886607,Green,Congruent,r,White,0,,0,16,876260,,0,0,,,,,,,,,,,,,Pictures\white.bmp,9000,10000,Pictures\GreenLeft.bmp,,,,,,,9,1,9,,,,StimulusPr,Pictures\black.bmp,NonCuedStim3,Left
POP_2,27026,1,"<?xml version=""1.0""?>\n<Clock xmlns:dt=""urn:schemas-microsoft-com:datatypes""><Description dt:dt=""string"">E-Prime Primary Realtime Clock</Description><StartTime><Timestamp dt:dt=""int"">0</Timestamp><DateUtc dt:dt=""string"">2014-05-28T21:13:39Z</DateUtc></StartTime><FrequencyChanges><FrequencyChange><Frequency dt:dt=""r8"">2793040000</Frequency><Timestamp dt:dt=""r8"">28378897113758</Timestamp><Current dt:dt=""r8"">0</Current><DateUtc dt:dt=""string"">2014-05-28T21:13:39Z</DateUtc></FrequencyChange></FrequencyChanges></Clock>\n",60.032,1,-2036404827,0,,-999999,15,23438,t,52467,75905,5/28/2014,14:13:39,9:13:39 PM,2,Session2,SessionsList,0,,-999999,8,713475,t,35761,749236,701331,2,1,2,1,,,,,,,,1,1,1,NonCued3,MiniBlocks2,,,749240,,10,1,r,-999999,2,905245,r,408,905653,Green,Congruent,r,White,0,,0,5,898249,,0,0,,,,,,,,,,,,,Pictures\white.bmp,6000,4000,Pictures\GreenLeft.bmp,,,,,,,10,1,10,,,,StimulusPr,Pictures\black.bmp,NonCuedStim3,Left
POP_2,27026,1,"<?xml version=""1.0""?>\n<Clock xmlns:dt=""urn:schemas-microsoft-com:datatypes""><Description dt:dt=""string"">E-Prime Primary Realtime Clock</Description><StartTime><Timestamp dt:dt=""int"">0</Timestamp><DateUtc dt:dt=""string"">2014-05-28T21:13:39Z</DateUtc></StartTime><FrequencyChanges><FrequencyChange><Frequency dt:dt=""r8"">2793040000</Frequency><Timestamp dt:dt=""r8"">28378897113758</Timestamp><Current dt:dt=""r8"">0</Current><DateUtc dt:dt=""string"">2014-05-28T21:13:39Z</DateUtc></FrequencyChange></FrequencyChanges></Clock>\n",60.032,1,-2036404827,0,,-999999,15,23438,t,52467,75905,5/28/2014,14:13:39,9:13:39 PM,2,Session2,SessionsList,0,,-999999,8,713475,t,35761,749236,701331,2,1,2,2,,,909676,,,,,2,1,2,Cued3,MiniBlocks2,,,,,1,1,b,-999999,10,923253,b,478,923731,White,Congruent,b,Green,0,,0,12,919255,,0,0,,,,,,,1,1,1,,,,Pictures\green.bmp,3000,2000,Pictures\black.bmp,,,,,,,,,,,,,StimulusPr,Pictures\right.bmp,CuedStim3,Right
POP_2,27026,1,"<?xml version=""1.0""?>\n<Clock xmlns:dt=""urn:schemas-microsoft-com:datatypes""><Description dt:dt=""string"">E-Prime Primary Realtime Clock</Description><StartTime><Timestamp dt:dt=""int"">0</Timestamp><DateUtc dt:dt=""string"">2014-05-28T21:13:39Z</DateUtc></StartTime><FrequencyChanges><FrequencyChange><Frequency dt:dt=""r8"">2793040000</Frequency><Timestamp dt:dt=""r8"">28378897113758</Timestamp><Current dt:dt=""r8"">0</Current><DateUtc dt:dt=""string"">2014-05-28T21:13:39Z</DateUtc></FrequencyChange></FrequencyChanges></Clock>\n",60.032,1,-2036404827,0,,-999999,15,23438,t,52467,75905,5/28/2014,14:13:39,9:13:39 PM,2,Session2,SessionsList,0,,-999999,8,713475,t,35761,749236,701331,2,1,2,2,,,909676,,,,,2,1,2,Cued3,MiniBlocks2,,,,,2,1,b,-999999,9,931249,b,343,931592,White,Congruent,b,Green,0,,0,8,927251,,0,0,,,,,,,2,1,2,,,,Pictures\green.bmp,3000,10000,Pictures\black.bmp,,,,,,,,,,,,,StimulusPr,Pictures\right.bmp,CuedStim3,Right
POP_2,27026,1,"<?xml version=""1.0""?>\n<Clock xmlns:dt=""urn:schemas-microsoft-com:datatypes""><Description dt:dt=""string"">E-Prime Primary Realtime Clock</Description><StartTime><Timestamp dt:dt=""int"">0</Timestamp><DateUtc dt:dt=""string"">2014-05-28T21:13:39Z</DateUtc></StartTime><FrequencyChanges><FrequencyChange><Frequency dt:dt=""r8"">2793040000</Frequency><Timestamp dt:dt=""r8"">28378897113758</Timestamp><Current dt:dt=""r8"">0</Current><DateUtc dt:dt=""string"">2014-05-28T21:13:39Z</DateUtc></FrequencyChange></FrequencyChanges></Clock>\n",60.032,1,-2036404827,0,,-999999,15,23438,t,52467,75905,5/28/2014,14:13:39,9:13:39 PM,2,Session2,SessionsList,0,,-999999,8,713475,t,35761,749236,701331,2,1,2,2,,,909676,,,,,2,1,2,Cued3,MiniBlocks2,,,,,3,1,r,-999999,11,953254,r,478,953732,White,Congruent,r,Green,0,,0,16,943259,,0,0,,,,,,,3,1,3,,,,Pictures\green.bmp,9000,2000,Pictures\left.bmp,,,,,,,,,,,,,StimulusPr,Pictures\black.bmp,CuedStim3,Left
POP_2,27026,1,"<?xml version=""1.0""?>\n<Clock xmlns:dt=""urn:schemas-microsoft-com:datatypes""><Description dt:dt=""string"">E-Prime Primary Realtime Clock</Description><StartTime><Timestamp dt:dt=""int"">0</Timestamp><DateUtc dt:dt=""string"">2014-05-28T21:13:39Z</DateUtc></StartTime><FrequencyChanges><FrequencyChange><Frequency dt:dt=""r8"">2793040000</Frequency><Timestamp dt:dt=""r8"">28378897113758</Timestamp><Current dt:dt=""r8"">0</Current><DateUtc dt:dt=""string"">2014-05-28T21:13:39Z</DateUtc></FrequencyChange></FrequencyChanges></Clock>\n",60.032,1,-2036404827,0,,-999999,15,23438,t,52467,75905,5/28/2014,14:13:39,9:13:39 PM,2,Session2,SessionsList,0,,-999999,8,713475,t,35761,749236,701331,2,1,2,2,,,909676,,,,,2,1,2,Cued3,MiniBlocks2,,,,,4,1,r,-999999,7,962250,r,374,962624,White,Congruent,r,Green,0,,0,2,957236,,0,0,,,,,,,4,1,4,,,,Pictures\green.bmp,4000,16000,Pictures\left.bmp,,,,,,,,,,,,,StimulusPr,Pictures\black.bmp,CuedStim3,Left
POP_2,27026,1,"<?xml version=""1.0""?>\n<Clock xmlns:dt=""urn:schemas-microsoft-com:datatypes""><Description dt:dt=""string"">E-Prime Primary Realtime Clock</Description><StartTime><Timestamp dt:dt=""int"">0</Timestamp><DateUtc dt:dt=""string"">2014-05-28T21:13:39Z</DateUtc></StartTime><FrequencyChanges><FrequencyChange><Frequency dt:dt=""r8"">2793040000</Frequency><Timestamp dt:dt=""r8"">28378897113758</Timestamp><Current dt:dt=""r8"">0</Current><DateUtc dt:dt=""string"">2014-05-28T21:13:39Z</DateUtc></FrequencyChange></FrequencyChanges></Clock>\n",60.032,1,-2036404827,0,,-999999,15,23438,t,52467,75905,5/28/2014,14:13:39,9:13:39 PM,2,Session2,SessionsList,0,,-999999,8,713475,t,35761,749236,701331,2,1,2,2,,,909676,,,,,2,1,2,Cued3,MiniBlocks2,,,,,5,1,r,-999999,12,984255,r,380,984635,White,Incongruent,r,Red,0,,0,14,980257,,0,0,,,,,,,5,1,5,,,,Pictures\red.bmp,3000,4000,Pictures\black.bmp,,,,,,,,,,,,,StimulusPr,Pictures\right.bmp,CuedStim3,Right
POP_2,27026,1,"<?xml version=""1.0""?>\n<Clock xmlns:dt=""urn:schemas-microsoft-com:datatypes""><Description dt:dt=""string"">E-Prime Primary Realtime Clock</Description><StartTime><Timestamp dt:dt=""int"">0</Timestamp><DateUtc dt:dt=""string"">2014-05-28T21:13:39Z</DateUtc></StartTime><FrequencyChanges><FrequencyChange><Frequency dt:dt=""r8"">2793040000</Frequency><Timestamp dt:dt=""r8"">28378897113758</Timestamp><Current dt:dt=""r8"">0</Current><DateUtc dt:dt=""string"">2014-05-28T21:13:39Z</DateUtc></FrequencyChange></FrequencyChanges></Clock>\n",60.032,1,-2036404827,0,,-999999,15,23438,t,52467,75905,5/28/2014,14:13:39,9:13:39 PM,2,Session2,SessionsList,0,,-999999,8,713475,t,35761,749236,701331,2,1,2,2,,,909676,,,,,2,1,2,Cued3,MiniBlocks2,,,,,6,1,b,-999999,6,997249,b,449,997698,White,Congruent,b,Green,0,,0,7,990236,,0,0,,,,,,,6,1,6,,,,Pictures\green.bmp,6000,4000,Pictures\black.bmp,,,,,,,,,,,,,StimulusPr,Pictures\right.bmp,CuedStim3,Right
POP_2,27026,1,"<?xml version=""1.0""?>\n<Clock xmlns:dt=""urn:schemas-microsoft-com:datatypes""><Description dt:dt=""string"">E-Prime Primary Realtime Clock</Description><StartTime><Timestamp dt:dt=""int"">0</Timestamp><DateUtc dt:dt=""string"">2014-05-28T21:13:39Z</DateUtc></StartTime><FrequencyChanges><FrequencyChange><Frequency dt:dt=""r8"">2793040000</Frequency><Timestamp dt:dt=""r8"">28378897113758</Timestamp><Current dt:dt=""r8"">0</Current><DateUtc dt:dt=""string"">2014-05-28T21:13:39Z</DateUtc></FrequencyChange></FrequencyChanges></Clock>\n",60.032,1,-2036404827,0,,-999999,15,23438,t,52467,75905,5/28/2014,14:13:39,9:13:39 PM,2,Session2,SessionsList,0,,-999999,8,713475,t,35761,749236,701331,2,1,2,2,,,909676,,,,,2,1,2,Cued3,MiniBlocks2,,,,,7,1,r,-999999,17,1008260,r,282,1008542,White,Congruent,r,Green,0,,0,3,1003246,,0,0,,,,,,,7,1,7,,,,Pictures\green.bmp,4000,16000,Pictures\left.bmp,,,,,,,,,,,,,StimulusPr,Pictures\black.bmp,CuedStim3,Left
POP_2,27026,1,"<?xml version=""1.0""?>\n<Clock xmlns:dt=""urn:schemas-microsoft-com:datatypes""><Description dt:dt=""string"">E-Prime Primary Realtime Clock</Description><StartTime><Timestamp dt:dt=""int"">0</Timestamp><DateUtc dt:dt=""string"">2014-05-28T21:13:39Z</DateUtc></StartTime><FrequencyChanges><FrequencyChange><Frequency dt:dt=""r8"">2793040000</Frequency><Timestamp dt:dt=""r8"">28378897113758</Timestamp><Current dt:dt=""r8"">0</Current><DateUtc dt:dt=""string"">2014-05-28T21:13:39Z</DateUtc></FrequencyChange></FrequencyChanges></Clock>\n",60.032,1,-2036404827,0,,-999999,15,23438,t,52467,75905,5/28/2014,14:13:39,9:13:39 PM,2,Session2,SessionsList,0,,-999999,8,713475,t,35761,749236,701331,2,1,2,2,,,909676,,,,,2,1,2,Cued3,MiniBlocks2,,,,,8,1,b,-999999,7,1030249,b,533,1030782,White,Incongruent,b,Red,0,,0,9,1026251,,0,0,,,,,,,8,1,8,,,,Pictures\red.bmp,3000,2000,Pictures\left.bmp,,,,,,,,,,,,,StimulusPr,Pictures\black.bmp,CuedStim3,Left
POP_2,27026,1,"<?xml version=""1.0""?>\n<Clock xmlns:dt=""urn:schemas-microsoft-com:datatypes""><Description dt:dt=""string"">E-Prime Primary Realtime Clock</Description><StartTime><Timestamp dt:dt=""int"">0</Timestamp><DateUtc dt:dt=""string"">2014-05-28T21:13:39Z</DateUtc></StartTime><FrequencyChanges><FrequencyChange><Frequency dt:dt=""r8"">2793040000</Frequency><Timestamp dt:dt=""r8"">28378897113758</Timestamp><Current dt:dt=""r8"">0</Current><DateUtc dt:dt=""string"">2014-05-28T21:13:39Z</DateUtc></FrequencyChange></FrequencyChanges></Clock>\n",60.032,1,-2036404827,0,,-999999,15,23438,t,52467,75905,5/28/2014,14:13:39,9:13:39 PM,2,Session2,SessionsList,0,,-999999,8,713475,t,35761,749236,701331,2,1,2,2,,,909676,,,,,2,1,2,Cued3,MiniBlocks2,,,,,9,0,r,-999999,3,1038245,b,610,1038855,White,Congruent,r,Green,0,,0,16,1034247,,0,0,,,,,,,9,1,9,,,,Pictures\green.bmp,3000,2000,Pictures\left.bmp,,,,,,,,,,,,,StimulusPr,Pictures\black.bmp,CuedStim3,Left
POP_2,27026,1,"<?xml version=""1.0""?>\n<Clock xmlns:dt=""urn:schemas-microsoft-com:datatypes""><Description dt:dt=""string"">E-Prime Primary Realtime Clock</Description><StartTime><Timestamp dt:dt=""int"">0</Timestamp><DateUtc dt:dt=""string"">2014-05-28T21:13:39Z</DateUtc></StartTime><FrequencyChanges><FrequencyChange><Frequency dt:dt=""r8"">2793040000</Frequency><Timestamp dt:dt=""r8"">28378897113758</Timestamp><Current dt:dt=""r8"">0</Current><DateUtc dt:dt=""string"">2014-05-28T21:13:39Z</DateUtc></FrequencyChange></FrequencyChanges></Clock>\n",60.032,1,-2036404827,0,,-999999,15,23438,t,52467,75905,5/28/2014,14:13:39,9:13:39 PM,2,Session2,SessionsList,0,,-999999,8,713475,t,35761,749236,701331,2,1,2,2,,,909676,,,,,2,1,2,Cued3,MiniBlocks2,,,,,10,1,b,-999999,12,1052255,b,497,1052752,White,Congruent,b,Green,0,,0,6,1042243,,0,0,,,,,,,10,1,10,,,,Pictures\green.bmp,9000,10000,Pictures\black.bmp,,,,,,,,,,,,,StimulusPr,Pictures\right.bmp,CuedStim3,Right
POP_2,27026,1,"<?xml version=""1.0""?>\n<Clock xmlns:dt=""urn:schemas-microsoft-com:datatypes""><Description dt:dt=""string"">E-Prime Primary Realtime Clock</Description><StartTime><Timestamp dt:dt=""int"">0</Timestamp><DateUtc dt:dt=""string"">2014-05-28T21:13:39Z</DateUtc></StartTime><FrequencyChanges><FrequencyChange><Frequency dt:dt=""r8"">2793040000</Frequency><Timestamp dt:dt=""r8"">28378897113758</Timestamp><Current dt:dt=""r8"">0</Current><DateUtc dt:dt=""string"">2014-05-28T21:13:39Z</DateUtc></FrequencyChange></FrequencyChanges></Clock>\n",60.032,1,-2036404827,0,,-999999,15,23438,t,52467,75905,5/28/2014,14:13:39,9:13:39 PM,2,Session2,SessionsList,0,,-999999,8,713475,t,35761,749236,701331,2,1,2,3,,,,1062766,,,,3,1,3,Cued4,MiniBlocks2,,,,,1,1,b,-999999,4,1080240,b,757,1080997,White,Congruent,b,Green,0,,0,18,1073261,,0,0,,,,,,,,,,1,1,1,Pictures\green.bmp,6000,2000,Pictures\black.bmp,,,,,,,,,,,,,StimulusPr,Pictures\right.bmp,CuedStim4,Right
POP_2,27026,1,"<?xml version=""1.0""?>\n<Clock xmlns:dt=""urn:schemas-microsoft-com:datatypes""><Description dt:dt=""string"">E-Prime Primary Realtime Clock</Description><StartTime><Timestamp dt:dt=""int"">0</Timestamp><DateUtc dt:dt=""string"">2014-05-28T21:13:39Z</DateUtc></StartTime><FrequencyChanges><FrequencyChange><Frequency dt:dt=""r8"">2793040000</Frequency><Timestamp dt:dt=""r8"">28378897113758</Timestamp><Current dt:dt=""r8"">0</Current><DateUtc dt:dt=""string"">2014-05-28T21:13:39Z</DateUtc></FrequencyChange></FrequencyChanges></Clock>\n",60.032,1,-2036404827,0,,-999999,15,23438,t,52467,75905,5/28/2014,14:13:39,9:13:39 PM,2,Session2,SessionsList,0,,-999999,8,713475,t,35761,749236,701331,2,1,2,3,,,,1062766,,,,3,1,3,Cued4,MiniBlocks2,,,,,2,1,r,-999999,7,1094250,r,675,1094925,White,Incongruent,r,Red,0,,0,12,1084255,,0,0,,,,,,,,,,2,1,2,Pictures\red.bmp,9000,2000,Pictures\black.bmp,,,,,,,,,,,,,StimulusPr,Pictures\right.bmp,CuedStim4,Right
POP_2,27026,1,"<?xml version=""1.0""?>\n<Clock xmlns:dt=""urn:schemas-microsoft-com:datatypes""><Description dt:dt=""string"">E-Prime Primary Realtime Clock</Description><StartTime><Timestamp dt:dt=""int"">0</Timestamp><DateUtc dt:dt=""string"">2014-05-28T21:13:39Z</DateUtc></StartTime><FrequencyChanges><FrequencyChange><Frequency dt:dt=""r8"">2793040000</Frequency><Timestamp dt:dt=""r8"">28378897113758</Timestamp><Current dt:dt=""r8"">0</Current><DateUtc dt:dt=""string"">2014-05-28T21:13:39Z</DateUtc></FrequencyChange></FrequencyChanges></Clock>\n",60.032,1,-2036404827,0,,-999999,15,23438,t,52467,75905,5/28/2014,14:13:39,9:13:39 PM,2,Session2,SessionsList,0,,-999999,8,713475,t,35761,749236,701331,2,1,2,3,,,,1062766,,,,3,1,3,Cued4,MiniBlocks2,,,,,3,1,b,-999999,7,1102246,b,634,1102880,White,Congruent,b,Green,0,,0,5,1098248,,0,0,,,,,,,,,,3,1,3,Pictures\green.bmp,3000,4000,Pictures\black.bmp,,,,,,,,,,,,,StimulusPr,Pictures\right.bmp,CuedStim4,Right
POP_2,27026,1,"<?xml version=""1.0""?>\n<Clock xmlns:dt=""urn:schemas-microsoft-com:datatypes""><Description dt:dt=""string"">E-Prime Primary Realtime Clock</Description><StartTime><Timestamp dt:dt=""int"">0</Timestamp><DateUtc dt:dt=""string"">2014-05-28T21:13:39Z</DateUtc></StartTime><FrequencyChanges><FrequencyChange><Frequency dt:dt=""r8"">2793040000</Frequency><Timestamp dt:dt=""r8"">28378897113758</Timestamp><Current dt:dt=""r8"">0</Current><DateUtc dt:dt=""string"">2014-05-28T21:13:39Z</DateUtc></FrequencyChange></FrequencyChanges></Clock>\n",60.032,1,-2036404827,0,,-999999,15,23438,t,52467,75905,5/28/2014,14:13:39,9:13:39 PM,2,Session2,SessionsList,0,,-999999,8,713475,t,35761,749236,701331,2,1,2,3,,,,1062766,,,,3,1,3,Cued4,MiniBlocks2,,,,,4,1,r,-999999,15,1112258,r,502,1112760,White,Congruent,r,Green,0,,0,17,1108260,,0,0,,,,,,,,,,4,1,4,Pictures\green.bmp,3000,4000,Pictures\left.bmp,,,,,,,,,,,,,StimulusPr,Pictures\black.bmp,CuedStim4,Left
POP_2,27026,1,"<?xml version=""1.0""?>\n<Clock xmlns:dt=""urn:schemas-microsoft-com:datatypes""><Description dt:dt=""string"">E-Prime Primary Realtime Clock</Description><StartTime><Timestamp dt:dt=""int"">0</Timestamp><DateUtc dt:dt=""string"">2014-05-28T21:13:39Z</DateUtc></StartTime><FrequencyChanges><FrequencyChange><Frequency dt:dt=""r8"">2793040000</Frequency><Timestamp dt:dt=""r8"">28378897113758</Timestamp><Current dt:dt=""r8"">0</Current><DateUtc dt:dt=""string"">2014-05-28T21:13:39Z</DateUtc></FrequencyChange></FrequencyChanges></Clock>\n",60.032,1,-2036404827,0,,-999999,15,23438,t,52467,75905,5/28/2014,14:13:39,9:13:39 PM,2,Session2,SessionsList,0,,-999999,8,713475,t,35761,749236,701331,2,1,2,3,,,,1062766,,,,3,1,3,Cued4,MiniBlocks2,,,,,5,1,b,-999999,9,1123252,b,517,1123769,White,Incongruent,b,Red,0,,0,13,1118255,,0,0,,,,,,,,,,5,1,5,Pictures\red.bmp,4000,16000,Pictures\left.bmp,,,,,,,,,,,,,StimulusPr,Pictures\black.bmp,CuedStim4,Left
POP_2,27026,1,"<?xml version=""1.0""?>\n<Clock xmlns:dt=""urn:schemas-microsoft-com:datatypes""><Description dt:dt=""string"">E-Prime Primary Realtime Clock</Description><StartTime><Timestamp dt:dt=""int"">0</Timestamp><DateUtc dt:dt=""string"">2014-05-28T21:13:39Z</DateUtc></StartTime><FrequencyChanges><FrequencyChange><Frequency dt:dt=""r8"">2793040000</Frequency><Timestamp dt:dt=""r8"">28378897113758</Timestamp><Current dt:dt=""r8"">0</Current><DateUtc dt:dt=""string"">2014-05-28T21:13:39Z</DateUtc></FrequencyChange></FrequencyChanges></Clock>\n",60.032,1,-2036404827,0,,-999999,15,23438,t,52467,75905,5/28/2014,14:13:39,9:13:39 PM,2,Session2,SessionsList,0,,-999999,8,713475,t,35761,749236,701331,2,1,2,3,,,,1062766,,,,3,1,3,Cued4,MiniBlocks2,,,,,6,1,b,-999999,15,1145258,b,546,1145804,White,Congruent,b,Green,0,,0,17,1141260,,0,0,,,,,,,,,,6,1,6,Pictures\green.bmp,3000,2000,Pictures\black.bmp,,,,,,,,,,,,,StimulusPr,Pictures\right.bmp,CuedStim4,Right
POP_2,27026,1,"<?xml version=""1.0""?>\n<Clock xmlns:dt=""urn:schemas-microsoft-com:datatypes""><Description dt:dt=""string"">E-Prime Primary Realtime Clock</Description><StartTime><Timestamp dt:dt=""int"">0</Timestamp><DateUtc dt:dt=""string"">2014-05-28T21:13:39Z</DateUtc></StartTime><FrequencyChanges><FrequencyChange><Frequency dt:dt=""r8"">2793040000</Frequency><Timestamp dt:dt=""r8"">28378897113758</Timestamp><Current dt:dt=""r8"">0</Current><DateUtc dt:dt=""string"">2014-05-28T21:13:39Z</DateUtc></FrequencyChange></FrequencyChanges></Clock>\n",60.032,1,-2036404827,0,,-999999,15,23438,t,52467,75905,5/28/2014,14:13:39,9:13:39 PM,2,Session2,SessionsList,0,,-999999,8,713475,t,35761,749236,701331,2,1,2,3,,,,1062766,,,,3,1,3,Cued4,MiniBlocks2,,,,,7,1,b,-999999,8,1159251,b,436,1159687,White,Congruent,b,Green,0,,0,13,1149239,,0,0,,,,,,,,,,7,1,7,Pictures\green.bmp,9000,10000,Pictures\black.bmp,,,,,,,,,,,,,StimulusPr,Pictures\right.bmp,CuedStim4,Right
POP_2,27026,1,"<?xml version=""1.0""?>\n<Clock xmlns:dt=""urn:schemas-microsoft-com:datatypes""><Description dt:dt=""string"">E-Prime Primary Realtime Clock</Description><StartTime><Timestamp dt:dt=""int"">0</Timestamp><DateUtc dt:dt=""string"">2014-05-28T21:13:39Z</DateUtc></StartTime><FrequencyChanges><FrequencyChange><Frequency dt:dt=""r8"">2793040000</Frequency><Timestamp dt:dt=""r8"">28378897113758</Timestamp><Current dt:dt=""r8"">0</Current><DateUtc dt:dt=""string"">2014-05-28T21:13:39Z</DateUtc></FrequencyChange></FrequencyChanges></Clock>\n",60.032,1,-2036404827,0,,-999999,15,23438,t,52467,75905,5/28/2014,14:13:39,9:13:39 PM,2,Session2,SessionsList,0,,-999999,8,713475,t,35761,749236,701331,2,1,2,3,,,,1062766,,,,3,1,3,Cued4,MiniBlocks2,,,,,8,1,b,-999999,17,1178258,b,856,1179114,White,Incongruent,b,Red,0,,0,3,1171245,,0,0,,,,,,,,,,8,1,8,Pictures\red.bmp,6000,10000,Pictures\left.bmp,,,,,,,,,,,,,StimulusPr,Pictures\black.bmp,CuedStim4,Left
POP_2,27026,1,"<?xml version=""1.0""?>\n<Clock xmlns:dt=""urn:schemas-microsoft-com:datatypes""><Description dt:dt=""string"">E-Prime Primary Realtime Clock</Description><StartTime><Timestamp dt:dt=""int"">0</Timestamp><DateUtc dt:dt=""string"">2014-05-28T21:13:39Z</DateUtc></StartTime><FrequencyChanges><FrequencyChange><Frequency dt:dt=""r8"">2793040000</Frequency><Timestamp dt:dt=""r8"">28378897113758</Timestamp><Current dt:dt=""r8"">0</Current><DateUtc dt:dt=""string"">2014-05-28T21:13:39Z</DateUtc></FrequencyChange></FrequencyChanges></Clock>\n",60.032,1,-2036404827,0,,-999999,15,23438,t,52467,75905,5/28/2014,14:13:39,9:13:39 PM,2,Session2,SessionsList,0,,-999999,8,713475,t,35761,749236,701331,2,1,2,3,,,,1062766,,,,3,1,3,Cued4,MiniBlocks2,,,,,9,1,r,-999999,11,1197248,r,639,1197887,White,Congruent,r,Green,0,,0,10,1190252,,0,0,,,,,,,,,,9,1,9,Pictures\green.bmp,6000,16000,Pictures\left.bmp,,,,,,,,,,,,,StimulusPr,Pictures\black.bmp,CuedStim4,Left
POP_2,27026,1,"<?xml version=""1.0""?>\n<Clock xmlns:dt=""urn:schemas-microsoft-com:datatypes""><Description dt:dt=""string"">E-Prime Primary Realtime Clock</Description><StartTime><Timestamp dt:dt=""int"">0</Timestamp><DateUtc dt:dt=""string"">2014-05-28T21:13:39Z</DateUtc></StartTime><FrequencyChanges><FrequencyChange><Frequency dt:dt=""r8"">2793040000</Frequency><Timestamp dt:dt=""r8"">28378897113758</Timestamp><Current dt:dt=""r8"">0</Current><DateUtc dt:dt=""string"">2014-05-28T21:13:39Z</DateUtc></FrequencyChange></FrequencyChanges></Clock>\n",60.032,1,-2036404827,0,,-999999,15,23438,t,52467,75905,5/28/2014,14:13:39,9:13:39 PM,2,Session2,SessionsList,0,,-999999,8,713475,t,35761,749236,701331,2,1,2,3,,,,1062766,,,,3,1,3,Cued4,MiniBlocks2,,,,,10,1,r,-999999,10,1220253,r,768,1221021,White,Congruent,r,Green,0,,0,14,1215256,,0,0,,,,,,,,,,10,1,10,Pictures\green.bmp,4000,2000,Pictures\left.bmp,,,,,,,,,,,,,StimulusPr,Pictures\black.bmp,CuedStim4,Left
POP_2,27026,1,"<?xml version=""1.0""?>\n<Clock xmlns:dt=""urn:schemas-microsoft-com:datatypes""><Description dt:dt=""string"">E-Prime Primary Realtime Clock</Description><StartTime><Timestamp dt:dt=""int"">0</Timestamp><DateUtc dt:dt=""string"">2014-05-28T21:13:39Z</DateUtc></StartTime><FrequencyChanges><FrequencyChange><Frequency dt:dt=""r8"">2793040000</Frequency><Timestamp dt:dt=""r8"">28378897113758</Timestamp><Current dt:dt=""r8"">0</Current><DateUtc dt:dt=""string"">2014-05-28T21:13:39Z</DateUtc></FrequencyChange></FrequencyChanges></Clock>\n",60.032,1,-2036404827,0,,-999999,15,23438,t,52467,75905,5/28/2014,14:13:39,9:13:39 PM,2,Session2,SessionsList,0,,-999999,8,713475,t,35761,749236,701331,2,1,2,4,,,,,,,,4,1,4,NonCued4,MiniBlocks2,,,,1223052,1,1,r,-999999,15,1237245,r,635,1237880,Green,Congruent,r,White,0,,0,4,1233247,,0,0,,,,,,,,,,,,,Pictures\white.bmp,3000,2000,Pictures\GreenLeft.bmp,,,,,,,,,,1,1,1,StimulusPr,Pictures\black.bmp,NonCuedStim4,Left
POP_2,27026,1,"<?xml version=""1.0""?>\n<Clock xmlns:dt=""urn:schemas-microsoft-com:datatypes""><Description dt:dt=""string"">E-Prime Primary Realtime Clock</Description><StartTime><Timestamp dt:dt=""int"">0</Timestamp><DateUtc dt:dt=""string"">2014-05-28T21:13:39Z</DateUtc></StartTime><FrequencyChanges><FrequencyChange><Frequency dt:dt=""r8"">2793040000</Frequency><Timestamp dt:dt=""r8"">28378897113758</Timestamp><Current dt:dt=""r8"">0</Current><DateUtc dt:dt=""string"">2014-05-28T21:13:39Z</DateUtc></FrequencyChange></FrequencyChanges></Clock>\n",60.032,1,-2036404827,0,,-999999,15,23438,t,52467,75905,5/28/2014,14:13:39,9:13:39 PM,2,Session2,SessionsList,0,,-999999,8,713475,t,35761,749236,701331,2,1,2,4,,,,,,,,4,1,4,NonCued4,MiniBlocks2,,,,1223052,2,1,r,-999999,15,1246257,r,446,1246703,Green,Congruent,r,White,0,,0,14,1241243,,0,0,,,,,,,,,,,,,Pictures\white.bmp,4000,2000,Pictures\GreenLeft.bmp,,,,,,,,,,2,1,2,StimulusPr,Pictures\black.bmp,NonCuedStim4,Left
POP_2,27026,1,"<?xml version=""1.0""?>\n<Clock xmlns:dt=""urn:schemas-microsoft-com:datatypes""><Description dt:dt=""string"">E-Prime Primary Realtime Clock</Description><StartTime><Timestamp dt:dt=""int"">0</Timestamp><DateUtc dt:dt=""string"">2014-05-28T21:13:39Z</DateUtc></StartTime><FrequencyChanges><FrequencyChange><Frequency dt:dt=""r8"">2793040000</Frequency><Timestamp dt:dt=""r8"">28378897113758</Timestamp><Current dt:dt=""r8"">0</Current><DateUtc dt:dt=""string"">2014-05-28T21:13:39Z</DateUtc></FrequencyChange></FrequencyChanges></Clock>\n",60.032,1,-2036404827,0,,-999999,15,23438,t,52467,75905,5/28/2014,14:13:39,9:13:39 PM,2,Session2,SessionsList,0,,-999999,8,713475,t,35761,749236,701331,2,1,2,4,,,,,,,,4,1,4,NonCued4,MiniBlocks2,,,,1223052,3,1,r,-999999,10,1255252,r,579,1255831,Red,Incongruent,r,White,0,,0,11,1250238,,0,0,,,,,,,,,,,,,Pictures\white.bmp,4000,2000,Pictures\black.bmp,,,,,,,,,,3,1,3,StimulusPr,Pictures\RedRight.bmp,NonCuedStim4,Right
POP_2,27026,1,"<?xml version=""1.0""?>\n<Clock xmlns:dt=""urn:schemas-microsoft-com:datatypes""><Description dt:dt=""string"">E-Prime Primary Realtime Clock</Description><StartTime><Timestamp dt:dt=""int"">0</Timestamp><DateUtc dt:dt=""string"">2014-05-28T21:13:39Z</DateUtc></StartTime><FrequencyChanges><FrequencyChange><Frequency dt:dt=""r8"">2793040000</Frequency><Timestamp dt:dt=""r8"">28378897113758</Timestamp><Current dt:dt=""r8"">0</Current><DateUtc dt:dt=""string"">2014-05-28T21:13:39Z</DateUtc></FrequencyChange></FrequencyChanges></Clock>\n",60.032,1,-2036404827,0,,-999999,15,23438,t,52467,75905,5/28/2014,14:13:39,9:13:39 PM,2,Session2,SessionsList,0,,-999999,8,713475,t,35761,749236,701331,2,1,2,4,,,,,,,,4,1,4,NonCued4,MiniBlocks2,,,,1223052,4,1,b,-999999,6,1263248,b,590,1263838,Green,Congruent,b,White,0,,0,7,1259250,,0,0,,,,,,,,,,,,,Pictures\white.bmp,3000,16000,Pictures\black.bmp,,,,,,,,,,4,1,4,StimulusPr,Pictures\GreenRight.bmp,NonCuedStim4,Right
POP_2,27026,1,"<?xml version=""1.0""?>\n<Clock xmlns:dt=""urn:schemas-microsoft-com:datatypes""><Description dt:dt=""string"">E-Prime Primary Realtime Clock</Description><StartTime><Timestamp dt:dt=""int"">0</Timestamp><DateUtc dt:dt=""string"">2014-05-28T21:13:39Z</DateUtc></StartTime><FrequencyChanges><FrequencyChange><Frequency dt:dt=""r8"">2793040000</Frequency><Timestamp dt:dt=""r8"">28378897113758</Timestamp><Current dt:dt=""r8"">0</Current><DateUtc dt:dt=""string"">2014-05-28T21:13:39Z</DateUtc></FrequencyChange></FrequencyChanges></Clock>\n",60.032,1,-2036404827,0,,-999999,15,23438,t,52467,75905,5/28/2014,14:13:39,9:13:39 PM,2,Session2,SessionsList,0,,-999999,8,713475,t,35761,749236,701331,2,1,2,4,,,,,,,,4,1,4,NonCued4,MiniBlocks2,,,,1223052,5,1,r,-999999,9,1291251,r,491,1291742,Green,Congruent,r,White,0,,0,14,1281256,,0,0,,,,,,,,,,,,,Pictures\white.bmp,9000,10000,Pictures\GreenLeft.bmp,,,,,,,,,,5,1,5,StimulusPr,Pictures\black.bmp,NonCuedStim4,Left
POP_2,27026,1,"<?xml version=""1.0""?>\n<Clock xmlns:dt=""urn:schemas-microsoft-com:datatypes""><Description dt:dt=""string"">E-Prime Primary Realtime Clock</Description><StartTime><Timestamp dt:dt=""int"">0</Timestamp><DateUtc dt:dt=""string"">2014-05-28T21:13:39Z</DateUtc></StartTime><FrequencyChanges><FrequencyChange><Frequency dt:dt=""r8"">2793040000</Frequency><Timestamp dt:dt=""r8"">28378897113758</Timestamp><Current dt:dt=""r8"">0</Current><DateUtc dt:dt=""string"">2014-05-28T21:13:39Z</DateUtc></FrequencyChange></FrequencyChanges></Clock>\n",60.032,1,-2036404827,0,,-999999,15,23438,t,52467,75905,5/28/2014,14:13:39,9:13:39 PM,2,Session2,SessionsList,0,,-999999,8,713475,t,35761,749236,701331,2,1,2,4,,,,,,,,4,1,4,NonCued4,MiniBlocks2,,,,1223052,6,1,b,-999999,18,1307260,b,525,1307785,Green,Congruent,b,White,0,,0,3,1303245,,0,0,,,,,,,,,,,,,Pictures\white.bmp,3000,16000,Pictures\black.bmp,,,,,,,,,,6,1,6,StimulusPr,Pictures\GreenRight.bmp,NonCuedStim4,Right
POP_2,27026,1,"<?xml version=""1.0""?>\n<Clock xmlns:dt=""urn:schemas-microsoft-com:datatypes""><Description dt:dt=""string"">E-Prime Primary Realtime Clock</Description><StartTime><Timestamp dt:dt=""int"">0</Timestamp><DateUtc dt:dt=""string"">2014-05-28T21:13:39Z</DateUtc></StartTime><FrequencyChanges><FrequencyChange><Frequency dt:dt=""r8"">2793040000</Frequency><Timestamp dt:dt=""r8"">28378897113758</Timestamp><Current dt:dt=""r8"">0</Current><DateUtc dt:dt=""string"">2014-05-28T21:13:39Z</DateUtc></FrequencyChange></FrequencyChanges></Clock>\n",60.032,1,-2036404827,0,,-999999,15,23438,t,52467,75905,5/28/2014,14:13:39,9:13:39 PM,2,Session2,SessionsList,0,,-999999,8,713475,t,35761,749236,701331,2,1,2,4,,,,,,,,4,1,4,NonCued4,MiniBlocks2,,,,1223052,7,1,b,-999999,5,1329232,b,692,1329924,Red,Incongruent,b,White,0,,0,6,1325234,,0,0,,,,,,,,,,,,,Pictures\white.bmp,3000,16000,Pictures\RedLeft.bmp,,,,,,,,,,7,1,7,StimulusPr,Pictures\black.bmp,NonCuedStim4,Left
POP_2,27026,1,"<?xml version=""1.0""?>\n<Clock xmlns:dt=""urn:schemas-microsoft-com:datatypes""><Description dt:dt=""string"">E-Prime Primary Realtime Clock</Description><StartTime><Timestamp dt:dt=""int"">0</Timestamp><DateUtc dt:dt=""string"">2014-05-28T21:13:39Z</DateUtc></StartTime><FrequencyChanges><FrequencyChange><Frequency dt:dt=""r8"">2793040000</Frequency><Timestamp dt:dt=""r8"">28378897113758</Timestamp><Current dt:dt=""r8"">0</Current><DateUtc dt:dt=""string"">2014-05-28T21:13:39Z</DateUtc></FrequencyChange></FrequencyChanges></Clock>\n",60.032,1,-2036404827,0,,-999999,15,23438,t,52467,75905,5/28/2014,14:13:39,9:13:39 PM,2,Session2,SessionsList,0,,-999999,8,713475,t,35761,749236,701331,2,1,2,4,,,,,,,,4,1,4,NonCued4,MiniBlocks2,,,,1223052,8,1,r,-999999,12,1351254,r,399,1351653,Green,Congruent,r,White,0,,0,14,1347256,,0,0,,,,,,,,,,,,,Pictures\white.bmp,3000,2000,Pictures\GreenLeft.bmp,,,,,,,,,,8,1,8,StimulusPr,Pictures\black.bmp,NonCuedStim4,Left
POP_2,27026,1,"<?xml version=""1.0""?>\n<Clock xmlns:dt=""urn:schemas-microsoft-com:datatypes""><Description dt:dt=""string"">E-Prime Primary Realtime Clock</Description><StartTime><Timestamp dt:dt=""int"">0</Timestamp><DateUtc dt:dt=""string"">2014-05-28T21:13:39Z</DateUtc></StartTime><FrequencyChanges><FrequencyChange><Frequency dt:dt=""r8"">2793040000</Frequency><Timestamp dt:dt=""r8"">28378897113758</Timestamp><Current dt:dt=""r8"">0</Current><DateUtc dt:dt=""string"">2014-05-28T21:13:39Z</DateUtc></FrequencyChange></FrequencyChanges></Clock>\n",60.032,1,-2036404827,0,,-999999,15,23438,t,52467,75905,5/28/2014,14:13:39,9:13:39 PM,2,Session2,SessionsList,0,,-999999,8,713475,t,35761,749236,701331,2,1,2,4,,,,,,,,4,1,4,NonCued4,MiniBlocks2,,,,1223052,9,1,b,-999999,7,1362249,b,425,1362674,Green,Congruent,b,White,0,,0,10,1355252,,0,0,,,,,,,,,,,,,Pictures\white.bmp,6000,2000,Pictures\black.bmp,,,,,,,,,,9,1,9,StimulusPr,Pictures\GreenRight.bmp,NonCuedStim4,Right
POP_2,27026,1,"<?xml version=""1.0""?>\n<Clock xmlns:dt=""urn:schemas-microsoft-com:datatypes""><Description dt:dt=""string"">E-Prime Primary Realtime Clock</Description><StartTime><Timestamp dt:dt=""int"">0</Timestamp><DateUtc dt:dt=""string"">2014-05-28T21:13:39Z</DateUtc></StartTime><FrequencyChanges><FrequencyChange><Frequency dt:dt=""r8"">2793040000</Frequency><Timestamp dt:dt=""r8"">28378897113758</Timestamp><Current dt:dt=""r8"">0</Current><DateUtc dt:dt=""string"">2014-05-28T21:13:39Z</DateUtc></FrequencyChange></FrequencyChanges></Clock>\n",60.032,1,-2036404827,0,,-999999,15,23438,t,52467,75905,5/28/2014,14:13:39,9:13:39 PM,2,Session2,SessionsList,0,,-999999,8,713475,t,35761,749236,701331,2,1,2,4,,,,,,,,4,1,4,NonCued4,MiniBlocks2,,,,1223052,10,1,b,-999999,2,1371244,b,427,1371671,Green,Congruent,b,White,0,,0,5,1366247,,0,0,,,,,,,,,,,,,Pictures\white.bmp,4000,4000,Pictures\black.bmp,,,,,,,,,,10,1,10,StimulusPr,Pictures\GreenRight.bmp,NonCuedStim4,Right
