ExperimentName,Subject,Session,Clock.Information,Display.RefreshRate,Group,RandomSeed,Session1Onset.ACC,Session1Onset.CRESP,Session1Onset.DurationError,Session1Onset.OnsetDelay,Session1Onset.OnsetTime,Session1Onset.RESP,Session1Onset.RT,Session1Onset.RTTime,SessionDate,SessionTime,SessionTimeUtc,Block,Procedure[Block],Running[Block],Session2Onset.ACC,Session2Onset.CRESP,Session2Onset.DurationError,Session2Onset.OnsetDelay,Session2Onset.OnsetTime,Session2Onset.RESP,Session2Onset.RT,Session2Onset.RTTime,SessionBreak.OnsetTime,SessionsList,SessionsList.Cycle,SessionsList.Sample,Trial,CuedPrompt1.OnsetTime,CuedPrompt2.OnsetTime,CuedPrompt3.OnsetTime,CuedPrompt4.OnsetTime,MiniBlocks1,MiniBlocks1.Cycle,MiniBlocks1.Sample,MiniBlocks2,MiniBlocks2.Cycle,MiniBlocks2.Sample,Procedure[Trial],Running[Trial],UncuedPrompt1.OnsetTime,UncuedPrompt2.OnsetTime,UncuedPrompt3.OnsetTime,UncuedPrompt4.OnsetTime,SubTrial,Arrow1.ACC,Arrow1.CRESP,Arrow1.DurationError,Arrow1.OnsetDelay,Arrow1.OnsetTime,Arrow1.RESP,Arrow1.RT,Arrow1.RTTime,ArrowColor,Congruence,CorrectResp,Cue,Cue.ACC,Cue.CRESP,Cue.DurationError,Cue.OnsetDelay,Cue.OnsetTime,Cue.RESP,Cue.RT,Cue.RTTime,CuedStim1,CuedStim1.Cycle,CuedStim1.Sample,CuedStim2,CuedStim2.Cycle,CuedStim2.Sample,CuedStim3,CuedStim3.Cycle,CuedStim3.Sample,CuedStim4,CuedStim4.Cycle,CuedStim4.Sample,CueImage,JitterCue,JitterTrial,LeftImage,NonCuedStim1,NonCuedStim1.Cycle,NonCuedStim1.Sample,NonCuedStim2,NonCuedStim2.Cycle,NonCuedStim2.Sample,NonCuedStim3,NonCuedStim3.Cycle,NonCuedStim3.Sample,NonCuedStim4,NonCuedStim4.Cycle,NonCuedStim4.Sample,Procedure[SubTrial],RightImage,Running[SubTrial],Stimulus
POP_2,16053,1,"<?xml version=""1.0""?>\n<Clock xmlns:dt=""urn:schemas-microsoft-com:datatypes""><Description dt:dt=""string"">E-Prime Primary Realtime Clock</Description><StartTime><Timestamp dt:dt=""int"">0</Timestamp><DateUtc dt:dt=""string"">2014-05-19T21:52:51Z</DateUtc></StartTime><FrequencyChanges><FrequencyChange><Frequency dt:dt=""r8"">2793030000</Frequency><Timestamp dt:dt=""r8"">2.93113039740002E+15</Timestamp><Current dt:dt=""r8"">0</Current><DateUtc dt:dt=""string"">2014-05-19T21:52:51Z</DateUtc></FrequencyChange></FrequencyChanges></Clock>\n",60.031,1,437584494,0,,-999999,14,43843,t,60099,103942,5/19/2014,14:52:52,9:52:52 PM,1,Session1,SessionsList,,,,,,,,,,1,1,1,1,,,,,,,,1,1,1,NonCued3,MiniBlocks2,,,103947,,1,1,b,-999999,13,123970,b,577,124547,Green,Congruent,b,White,0,,0,18,113975,,0,0,,,,,,,,,,,,,Pictures\white.bmp,9000,10000,Pictures\black.bmp,,,,,,,1,1,1,,,,StimulusPr,Pictures\GreenRight.bmp,NonCuedStim3,Right
POP_2,16053,1,"<?xml version=""1.0""?>\n<Clock xmlns:dt=""urn:schemas-microsoft-com:datatypes""><Description dt:dt=""string"">E-Prime Primary Realtime Clock</Description><StartTime><Timestamp dt:dt=""int"">0</Timestamp><DateUtc dt:dt=""string"">2014-05-19T21:52:51Z</DateUtc></StartTime><FrequencyChanges><FrequencyChange><Frequency dt:dt=""r8"">2793030000</Frequency><Timestamp dt:dt=""r8"">2.93113039740002E+15</Timestamp><Current dt:dt=""r8"">0</Current><DateUtc dt:dt=""string"">2014-05-19T21:52:51Z</DateUtc></FrequencyChange></FrequencyChanges></Clock>\n",60.031,1,437584494,0,,-999999,14,43843,t,60099,103942,5/19/2014,14:52:52,9:52:52 PM,1,Session1,SessionsList,,,,,,,,,,1,1,1,1,,,,,,,,1,1,1,NonCued3,MiniBlocks2,,,103947,,2,1,r,-999999,19,145976,r,717,146693,Red,Incongruent,r,White,0,,0,7,135964,,0,0,,,,,,,,,,,,,Pictures\white.bmp,9000,10000,Pictures\black.bmp,,,,,,,2,1,2,,,,StimulusPr,Pictures\RedRight.bmp,NonCuedStim3,Right
POP_2,16053,1,"<?xml version=""1.0""?>\n<Clock xmlns:dt=""urn:schemas-microsoft-com:datatypes""><Description dt:dt=""string"">E-Prime Primary Realtime Clock</Description><StartTime><Timestamp dt:dt=""int"">0</Timestamp><DateUtc dt:dt=""string"">2014-05-19T21:52:51Z</DateUtc></StartTime><FrequencyChanges><FrequencyChange><Frequency dt:dt=""r8"">2793030000</Frequency><Timestamp dt:dt=""r8"">2.93113039740002E+15</Timestamp><Current dt:dt=""r8"">0</Current><DateUtc dt:dt=""string"">2014-05-19T21:52:51Z</DateUtc></FrequencyChange></FrequencyChanges></Clock>\n",60.031,1,437584494,0,,-999999,14,43843,t,60099,103942,5/19/2014,14:52:52,9:52:52 PM,1,Session1,SessionsList,,,,,,,,,,1,1,1,1,,,,,,,,1,1,1,NonCued3,MiniBlocks2,,,103947,,3,1,r,-999999,10,162967,r,512,163479,Green,Congruent,r,White,0,,0,13,157970,,0,0,,,,,,,,,,,,,Pictures\white.bmp,4000,4000,Pictures\GreenLeft.bmp,,,,,,,3,1,3,,,,StimulusPr,Pictures\black.bmp,NonCuedStim3,Left
POP_2,16053,1,"<?xml version=""1.0""?>\n<Clock xmlns:dt=""urn:schemas-microsoft-com:datatypes""><Description dt:dt=""string"">E-Prime Primary Realtime Clock</Description><StartTime><Timestamp dt:dt=""int"">0</Timestamp><DateUtc dt:dt=""string"">2014-05-19T21:52:51Z</DateUtc></StartTime><FrequencyChanges><FrequencyChange><Frequency dt:dt=""r8"">2793030000</Frequency><Timestamp dt:dt=""r8"">2.93113039740002E+15</Timestamp><Current dt:dt=""r8"">0</Current><DateUtc dt:dt=""string"">2014-05-19T21:52:51Z</DateUtc></FrequencyChange></FrequencyChanges></Clock>\n",60.031,1,437584494,0,,-999999,14,43843,t,60099,103942,5/19/2014,14:52:52,9:52:52 PM,1,Session1,SessionsList,,,,,,,,,,1,1,1,1,,,,,,,,1,1,1,NonCued3,MiniBlocks2,,,103947,,4,1,b,-999999,17,175961,b,556,176517,Red,Incongruent,b,White,0,,0,7,168964,,0,0,,,,,,,,,,,,,Pictures\white.bmp,6000,4000,Pictures\RedLeft.bmp,,,,,,,4,1,4,,,,StimulusPr,Pictures\black.bmp,NonCuedStim3,Left
POP_2,16053,1,"<?xml version=""1.0""?>\n<Clock xmlns:dt=""urn:schemas-microsoft-com:datatypes""><Description dt:dt=""string"">E-Prime Primary Realtime Clock</Description><StartTime><Timestamp dt:dt=""int"">0</Timestamp><DateUtc dt:dt=""string"">2014-05-19T21:52:51Z</DateUtc></StartTime><FrequencyChanges><FrequencyChange><Frequency dt:dt=""r8"">2793030000</Frequency><Timestamp dt:dt=""r8"">2.93113039740002E+15</Timestamp><Current dt:dt=""r8"">0</Current><DateUtc dt:dt=""string"">2014-05-19T21:52:51Z</DateUtc></FrequencyChange></FrequencyChanges></Clock>\n",60.031,1,437584494,0,,-999999,14,43843,t,60099,103942,5/19/2014,14:52:52,9:52:52 PM,1,Session1,SessionsList,,,,,,,,,,1,1,1,1,,,,,,,,1,1,1,NonCued3,MiniBlocks2,,,103947,,5,1,b,-999999,15,185972,b,556,186528,Green,Congruent,b,White,0,,0,17,181974,,0,0,,,,,,,,,,,,,Pictures\white.bmp,3000,2000,Pictures\black.bmp,,,,,,,5,1,5,,,,StimulusPr,Pictures\GreenRight.bmp,NonCuedStim3,Right
POP_2,16053,1,"<?xml version=""1.0""?>\n<Clock xmlns:dt=""urn:schemas-microsoft-com:datatypes""><Description dt:dt=""string"">E-Prime Primary Realtime Clock</Description><StartTime><Timestamp dt:dt=""int"">0</Timestamp><DateUtc dt:dt=""string"">2014-05-19T21:52:51Z</DateUtc></StartTime><FrequencyChanges><FrequencyChange><Frequency dt:dt=""r8"">2793030000</Frequency><Timestamp dt:dt=""r8"">2.93113039740002E+15</Timestamp><Current dt:dt=""r8"">0</Current><DateUtc dt:dt=""string"">2014-05-19T21:52:51Z</DateUtc></FrequencyChange></FrequencyChanges></Clock>\n",60.031,1,437584494,0,,-999999,14,43843,t,60099,103942,5/19/2014,14:52:52,9:52:52 PM,1,Session1,SessionsList,,,,,,,,,,1,1,1,1,,,,,,,,1,1,1,NonCued3,MiniBlocks2,,,103947,,6,1,r,-999999,11,193968,r,646,194614,Green,Congruent,r,White,0,,0,12,189954,,0,0,,,,,,,,,,,,,Pictures\white.bmp,3000,2000,Pictures\GreenLeft.bmp,,,,,,,6,1,6,,,,StimulusPr,Pictures\black.bmp,NonCuedStim3,Left
POP_2,16053,1,"<?xml version=""1.0""?>\n<Clock xmlns:dt=""urn:schemas-microsoft-com:datatypes""><Description dt:dt=""string"">E-Prime Primary Realtime Clock</Description><StartTime><Timestamp dt:dt=""int"">0</Timestamp><DateUtc dt:dt=""string"">2014-05-19T21:52:51Z</DateUtc></StartTime><FrequencyChanges><FrequencyChange><Frequency dt:dt=""r8"">2793030000</Frequency><Timestamp dt:dt=""r8"">2.93113039740002E+15</Timestamp><Current dt:dt=""r8"">0</Current><DateUtc dt:dt=""string"">2014-05-19T21:52:51Z</DateUtc></FrequencyChange></FrequencyChanges></Clock>\n",60.031,1,437584494,0,,-999999,14,43843,t,60099,103942,5/19/2014,14:52:52,9:52:52 PM,1,Session1,SessionsList,,,,,,,,,,1,1,1,1,,,,,,,,1,1,1,NonCued3,MiniBlocks2,,,103947,,7,1,b,-999999,6,204963,b,526,205489,Green,Congruent,b,White,0,,0,8,197950,,0,0,,,,,,,,,,,,,Pictures\white.bmp,6000,16000,Pictures\black.bmp,,,,,,,7,1,7,,,,StimulusPr,Pictures\GreenRight.bmp,NonCuedStim3,Right
POP_2,16053,1,"<?xml version=""1.0""?>\n<Clock xmlns:dt=""urn:schemas-microsoft-com:datatypes""><Description dt:dt=""string"">E-Prime Primary Realtime Clock</Description><StartTime><Timestamp dt:dt=""int"">0</Timestamp><DateUtc dt:dt=""string"">2014-05-19T21:52:51Z</DateUtc></StartTime><FrequencyChanges><FrequencyChange><Frequency dt:dt=""r8"">2793030000</Frequency><Timestamp dt:dt=""r8"">2.93113039740002E+15</Timestamp><Current dt:dt=""r8"">0</Current><DateUtc dt:dt=""string"">2014-05-19T21:52:51Z</DateUtc></FrequencyChange></FrequencyChanges></Clock>\n",60.031,1,437584494,0,,-999999,14,43843,t,60099,103942,5/19/2014,14:52:52,9:52:52 PM,1,Session1,SessionsList,,,,,,,,,,1,1,1,1,,,,,,,,1,1,1,NonCued3,MiniBlocks2,,,103947,,8,1,r,-999999,12,226969,r,486,227455,Red,Incongruent,r,White,0,,0,4,222954,,0,0,,,,,,,,,,,,,Pictures\white.bmp,3000,2000,Pictures\black.bmp,,,,,,,8,1,8,,,,StimulusPr,Pictures\RedRight.bmp,NonCuedStim3,Right
POP_2,16053,1,"<?xml version=""1.0""?>\n<Clock xmlns:dt=""urn:schemas-microsoft-com:datatypes""><Description dt:dt=""string"">E-Prime Primary Realtime Clock</Description><StartTime><Timestamp dt:dt=""int"">0</Timestamp><DateUtc dt:dt=""string"">2014-05-19T21:52:51Z</DateUtc></StartTime><FrequencyChanges><FrequencyChange><Frequency dt:dt=""r8"">2793030000</Frequency><Timestamp dt:dt=""r8"">2.93113039740002E+15</Timestamp><Current dt:dt=""r8"">0</Current><DateUtc dt:dt=""string"">2014-05-19T21:52:51Z</DateUtc></FrequencyChange></FrequencyChanges></Clock>\n",60.031,1,437584494,0,,-999999,14,43843,t,60099,103942,5/19/2014,14:52:52,9:52:52 PM,1,Session1,SessionsList,,,,,,,,,,1,1,1,1,,,,,,,,1,1,1,NonCued3,MiniBlocks2,,,103947,,9,1,r,-999999,3,240945,r,567,241512,Green,Congruent,r,White,0,,0,2,230951,,0,0,,,,,,,,,,,,,Pictures\white.bmp,9000,10000,Pictures\GreenLeft.bmp,,,,,,,9,1,9,,,,StimulusPr,Pictures\black.bmp,NonCuedStim3,Left
POP_2,16053,1,"<?xml version=""1.0""?>\n<Clock xmlns:dt=""urn:schemas-microsoft-com:datatypes""><Description dt:dt=""string"">E-Prime Primary Realtime Clock</Description><StartTime><Timestamp dt:dt=""int"">0</Timestamp><DateUtc dt:dt=""string"">2014-05-19T21:52:51Z</DateUtc></StartTime><FrequencyChanges><FrequencyChange><Frequency dt:dt=""r8"">2793030000</Frequency><Timestamp dt:dt=""r8"">2.93113039740002E+15</Timestamp><Current dt:dt=""r8"">0</Current><DateUtc dt:dt=""string"">2014-05-19T21:52:51Z</DateUtc></FrequencyChange></FrequencyChanges></Clock>\n",60.031,1,437584494,0,,-999999,14,43843,t,60099,103942,5/19/2014,14:52:52,9:52:52 PM,1,Session1,SessionsList,,,,,,,,,,1,1,1,1,,,,,,,,1,1,1,NonCued3,MiniBlocks2,,,103947,,10,1,r,-999999,6,259952,r,484,260436,Green,Congruent,r,White,0,,0,13,252956,,0,0,,,,,,,,,,,,,Pictures\white.bmp,6000,4000,Pictures\GreenLeft.bmp,,,,,,,10,1,10,,,,StimulusPr,Pictures\black.bmp,NonCuedStim3,Left
POP_2,16053,1,"<?xml version=""1.0""?>\n<Clock xmlns:dt=""urn:schemas-microsoft-com:datatypes""><Description dt:dt=""string"">E-Prime Primary Realtime Clock</Description><StartTime><Timestamp dt:dt=""int"">0</Timestamp><DateUtc dt:dt=""string"">2014-05-19T21:52:51Z</DateUtc></StartTime><FrequencyChanges><FrequencyChange><Frequency dt:dt=""r8"">2793030000</Frequency><Timestamp dt:dt=""r8"">2.93113039740002E+15</Timestamp><Current dt:dt=""r8"">0</Current><DateUtc dt:dt=""string"">2014-05-19T21:52:51Z</DateUtc></FrequencyChange></FrequencyChanges></Clock>\n",60.031,1,437584494,0,,-999999,14,43843,t,60099,103942,5/19/2014,14:52:52,9:52:52 PM,1,Session1,SessionsList,,,,,,,,,,1,1,1,2,,,264467,,,,,2,1,2,Cued3,MiniBlocks2,,,,,1,1,b,-999999,12,278959,b,441,279400,White,Congruent,b,Green,0,,0,4,274961,,0,0,,,,,,,1,1,1,,,,Pictures\green.bmp,3000,2000,Pictures\black.bmp,,,,,,,,,,,,,StimulusPr,Pictures\right.bmp,CuedStim3,Right
POP_2,16053,1,"<?xml version=""1.0""?>\n<Clock xmlns:dt=""urn:schemas-microsoft-com:datatypes""><Description dt:dt=""string"">E-Prime Primary Realtime Clock</Description><StartTime><Timestamp dt:dt=""int"">0</Timestamp><DateUtc dt:dt=""string"">2014-05-19T21:52:51Z</DateUtc></StartTime><FrequencyChanges><FrequencyChange><Frequency dt:dt=""r8"">2793030000</Frequency><Timestamp dt:dt=""r8"">2.93113039740002E+15</Timestamp><Current dt:dt=""r8"">0</Current><DateUtc dt:dt=""string"">2014-05-19T21:52:51Z</DateUtc></FrequencyChange></FrequencyChanges></Clock>\n",60.031,1,437584494,0,,-999999,14,43843,t,60099,103942,5/19/2014,14:52:52,9:52:52 PM,1,Session1,SessionsList,,,,,,,,,,1,1,1,2,,,264467,,,,,2,1,2,Cued3,MiniBlocks2,,,,,2,1,b,-999999,15,286972,b,342,287314,White,Congruent,b,Green,0,,0,15,282957,,0,0,,,,,,,2,1,2,,,,Pictures\green.bmp,3000,10000,Pictures\black.bmp,,,,,,,,,,,,,StimulusPr,Pictures\right.bmp,CuedStim3,Right
POP_2,16053,1,"<?xml version=""1.0""?>\n<Clock xmlns:dt=""urn:schemas-microsoft-com:datatypes""><Description dt:dt=""string"">E-Prime Primary Realtime Clock</Description><StartTime><Timestamp dt:dt=""int"">0</Timestamp><DateUtc dt:dt=""string"">2014-05-19T21:52:51Z</DateUtc></StartTime><FrequencyChanges><FrequencyChange><Frequency dt:dt=""r8"">2793030000</Frequency><Timestamp dt:dt=""r8"">2.93113039740002E+15</Timestamp><Current dt:dt=""r8"">0</Current><DateUtc dt:dt=""string"">2014-05-19T21:52:51Z</DateUtc></FrequencyChange></FrequencyChanges></Clock>\n",60.031,1,437584494,0,,-999999,14,43843,t,60099,103942,5/19/2014,14:52:52,9:52:52 PM,1,Session1,SessionsList,,,,,,,,,,1,1,1,2,,,264467,,,,,2,1,2,Cued3,MiniBlocks2,,,,,3,1,r,-999999,4,308961,r,326,309287,White,Congruent,r,Green,0,,0,9,298966,,0,0,,,,,,,3,1,3,,,,Pictures\green.bmp,9000,2000,Pictures\left.bmp,,,,,,,,,,,,,StimulusPr,Pictures\black.bmp,CuedStim3,Left
POP_2,16053,1,"<?xml version=""1.0""?>\n<Clock xmlns:dt=""urn:schemas-microsoft-com:datatypes""><Description dt:dt=""string"">E-Prime Primary Realtime Clock</Description><StartTime><Timestamp dt:dt=""int"">0</Timestamp><DateUtc dt:dt=""string"">2014-05-19T21:52:51Z</DateUtc></StartTime><FrequencyChanges><FrequencyChange><Frequency dt:dt=""r8"">2793030000</Frequency><Timestamp dt:dt=""r8"">2.93113039740002E+15</Timestamp><Current dt:dt=""r8"">0</Current><DateUtc dt:dt=""string"">2014-05-19T21:52:51Z</DateUtc></FrequencyChange></FrequencyChanges></Clock>\n",60.031,1,437584494,0,,-999999,14,43843,t,60099,103942,5/19/2014,14:52:52,9:52:52 PM,1,Session1,SessionsList,,,,,,,,,,1,1,1,2,,,264467,,,,,2,1,2,Cued3,MiniBlocks2,,,,,4,1,r,-999999,16,317973,r,468,318441,White,Congruent,r,Green,0,,0,6,312959,,0,0,,,,,,,4,1,4,,,,Pictures\green.bmp,4000,16000,Pictures\left.bmp,,,,,,,,,,,,,StimulusPr,Pictures\black.bmp,CuedStim3,Left
POP_2,16053,1,"<?xml version=""1.0""?>\n<Clock xmlns:dt=""urn:schemas-microsoft-com:datatypes""><Description dt:dt=""string"">E-Prime Primary Realtime Clock</Description><StartTime><Timestamp dt:dt=""int"">0</Timestamp><DateUtc dt:dt=""string"">2014-05-19T21:52:51Z</DateUtc></StartTime><FrequencyChanges><FrequencyChange><Frequency dt:dt=""r8"">2793030000</Frequency><Timestamp dt:dt=""r8"">2.93113039740002E+15</Timestamp><Current dt:dt=""r8"">0</Current><DateUtc dt:dt=""string"">2014-05-19T21:52:51Z</DateUtc></FrequencyChange></FrequencyChanges></Clock>\n",60.031,1,437584494,0,,-999999,14,43843,t,60099,103942,5/19/2014,14:52:52,9:52:52 PM,1,Session1,SessionsList,,,,,,,,,,1,1,1,2,,,264467,,,,,2,1,2,Cued3,MiniBlocks2,,,,,5,1,r,-999999,5,339962,r,384,340346,White,Incongruent,r,Red,0,,0,2,335948,,0,0,,,,,,,5,1,5,,,,Pictures\red.bmp,3000,4000,Pictures\black.bmp,,,,,,,,,,,,,StimulusPr,Pictures\right.bmp,CuedStim3,Right
POP_2,16053,1,"<?xml version=""1.0""?>\n<Clock xmlns:dt=""urn:schemas-microsoft-com:datatypes""><Description dt:dt=""string"">E-Prime Primary Realtime Clock</Description><StartTime><Timestamp dt:dt=""int"">0</Timestamp><DateUtc dt:dt=""string"">2014-05-19T21:52:51Z</DateUtc></StartTime><FrequencyChanges><FrequencyChange><Frequency dt:dt=""r8"">2793030000</Frequency><Timestamp dt:dt=""r8"">2.93113039740002E+15</Timestamp><Current dt:dt=""r8"">0</Current><DateUtc dt:dt=""string"">2014-05-19T21:52:51Z</DateUtc></FrequencyChange></FrequencyChanges></Clock>\n",60.031,1,437584494,0,,-999999,14,43843,t,60099,103942,5/19/2014,14:52:52,9:52:52 PM,1,Session1,SessionsList,,,,,,,,,,1,1,1,2,,,264467,,,,,2,1,2,Cued3,MiniBlocks2,,,,,6,1,b,-999999,15,352972,b,360,353332,White,Congruent,b,Green,0,,0,4,345959,,0,0,,,,,,,6,1,6,,,,Pictures\green.bmp,6000,4000,Pictures\black.bmp,,,,,,,,,,,,,StimulusPr,Pictures\right.bmp,CuedStim3,Right
POP_2,16053,1,"<?xml version=""1.0""?>\n<Clock xmlns:dt=""urn:schemas-microsoft-com:datatypes""><Description dt:dt=""string"">E-Prime Primary Realtime Clock</Description><StartTime><Timestamp dt:dt=""int"">0</Timestamp><DateUtc dt:dt=""string"">2014-05-19T21:52:51Z</DateUtc></StartTime><FrequencyChanges><FrequencyChange><Frequency dt:dt=""r8"">2793030000</Frequency><Timestamp dt:dt=""r8"">2.93113039740002E+15</Timestamp><Current dt:dt=""r8"">0</Current><DateUtc dt:dt=""string"">2014-05-19T21:52:51Z</DateUtc></FrequencyChange></FrequencyChanges></Clock>\n",60.031,1,437584494,0,,-999999,14,43843,t,60099,103942,5/19/2014,14:52:52,9:52:52 PM,1,Session1,SessionsList,,,,,,,,,,1,1,1,2,,,264467,,,,,2,1,2,Cued3,MiniBlocks2,,,,,7,1,r,-999999,9,363950,r,387,364337,White,Congruent,r,Green,0,,0,12,358969,,0,0,,,,,,,7,1,7,,,,Pictures\green.bmp,4000,16000,Pictures\left.bmp,,,,,,,,,,,,,StimulusPr,Pictures\black.bmp,CuedStim3,Left
POP_2,16053,1,"<?xml version=""1.0""?>\n<Clock xmlns:dt=""urn:schemas-microsoft-com:datatypes""><Description dt:dt=""string"">E-Prime Primary Realtime Clock</Description><StartTime><Timestamp dt:dt=""int"">0</Timestamp><DateUtc dt:dt=""string"">2014-05-19T21:52:51Z</DateUtc></StartTime><FrequencyChanges><FrequencyChange><Frequency dt:dt=""r8"">2793030000</Frequency><Timestamp dt:dt=""r8"">2.93113039740002E+15</Timestamp><Current dt:dt=""r8"">0</Current><DateUtc dt:dt=""string"">2014-05-19T21:52:51Z</DateUtc></FrequencyChange></FrequencyChanges></Clock>\n",60.031,1,437584494,0,,-999999,14,43843,t,60099,103942,5/19/2014,14:52:52,9:52:52 PM,1,Session1,SessionsList,,,,,,,,,,1,1,1,2,,,264467,,,,,2,1,2,Cued3,MiniBlocks2,,,,,8,1,b,-999999,15,385956,b,475,386431,White,Incongruent,b,Red,0,,0,18,381975,,0,0,,,,,,,8,1,8,,,,Pictures\red.bmp,3000,2000,Pictures\left.bmp,,,,,,,,,,,,,StimulusPr,Pictures\black.bmp,CuedStim3,Left
POP_2,16053,1,"<?xml version=""1.0""?>\n<Clock xmlns:dt=""urn:schemas-microsoft-com:datatypes""><Description dt:dt=""string"">E-Prime Primary Realtime Clock</Description><StartTime><Timestamp dt:dt=""int"">0</Timestamp><DateUtc dt:dt=""string"">2014-05-19T21:52:51Z</DateUtc></StartTime><FrequencyChanges><FrequencyChange><Frequency dt:dt=""r8"">2793030000</Frequency><Timestamp dt:dt=""r8"">2.93113039740002E+15</Timestamp><Current dt:dt=""r8"">0</Current><DateUtc dt:dt=""string"">2014-05-19T21:52:51Z</DateUtc></FrequencyChange></FrequencyChanges></Clock>\n",60.031,1,437584494,0,,-999999,14,43843,t,60099,103942,5/19/2014,14:52:52,9:52:52 PM,1,Session1,SessionsList,,,,,,,,,,1,1,1,2,,,264467,,,,,2,1,2,Cued3,MiniBlocks2,,,,,9,1,r,-999999,12,393969,r,532,394501,White,Congruent,r,Green,0,,0,14,389971,,0,0,,,,,,,9,1,9,,,,Pictures\green.bmp,3000,2000,Pictures\left.bmp,,,,,,,,,,,,,StimulusPr,Pictures\black.bmp,CuedStim3,Left
POP_2,16053,1,"<?xml version=""1.0""?>\n<Clock xmlns:dt=""urn:schemas-microsoft-com:datatypes""><Description dt:dt=""string"">E-Prime Primary Realtime Clock</Description><StartTime><Timestamp dt:dt=""int"">0</Timestamp><DateUtc dt:dt=""string"">2014-05-19T21:52:51Z</DateUtc></StartTime><FrequencyChanges><FrequencyChange><Frequency dt:dt=""r8"">2793030000</Frequency><Timestamp dt:dt=""r8"">2.93113039740002E+15</Timestamp><Current dt:dt=""r8"">0</Current><DateUtc dt:dt=""string"">2014-05-19T21:52:51Z</DateUtc></FrequencyChange></FrequencyChanges></Clock>\n",60.031,1,437584494,0,,-999999,14,43843,t,60099,103942,5/19/2014,14:52:52,9:52:52 PM,1,Session1,SessionsList,,,,,,,,,,1,1,1,2,,,264467,,,,,2,1,2,Cued3,MiniBlocks2,,,,,10,1,b,-999999,4,407945,b,348,408293,White,Congruent,b,Green,0,,0,6,397950,,0,0,,,,,,,10,1,10,,,,Pictures\green.bmp,9000,10000,Pictures\black.bmp,,,,,,,,,,,,,StimulusPr,Pictures\right.bmp,CuedStim3,Right
POP_2,16053,1,"<?xml version=""1.0""?>\n<Clock xmlns:dt=""urn:schemas-microsoft-com:datatypes""><Description dt:dt=""string"">E-Prime Primary Realtime Clock</Description><StartTime><Timestamp dt:dt=""int"">0</Timestamp><DateUtc dt:dt=""string"">2014-05-19T21:52:51Z</DateUtc></StartTime><FrequencyChanges><FrequencyChange><Frequency dt:dt=""r8"">2793030000</Frequency><Timestamp dt:dt=""r8"">2.93113039740002E+15</Timestamp><Current dt:dt=""r8"">0</Current><DateUtc dt:dt=""string"">2014-05-19T21:52:51Z</DateUtc></FrequencyChange></FrequencyChanges></Clock>\n",60.031,1,437584494,0,,-999999,14,43843,t,60099,103942,5/19/2014,14:52:52,9:52:52 PM,1,Session1,SessionsList,,,,,,,,,,1,1,1,3,,,,418306,,,,3,1,3,Cued4,MiniBlocks2,,,,,1,1,b,-999999,7,434948,b,372,435320,White,Congruent,b,Green,0,,0,11,427968,,0,0,,,,,,,,,,1,1,1,Pictures\green.bmp,6000,2000,Pictures\black.bmp,,,,,,,,,,,,,StimulusPr,Pictures\right.bmp,CuedStim4,Right
POP_2,16053,1,"<?xml version=""1.0""?>\n<Clock xmlns:dt=""urn:schemas-microsoft-com:datatypes""><Description dt:dt=""string"">E-Prime Primary Realtime Clock</Description><StartTime><Timestamp dt:dt=""int"">0</Timestamp><DateUtc dt:dt=""string"">2014-05-19T21:52:51Z</DateUtc></StartTime><FrequencyChanges><FrequencyChange><Frequency dt:dt=""r8"">2793030000</Frequency><Timestamp dt:dt=""r8"">2.93113039740002E+15</Timestamp><Current dt:dt=""r8"">0</Current><DateUtc dt:dt=""string"">2014-05-19T21:52:51Z</DateUtc></FrequencyChange></FrequencyChanges></Clock>\n",60.031,1,437584494,0,,-999999,14,43843,t,60099,103942,5/19/2014,14:52:52,9:52:52 PM,1,Session1,SessionsList,,,,,,,,,,1,1,1,3,,,,418306,,,,3,1,3,Cued4,MiniBlocks2,,,,,2,1,r,-999999,15,448958,r,440,449398,White,Incongruent,r,Red,0,,0,5,438946,,0,0,,,,,,,,,,2,1,2,Pictures\red.bmp,9000,2000,Pictures\black.bmp,,,,,,,,,,,,,StimulusPr,Pictures\right.bmp,CuedStim4,Right
POP_2,16053,1,"<?xml version=""1.0""?>\n<Clock xmlns:dt=""urn:schemas-microsoft-com:datatypes""><Description dt:dt=""string"">E-Prime Primary Realtime Clock</Description><StartTime><Timestamp dt:dt=""int"">0</Timestamp><DateUtc dt:dt=""string"">2014-05-19T21:52:51Z</DateUtc></StartTime><FrequencyChanges><FrequencyChange><Frequency dt:dt=""r8"">2793030000</Frequency><Timestamp dt:dt=""r8"">2.93113039740002E+15</Timestamp><Current dt:dt=""r8"">0</Current><DateUtc dt:dt=""string"">2014-05-19T21:52:51Z</DateUtc></FrequencyChange></FrequencyChanges></Clock>\n",60.031,1,437584494,0,,-999999,14,43843,t,60099,103942,5/19/2014,14:52:52,9:52:52 PM,1,Session1,SessionsList,,,,,,,,,,1,1,1,3,,,,418306,,,,3,1,3,Cued4,MiniBlocks2,,,,,3,1,b,-999999,13,456970,b,491,457461,White,Congruent,b,Green,0,,0,15,452956,,0,0,,,,,,,,,,3,1,3,Pictures\green.bmp,3000,4000,Pictures\black.bmp,,,,,,,,,,,,,StimulusPr,Pictures\right.bmp,CuedStim4,Right
POP_2,16053,1,"<?xml version=""1.0""?>\n<Clock xmlns:dt=""urn:schemas-microsoft-com:datatypes""><Description dt:dt=""string"">E-Prime Primary Realtime Clock</Description><StartTime><Timestamp dt:dt=""int"">0</Timestamp><DateUtc dt:dt=""string"">2014-05-19T21:52:51Z</DateUtc></StartTime><FrequencyChanges><FrequencyChange><Frequency dt:dt=""r8"">2793030000</Frequency><Timestamp dt:dt=""r8"">2.93113039740002E+15</Timestamp><Current dt:dt=""r8"">0</Current><DateUtc dt:dt=""string"">2014-05-19T21:52:51Z</DateUtc></FrequencyChange></FrequencyChanges></Clock>\n",60.031,1,437584494,0,,-999999,14,43843,t,60099,103942,5/19/2014,14:52:52,9:52:52 PM,1,Session1,SessionsList,,,,,,,,,,1,1,1,3,,,,418306,,,,3,1,3,Cued4,MiniBlocks2,,,,,4,1,r,-999999,8,466949,r,545,467494,White,Congruent,r,Green,0,,0,4,462951,,0,0,,,,,,,,,,4,1,4,Pictures\green.bmp,3000,4000,Pictures\left.bmp,,,,,,,,,,,,,StimulusPr,Pictures\black.bmp,CuedStim4,Left
POP_2,16053,1,"<?xml version=""1.0""?>\n<Clock xmlns:dt=""urn:schemas-microsoft-com:datatypes""><Description dt:dt=""string"">E-Prime Primary Realtime Clock</Description><StartTime><Timestamp dt:dt=""int"">0</Timestamp><DateUtc dt:dt=""string"">2014-05-19T21:52:51Z</DateUtc></StartTime><FrequencyChanges><FrequencyChange><Frequency dt:dt=""r8"">2793030000</Frequency><Timestamp dt:dt=""r8"">2.93113039740002E+15</Timestamp><Current dt:dt=""r8"">0</Current><DateUtc dt:dt=""string"">2014-05-19T21:52:51Z</DateUtc></FrequencyChange></FrequencyChanges></Clock>\n",60.031,1,437584494,0,,-999999,14,43843,t,60099,103942,5/19/2014,14:52:52,9:52:52 PM,1,Session1,SessionsList,,,,,,,,,,1,1,1,3,,,,418306,,,,3,1,3,Cued4,MiniBlocks2,,,,,5,1,b,-999999,19,477960,b,393,478353,White,Incongruent,b,Red,0,,0,5,472946,,0,0,,,,,,,,,,5,1,5,Pictures\red.bmp,4000,16000,Pictures\left.bmp,,,,,,,,,,,,,StimulusPr,Pictures\black.bmp,CuedStim4,Left
POP_2,16053,1,"<?xml version=""1.0""?>\n<Clock xmlns:dt=""urn:schemas-microsoft-com:datatypes""><Description dt:dt=""string"">E-Prime Primary Realtime Clock</Description><StartTime><Timestamp dt:dt=""int"">0</Timestamp><DateUtc dt:dt=""string"">2014-05-19T21:52:51Z</DateUtc></StartTime><FrequencyChanges><FrequencyChange><Frequency dt:dt=""r8"">2793030000</Frequency><Timestamp dt:dt=""r8"">2.93113039740002E+15</Timestamp><Current dt:dt=""r8"">0</Current><DateUtc dt:dt=""string"">2014-05-19T21:52:51Z</DateUtc></FrequencyChange></FrequencyChanges></Clock>\n",60.031,1,437584494,0,,-999999,14,43843,t,60099,103942,5/19/2014,14:52:52,9:52:52 PM,1,Session1,SessionsList,,,,,,,,,,1,1,1,3,,,,418306,,,,3,1,3,Cued4,MiniBlocks2,,,,,6,1,b,-999999,9,499966,b,574,500540,White,Congruent,b,Green,0,,0,8,495951,,0,0,,,,,,,,,,6,1,6,Pictures\green.bmp,3000,2000,Pictures\black.bmp,,,,,,,,,,,,,StimulusPr,Pictures\right.bmp,CuedStim4,Right
POP_2,16053,1,"<?xml version=""1.0""?>\n<Clock xmlns:dt=""urn:schemas-microsoft-com:datatypes""><Description dt:dt=""string"">E-Prime Primary Realtime Clock</Description><StartTime><Timestamp dt:dt=""int"">0</Timestamp><DateUtc dt:dt=""string"">2014-05-19T21:52:51Z</DateUtc></StartTime><FrequencyChanges><FrequencyChange><Frequency dt:dt=""r8"">2793030000</Frequency><Timestamp dt:dt=""r8"">2.93113039740002E+15</Timestamp><Current dt:dt=""r8"">0</Current><DateUtc dt:dt=""string"">2014-05-19T21:52:51Z</DateUtc></FrequencyChange></FrequencyChanges></Clock>\n",60.031,1,437584494,0,,-999999,14,43843,t,60099,103942,5/19/2014,14:52:52,9:52:52 PM,1,Session1,SessionsList,,,,,,,,,,1,1,1,3,,,,418306,,,,3,1,3,Cued4,MiniBlocks2,,,,,7,1,b,-999999,18,513959,b,339,514298,White,Congruent,b,Green,0,,0,7,503964,,0,0,,,,,,,,,,7,1,7,Pictures\green.bmp,9000,10000,Pictures\black.bmp,,,,,,,,,,,,,StimulusPr,Pictures\right.bmp,CuedStim4,Right
POP_2,16053,1,"<?xml version=""1.0""?>\n<Clock xmlns:dt=""urn:schemas-microsoft-com:datatypes""><Description dt:dt=""string"">E-Prime Primary Realtime Clock</Description><StartTime><Timestamp dt:dt=""int"">0</Timestamp><DateUtc dt:dt=""string"">2014-05-19T21:52:51Z</DateUtc></StartTime><FrequencyChanges><FrequencyChange><Frequency dt:dt=""r8"">2793030000</Frequency><Timestamp dt:dt=""r8"">2.93113039740002E+15</Timestamp><Current dt:dt=""r8"">0</Current><DateUtc dt:dt=""string"">2014-05-19T21:52:51Z</DateUtc></FrequencyChange></FrequencyChanges></Clock>\n",60.031,1,437584494,0,,-999999,14,43843,t,60099,103942,5/19/2014,14:52:52,9:52:52 PM,1,Session1,SessionsList,,,,,,,,,,1,1,1,3,,,,418306,,,,3,1,3,Cued4,MiniBlocks2,,,,,8,1,b,-999999,8,532949,b,360,533309,White,Incongruent,b,Red,0,,0,12,525953,,0,0,,,,,,,,,,8,1,8,Pictures\red.bmp,6000,10000,Pictures\left.bmp,,,,,,,,,,,,,StimulusPr,Pictures\black.bmp,CuedStim4,Left
POP_2,16053,1,"<?xml version=""1.0""?>\n<Clock xmlns:dt=""urn:schemas-microsoft-com:datatypes""><Description dt:dt=""string"">E-Prime Primary Realtime Clock</Description><StartTime><Timestamp dt:dt=""int"">0</Timestamp><DateUtc dt:dt=""string"">2014-05-19T21:52:51Z</DateUtc></StartTime><FrequencyChanges><FrequencyChange><Frequency dt:dt=""r8"">2793030000</Frequency><Timestamp dt:dt=""r8"">2.93113039740002E+15</Timestamp><Current dt:dt=""r8"">0</Current><DateUtc dt:dt=""string"">2014-05-19T21:52:51Z</DateUtc></FrequencyChange></FrequencyChanges></Clock>\n",60.031,1,437584494,0,,-999999,14,43843,t,60099,103942,5/19/2014,14:52:52,9:52:52 PM,1,Session1,SessionsList,,,,,,,,,,1,1,1,3,,,,418306,,,,3,1,3,Cued4,MiniBlocks2,,,,,9,1,r,-999999,16,551973,r,587,552560,White,Congruent,r,Green,0,,0,3,544960,,0,0,,,,,,,,,,9,1,9,Pictures\green.bmp,6000,16000,Pictures\left.bmp,,,,,,,,,,,,,StimulusPr,Pictures\black.bmp,CuedStim4,Left
POP_2,16053,1,"<?xml version=""1.0""?>\n<Clock xmlns:dt=""urn:schemas-microsoft-com:datatypes""><Description dt:dt=""string"">E-Prime Primary Realtime Clock</Description><StartTime><Timestamp dt:dt=""int"">0</Timestamp><DateUtc dt:dt=""string"">2014-05-19T21:52:51Z</DateUtc></StartTime><FrequencyChanges><FrequencyChange><Frequency dt:dt=""r8"">2793030000</Frequency><Timestamp dt:dt=""r8"">2.93113039740002E+15</Timestamp><Current dt:dt=""r8"">0</Current><DateUtc dt:dt=""string"">2014-05-19T21:52:51Z</DateUtc></FrequencyChange></FrequencyChanges></Clock>\n",60.031,1,437584494,0,,-999999,14,43843,t,60099,103942,5/19/2014,14:52:52,9:52:52 PM,1,Session1,SessionsList,,,,,,,,,,1,1,1,3,,,,418306,,,,3,1,3,Cued4,MiniBlocks2,,,,,10,1,r,-999999,4,574945,r,489,575434,White,Congruent,r,Green,0,,0,7,569964,,0,0,,,,,,,,,,10,1,10,Pictures\green.bmp,4000,2000,Pictures\left.bmp,,,,,,,,,,,,,StimulusPr,Pictures\black.bmp,CuedStim4,Left
POP_2,16053,1,"<?xml version=""1.0""?>\n<Clock xmlns:dt=""urn:schemas-microsoft-com:datatypes""><Description dt:dt=""string"">E-Prime Primary Realtime Clock</Description><StartTime><Timestamp dt:dt=""int"">0</Timestamp><DateUtc dt:dt=""string"">2014-05-19T21:52:51Z</DateUtc></StartTime><FrequencyChanges><FrequencyChange><Frequency dt:dt=""r8"">2793030000</Frequency><Timestamp dt:dt=""r8"">2.93113039740002E+15</Timestamp><Current dt:dt=""r8"">0</Current><DateUtc dt:dt=""string"">2014-05-19T21:52:51Z</DateUtc></FrequencyChange></FrequencyChanges></Clock>\n",60.031,1,437584494,0,,-999999,14,43843,t,60099,103942,5/19/2014,14:52:52,9:52:52 PM,1,Session1,SessionsList,,,,,,,,,,1,1,1,4,,,,,,,,4,1,4,NonCued4,MiniBlocks2,,,,577460,1,1,r,-999999,12,591953,r,578,592531,Green,Congruent,r,White,0,,0,14,587955,,0,0,,,,,,,,,,,,,Pictures\white.bmp,3000,2000,Pictures\GreenLeft.bmp,,,,,,,,,,1,1,1,StimulusPr,Pictures\black.bmp,NonCuedStim4,Left
POP_2,16053,1,"<?xml version=""1.0""?>\n<Clock xmlns:dt=""urn:schemas-microsoft-com:datatypes""><Description dt:dt=""string"">E-Prime Primary Realtime Clock</Description><StartTime><Timestamp dt:dt=""int"">0</Timestamp><DateUtc dt:dt=""string"">2014-05-19T21:52:51Z</DateUtc></StartTime><FrequencyChanges><FrequencyChange><Frequency dt:dt=""r8"">2793030000</Frequency><Timestamp dt:dt=""r8"">2.93113039740002E+15</Timestamp><Current dt:dt=""r8"">0</Current><DateUtc dt:dt=""string"">2014-05-19T21:52:51Z</DateUtc></FrequencyChange></FrequencyChanges></Clock>\n",60.031,1,437584494,0,,-999999,14,43843,t,60099,103942,5/19/2014,14:52:52,9:52:52 PM,1,Session1,SessionsList,,,,,,,,,,1,1,1,4,,,,,,,,4,1,4,NonCued4,MiniBlocks2,,,,577460,2,1,r,-999999,8,600965,r,439,601404,Green,Congruent,r,White,0,,0,17,595968,,0,0,,,,,,,,,,,,,Pictures\white.bmp,4000,2000,Pictures\GreenLeft.bmp,,,,,,,,,,2,1,2,StimulusPr,Pictures\black.bmp,NonCuedStim4,Left
POP_2,16053,1,"<?xml version=""1.0""?>\n<Clock xmlns:dt=""urn:schemas-microsoft-com:datatypes""><Description dt:dt=""string"">E-Prime Primary Realtime Clock</Description><StartTime><Timestamp dt:dt=""int"">0</Timestamp><DateUtc dt:dt=""string"">2014-05-19T21:52:51Z</DateUtc></StartTime><FrequencyChanges><FrequencyChange><Frequency dt:dt=""r8"">2793030000</Frequency><Timestamp dt:dt=""r8"">2.93113039740002E+15</Timestamp><Current dt:dt=""r8"">0</Current><DateUtc dt:dt=""string"">2014-05-19T21:52:51Z</DateUtc></FrequencyChange></FrequencyChanges></Clock>\n",60.031,1,437584494,0,,-999999,14,43843,t,60099,103942,5/19/2014,14:52:52,9:52:52 PM,1,Session1,SessionsList,,,,,,,,,,1,1,1,4,,,,,,,,4,1,4,NonCued4,MiniBlocks2,,,,577460,3,1,r,-999999,11,609961,r,437,610398,Red,Incongruent,r,White,0,,0,6,604947,,0,0,,,,,,,,,,,,,Pictures\white.bmp,4000,2000,Pictures\black.bmp,,,,,,,,,,3,1,3,StimulusPr,Pictures\RedRight.bmp,NonCuedStim4,Right
POP_2,16053,1,"<?xml version=""1.0""?>\n<Clock xmlns:dt=""urn:schemas-microsoft-com:datatypes""><Description dt:dt=""string"">E-Prime Primary Realtime Clock</Description><StartTime><Timestamp dt:dt=""int"">0</Timestamp><DateUtc dt:dt=""string"">2014-05-19T21:52:51Z</DateUtc></StartTime><FrequencyChanges><FrequencyChange><Frequency dt:dt=""r8"">2793030000</Frequency><Timestamp dt:dt=""r8"">2.93113039740002E+15</Timestamp><Current dt:dt=""r8"">0</Current><DateUtc dt:dt=""string"">2014-05-19T21:52:51Z</DateUtc></FrequencyChange></FrequencyChanges></Clock>\n",60.031,1,437584494,0,,-999999,14,43843,t,60099,103942,5/19/2014,14:52:52,9:52:52 PM,1,Session1,SessionsList,,,,,,,,,,1,1,1,4,,,,,,,,4,1,4,NonCued4,MiniBlocks2,,,,577460,4,1,b,-999999,16,617957,b,612,618569,Green,Congruent,b,White,0,,0,17,613959,,0,0,,,,,,,,,,,,,Pictures\white.bmp,3000,16000,Pictures\black.bmp,,,,,,,,,,4,1,4,StimulusPr,Pictures\GreenRight.bmp,NonCuedStim4,Right
POP_2,16053,1,"<?xml version=""1.0""?>\n<Clock xmlns:dt=""urn:schemas-microsoft-com:datatypes""><Description dt:dt=""string"">E-Prime Primary Realtime Clock</Description><StartTime><Timestamp dt:dt=""int"">0</Timestamp><DateUtc dt:dt=""string"">2014-05-19T21:52:51Z</DateUtc></StartTime><FrequencyChanges><FrequencyChange><Frequency dt:dt=""r8"">2793030000</Frequency><Timestamp dt:dt=""r8"">2.93113039740002E+15</Timestamp><Current dt:dt=""r8"">0</Current><DateUtc dt:dt=""string"">2014-05-19T21:52:51Z</DateUtc></FrequencyChange></FrequencyChanges></Clock>\n",60.031,1,437584494,0,,-999999,14,43843,t,60099,103942,5/19/2014,14:52:52,9:52:52 PM,1,Session1,SessionsList,,,,,,,,,,1,1,1,4,,,,,,,,4,1,4,NonCued4,MiniBlocks2,,,,577460,5,1,r,-999999,3,645960,r,462,646422,Green,Congruent,r,White,0,,0,7,635964,,0,0,,,,,,,,,,,,,Pictures\white.bmp,9000,10000,Pictures\GreenLeft.bmp,,,,,,,,,,5,1,5,StimulusPr,Pictures\black.bmp,NonCuedStim4,Left
POP_2,16053,1,"<?xml version=""1.0""?>\n<Clock xmlns:dt=""urn:schemas-microsoft-com:datatypes""><Description dt:dt=""string"">E-Prime Primary Realtime Clock</Description><StartTime><Timestamp dt:dt=""int"">0</Timestamp><DateUtc dt:dt=""string"">2014-05-19T21:52:51Z</DateUtc></StartTime><FrequencyChanges><FrequencyChange><Frequency dt:dt=""r8"">2793030000</Frequency><Timestamp dt:dt=""r8"">2.93113039740002E+15</Timestamp><Current dt:dt=""r8"">0</Current><DateUtc dt:dt=""string"">2014-05-19T21:52:51Z</DateUtc></FrequencyChange></FrequencyChanges></Clock>\n",60.031,1,437584494,0,,-999999,14,43843,t,60099,103942,5/19/2014,14:52:52,9:52:52 PM,1,Session1,SessionsList,,,,,,,,,,1,1,1,4,,,,,,,,4,1,4,NonCued4,MiniBlocks2,,,,577460,6,1,b,-999999,11,661968,b,422,662390,Green,Congruent,b,White,0,,0,13,657970,,0,0,,,,,,,,,,,,,Pictures\white.bmp,3000,16000,Pictures\black.bmp,,,,,,,,,,6,1,6,StimulusPr,Pictures\GreenRight.bmp,NonCuedStim4,Right
POP_2,16053,1,"<?xml version=""1.0""?>\n<Clock xmlns:dt=""urn:schemas-microsoft-com:datatypes""><Description dt:dt=""string"">E-Prime Primary Realtime Clock</Description><StartTime><Timestamp dt:dt=""int"">0</Timestamp><DateUtc dt:dt=""string"">2014-05-19T21:52:51Z</DateUtc></StartTime><FrequencyChanges><FrequencyChange><Frequency dt:dt=""r8"">2793030000</Frequency><Timestamp dt:dt=""r8"">2.93113039740002E+15</Timestamp><Current dt:dt=""r8"">0</Current><DateUtc dt:dt=""string"">2014-05-19T21:52:51Z</DateUtc></FrequencyChange></FrequencyChanges></Clock>\n",60.031,1,437584494,0,,-999999,14,43843,t,60099,103942,5/19/2014,14:52:52,9:52:52 PM,1,Session1,SessionsList,,,,,,,,,,1,1,1,4,,,,,,,,4,1,4,NonCued4,MiniBlocks2,,,,577460,7,1,b,-999999,17,683974,b,611,684585,Red,Incongruent,b,White,0,,0,10,679959,,0,0,,,,,,,,,,,,,Pictures\white.bmp,3000,16000,Pictures\RedLeft.bmp,,,,,,,,,,7,1,7,StimulusPr,Pictures\black.bmp,NonCuedStim4,Left
POP_2,16053,1,"<?xml version=""1.0""?>\n<Clock xmlns:dt=""urn:schemas-microsoft-com:datatypes""><Description dt:dt=""string"">E-Prime Primary Realtime Clock</Description><StartTime><Timestamp dt:dt=""int"">0</Timestamp><DateUtc dt:dt=""string"">2014-05-19T21:52:51Z</DateUtc></StartTime><FrequencyChanges><FrequencyChange><Frequency dt:dt=""r8"">2793030000</Frequency><Timestamp dt:dt=""r8"">2.93113039740002E+15</Timestamp><Current dt:dt=""r8"">0</Current><DateUtc dt:dt=""string"">2014-05-19T21:52:51Z</DateUtc></FrequencyChange></FrequencyChanges></Clock>\n",60.031,1,437584494,0,,-999999,14,43843,t,60099,103942,5/19/2014,14:52:52,9:52:52 PM,1,Session1,SessionsList,,,,,,,,,,1,1,1,4,,,,,,,,4,1,4,NonCued4,MiniBlocks2,,,,577460,8,1,r,-999999,5,705946,r,576,706522,Green,Congruent,r,White,0,,0,3,701949,,0,0,,,,,,,,,,,,,Pictures\white.bmp,3000,2000,Pictures\GreenLeft.bmp,,,,,,,,,,8,1,8,StimulusPr,Pictures\black.bmp,NonCuedStim4,Left
POP_2,16053,1,"<?xml version=""1.0""?>\n<Clock xmlns:dt=""urn:schemas-microsoft-com:datatypes""><Description dt:dt=""string"">E-Prime Primary Realtime Clock</Description><StartTime><Timestamp dt:dt=""int"">0</Timestamp><DateUtc dt:dt=""string"">2014-05-19T21:52:51Z</DateUtc></StartTime><FrequencyChanges><FrequencyChange><Frequency dt:dt=""r8"">2793030000</Frequency><Timestamp dt:dt=""r8"">2.93113039740002E+15</Timestamp><Current dt:dt=""r8"">0</Current><DateUtc dt:dt=""string"">2014-05-19T21:52:51Z</DateUtc></FrequencyChange></FrequencyChanges></Clock>\n",60.031,1,437584494,0,,-999999,14,43843,t,60099,103942,5/19/2014,14:52:52,9:52:52 PM,1,Session1,SessionsList,,,,,,,,,,1,1,1,4,,,,,,,,4,1,4,NonCued4,MiniBlocks2,,,,577460,9,1,b,-999999,18,716974,b,368,717342,Green,Congruent,b,White,0,,0,7,709961,,0,0,,,,,,,,,,,,,Pictures\white.bmp,6000,2000,Pictures\black.bmp,,,,,,,,,,9,1,9,StimulusPr,Pictures\GreenRight.bmp,NonCuedStim4,Right
POP_2,16053,1,"<?xml version=""1.0""?>\n<Clock xmlns:dt=""urn:schemas-microsoft-com:datatypes""><Description dt:dt=""string"">E-Prime Primary Realtime Clock</Description><StartTime><Timestamp dt:dt=""int"">0</Timestamp><DateUtc dt:dt=""string"">2014-05-19T21:52:51Z</DateUtc></StartTime><FrequencyChanges><FrequencyChange><Frequency dt:dt=""r8"">2793030000</Frequency><Timestamp dt:dt=""r8"">2.93113039740002E+15</Timestamp><Current dt:dt=""r8"">0</Current><DateUtc dt:dt=""string"">2014-05-19T21:52:51Z</DateUtc></FrequencyChange></FrequencyChanges></Clock>\n",60.031,1,437584494,0,,-999999,14,43843,t,60099,103942,5/19/2014,14:52:52,9:52:52 PM,1,Session1,SessionsList,,,,,,,,,,1,1,1,4,,,,,,,,4,1,4,NonCued4,MiniBlocks2,,,,577460,10,1,b,-999999,14,725970,b,548,726518,Green,Congruent,b,White,0,,0,16,720972,,0,0,,,,,,,,,,,,,Pictures\white.bmp,4000,4000,Pictures\black.bmp,,,,,,,,,,10,1,10,StimulusPr,Pictures\GreenRight.bmp,NonCuedStim4,Right
POP_2,16053,1,"<?xml version=""1.0""?>\n<Clock xmlns:dt=""urn:schemas-microsoft-com:datatypes""><Description dt:dt=""string"">E-Prime Primary Realtime Clock</Description><StartTime><Timestamp dt:dt=""int"">0</Timestamp><DateUtc dt:dt=""string"">2014-05-19T21:52:51Z</DateUtc></StartTime><FrequencyChanges><FrequencyChange><Frequency dt:dt=""r8"">2793030000</Frequency><Timestamp dt:dt=""r8"">2.93113039740002E+15</Timestamp><Current dt:dt=""r8"">0</Current><DateUtc dt:dt=""string"">2014-05-19T21:52:51Z</DateUtc></FrequencyChange></FrequencyChanges></Clock>\n",60.031,1,437584494,0,,-999999,14,43843,t,60099,103942,5/19/2014,14:52:52,9:52:52 PM,2,Session2,SessionsList,0,,-999999,8,756621,t,37039,793660,730534,2,1,2,1,793669,,,,1,1,1,,,,Cued1,MiniBlocks1,,,,,1,1,r,-999999,2,807662,r,565,808227,White,Congruent,r,Green,0,,0,5,802665,,0,0,1,1,1,,,,,,,,,,Pictures\green.bmp,4000,4000,Pictures\left.bmp,,,,,,,,,,,,,StimulusPr,Pictures\black.bmp,CuedStim1,Left
POP_2,16053,1,"<?xml version=""1.0""?>\n<Clock xmlns:dt=""urn:schemas-microsoft-com:datatypes""><Description dt:dt=""string"">E-Prime Primary Realtime Clock</Description><StartTime><Timestamp dt:dt=""int"">0</Timestamp><DateUtc dt:dt=""string"">2014-05-19T21:52:51Z</DateUtc></StartTime><FrequencyChanges><FrequencyChange><Frequency dt:dt=""r8"">2793030000</Frequency><Timestamp dt:dt=""r8"">2.93113039740002E+15</Timestamp><Current dt:dt=""r8"">0</Current><DateUtc dt:dt=""string"">2014-05-19T21:52:51Z</DateUtc></FrequencyChange></FrequencyChanges></Clock>\n",60.031,1,437584494,0,,-999999,14,43843,t,60099,103942,5/19/2014,14:52:52,9:52:52 PM,2,Session2,SessionsList,0,,-999999,8,756621,t,37039,793660,730534,2,1,2,1,793669,,,,1,1,1,,,,Cued1,MiniBlocks1,,,,,2,1,b,-999999,15,820689,b,374,821063,White,Congruent,b,Green,0,,0,16,813676,,0,0,2,1,2,,,,,,,,,,Pictures\green.bmp,6000,2000,Pictures\black.bmp,,,,,,,,,,,,,StimulusPr,Pictures\right.bmp,CuedStim1,Right
POP_2,16053,1,"<?xml version=""1.0""?>\n<Clock xmlns:dt=""urn:schemas-microsoft-com:datatypes""><Description dt:dt=""string"">E-Prime Primary Realtime Clock</Description><StartTime><Timestamp dt:dt=""int"">0</Timestamp><DateUtc dt:dt=""string"">2014-05-19T21:52:51Z</DateUtc></StartTime><FrequencyChanges><FrequencyChange><Frequency dt:dt=""r8"">2793030000</Frequency><Timestamp dt:dt=""r8"">2.93113039740002E+15</Timestamp><Current dt:dt=""r8"">0</Current><DateUtc dt:dt=""string"">2014-05-19T21:52:51Z</DateUtc></FrequencyChange></FrequencyChanges></Clock>\n",60.031,1,437584494,0,,-999999,14,43843,t,60099,103942,5/19/2014,14:52:52,9:52:52 PM,2,Session2,SessionsList,0,,-999999,8,756621,t,37039,793660,730534,2,1,2,1,793669,,,,1,1,1,,,,Cued1,MiniBlocks1,,,,,3,1,b,-999999,13,828668,b,542,829210,White,Congruent,b,Green,0,,0,10,824670,,0,0,3,1,3,,,,,,,,,,Pictures\green.bmp,3000,2000,Pictures\black.bmp,,,,,,,,,,,,,StimulusPr,Pictures\right.bmp,CuedStim1,Right
POP_2,16053,1,"<?xml version=""1.0""?>\n<Clock xmlns:dt=""urn:schemas-microsoft-com:datatypes""><Description dt:dt=""string"">E-Prime Primary Realtime Clock</Description><StartTime><Timestamp dt:dt=""int"">0</Timestamp><DateUtc dt:dt=""string"">2014-05-19T21:52:51Z</DateUtc></StartTime><FrequencyChanges><FrequencyChange><Frequency dt:dt=""r8"">2793030000</Frequency><Timestamp dt:dt=""r8"">2.93113039740002E+15</Timestamp><Current dt:dt=""r8"">0</Current><DateUtc dt:dt=""string"">2014-05-19T21:52:51Z</DateUtc></FrequencyChange></FrequencyChanges></Clock>\n",60.031,1,437584494,0,,-999999,14,43843,t,60099,103942,5/19/2014,14:52:52,9:52:52 PM,2,Session2,SessionsList,0,,-999999,8,756621,t,37039,793660,730534,2,1,2,1,793669,,,,1,1,1,,,,Cued1,MiniBlocks1,,,,,4,1,b,-999999,2,836664,b,339,837003,White,Incongruent,b,Red,0,,0,9,832683,,0,0,4,1,4,,,,,,,,,,Pictures\red.bmp,3000,16000,Pictures\left.bmp,,,,,,,,,,,,,StimulusPr,Pictures\black.bmp,CuedStim1,Left
POP_2,16053,1,"<?xml version=""1.0""?>\n<Clock xmlns:dt=""urn:schemas-microsoft-com:datatypes""><Description dt:dt=""string"">E-Prime Primary Realtime Clock</Description><StartTime><Timestamp dt:dt=""int"">0</Timestamp><DateUtc dt:dt=""string"">2014-05-19T21:52:51Z</DateUtc></StartTime><FrequencyChanges><FrequencyChange><Frequency dt:dt=""r8"">2793030000</Frequency><Timestamp dt:dt=""r8"">2.93113039740002E+15</Timestamp><Current dt:dt=""r8"">0</Current><DateUtc dt:dt=""string"">2014-05-19T21:52:51Z</DateUtc></FrequencyChange></FrequencyChanges></Clock>\n",60.031,1,437584494,0,,-999999,14,43843,t,60099,103942,5/19/2014,14:52:52,9:52:52 PM,2,Session2,SessionsList,0,,-999999,8,756621,t,37039,793660,730534,2,1,2,1,793669,,,,1,1,1,,,,Cued1,MiniBlocks1,,,,,5,1,r,-999999,10,858670,r,609,859279,White,Congruent,r,Green,0,,0,16,854689,,0,0,5,1,5,,,,,,,,,,Pictures\green.bmp,3000,16000,Pictures\left.bmp,,,,,,,,,,,,,StimulusPr,Pictures\black.bmp,CuedStim1,Left
POP_2,16053,1,"<?xml version=""1.0""?>\n<Clock xmlns:dt=""urn:schemas-microsoft-com:datatypes""><Description dt:dt=""string"">E-Prime Primary Realtime Clock</Description><StartTime><Timestamp dt:dt=""int"">0</Timestamp><DateUtc dt:dt=""string"">2014-05-19T21:52:51Z</DateUtc></StartTime><FrequencyChanges><FrequencyChange><Frequency dt:dt=""r8"">2793030000</Frequency><Timestamp dt:dt=""r8"">2.93113039740002E+15</Timestamp><Current dt:dt=""r8"">0</Current><DateUtc dt:dt=""string"">2014-05-19T21:52:51Z</DateUtc></FrequencyChange></FrequencyChanges></Clock>\n",60.031,1,437584494,0,,-999999,14,43843,t,60099,103942,5/19/2014,14:52:52,9:52:52 PM,2,Session2,SessionsList,0,,-999999,8,756621,t,37039,793660,730534,2,1,2,1,793669,,,,1,1,1,,,,Cued1,MiniBlocks1,,,,,6,1,r,-999999,13,886673,r,366,887039,White,Congruent,r,Green,0,,0,4,876678,,0,0,6,1,6,,,,,,,,,,Pictures\green.bmp,9000,10000,Pictures\left.bmp,,,,,,,,,,,,,StimulusPr,Pictures\black.bmp,CuedStim1,Left
POP_2,16053,1,"<?xml version=""1.0""?>\n<Clock xmlns:dt=""urn:schemas-microsoft-com:datatypes""><Description dt:dt=""string"">E-Prime Primary Realtime Clock</Description><StartTime><Timestamp dt:dt=""int"">0</Timestamp><DateUtc dt:dt=""string"">2014-05-19T21:52:51Z</DateUtc></StartTime><FrequencyChanges><FrequencyChange><Frequency dt:dt=""r8"">2793030000</Frequency><Timestamp dt:dt=""r8"">2.93113039740002E+15</Timestamp><Current dt:dt=""r8"">0</Current><DateUtc dt:dt=""string"">2014-05-19T21:52:51Z</DateUtc></FrequencyChange></FrequencyChanges></Clock>\n",60.031,1,437584494,0,,-999999,14,43843,t,60099,103942,5/19/2014,14:52:52,9:52:52 PM,2,Session2,SessionsList,0,,-999999,8,756621,t,37039,793660,730534,2,1,2,1,793669,,,,1,1,1,,,,Cued1,MiniBlocks1,,,,,7,1,b,-999999,5,902665,b,331,902996,White,Congruent,b,Green,0,,0,11,898667,,0,0,7,1,7,,,,,,,,,,Pictures\green.bmp,3000,16000,Pictures\black.bmp,,,,,,,,,,,,,StimulusPr,Pictures\right.bmp,CuedStim1,Right
POP_2,16053,1,"<?xml version=""1.0""?>\n<Clock xmlns:dt=""urn:schemas-microsoft-com:datatypes""><Description dt:dt=""string"">E-Prime Primary Realtime Clock</Description><StartTime><Timestamp dt:dt=""int"">0</Timestamp><DateUtc dt:dt=""string"">2014-05-19T21:52:51Z</DateUtc></StartTime><FrequencyChanges><FrequencyChange><Frequency dt:dt=""r8"">2793030000</Frequency><Timestamp dt:dt=""r8"">2.93113039740002E+15</Timestamp><Current dt:dt=""r8"">0</Current><DateUtc dt:dt=""string"">2014-05-19T21:52:51Z</DateUtc></FrequencyChange></FrequencyChanges></Clock>\n",60.031,1,437584494,0,,-999999,14,43843,t,60099,103942,5/19/2014,14:52:52,9:52:52 PM,2,Session2,SessionsList,0,,-999999,8,756621,t,37039,793660,730534,2,1,2,1,793669,,,,1,1,1,,,,Cued1,MiniBlocks1,,,,,8,1,r,-999999,11,925670,r,378,926048,White,Incongruent,r,Red,0,,0,12,920672,,0,0,8,1,8,,,,,,,,,,Pictures\red.bmp,4000,2000,Pictures\black.bmp,,,,,,,,,,,,,StimulusPr,Pictures\right.bmp,CuedStim1,Right
POP_2,16053,1,"<?xml version=""1.0""?>\n<Clock xmlns:dt=""urn:schemas-microsoft-com:datatypes""><Description dt:dt=""string"">E-Prime Primary Realtime Clock</Description><StartTime><Timestamp dt:dt=""int"">0</Timestamp><DateUtc dt:dt=""string"">2014-05-19T21:52:51Z</DateUtc></StartTime><FrequencyChanges><FrequencyChange><Frequency dt:dt=""r8"">2793030000</Frequency><Timestamp dt:dt=""r8"">2.93113039740002E+15</Timestamp><Current dt:dt=""r8"">0</Current><DateUtc dt:dt=""string"">2014-05-19T21:52:51Z</DateUtc></FrequencyChange></FrequencyChanges></Clock>\n",60.031,1,437584494,0,,-999999,14,43843,t,60099,103942,5/19/2014,14:52:52,9:52:52 PM,2,Session2,SessionsList,0,,-999999,8,756621,t,37039,793660,730534,2,1,2,1,793669,,,,1,1,1,,,,Cued1,MiniBlocks1,,,,,9,1,b,-999999,5,934665,b,315,934980,White,Congruent,b,Green,0,,0,8,929668,,0,0,9,1,9,,,,,,,,,,Pictures\green.bmp,4000,2000,Pictures\black.bmp,,,,,,,,,,,,,StimulusPr,Pictures\right.bmp,CuedStim1,Right
POP_2,16053,1,"<?xml version=""1.0""?>\n<Clock xmlns:dt=""urn:schemas-microsoft-com:datatypes""><Description dt:dt=""string"">E-Prime Primary Realtime Clock</Description><StartTime><Timestamp dt:dt=""int"">0</Timestamp><DateUtc dt:dt=""string"">2014-05-19T21:52:51Z</DateUtc></StartTime><FrequencyChanges><FrequencyChange><Frequency dt:dt=""r8"">2793030000</Frequency><Timestamp dt:dt=""r8"">2.93113039740002E+15</Timestamp><Current dt:dt=""r8"">0</Current><DateUtc dt:dt=""string"">2014-05-19T21:52:51Z</DateUtc></FrequencyChange></FrequencyChanges></Clock>\n",60.031,1,437584494,0,,-999999,14,43843,t,60099,103942,5/19/2014,14:52:52,9:52:52 PM,2,Session2,SessionsList,0,,-999999,8,756621,t,37039,793660,730534,2,1,2,1,793669,,,,1,1,1,,,,Cued1,MiniBlocks1,,,,,10,1,r,-999999,18,942678,r,361,943039,White,Congruent,r,Green,0,,0,4,938663,,0,0,10,1,10,,,,,,,,,,Pictures\green.bmp,3000,2000,Pictures\left.bmp,,,,,,,,,,,,,StimulusPr,Pictures\black.bmp,CuedStim1,Left
POP_2,16053,1,"<?xml version=""1.0""?>\n<Clock xmlns:dt=""urn:schemas-microsoft-com:datatypes""><Description dt:dt=""string"">E-Prime Primary Realtime Clock</Description><StartTime><Timestamp dt:dt=""int"">0</Timestamp><DateUtc dt:dt=""string"">2014-05-19T21:52:51Z</DateUtc></StartTime><FrequencyChanges><FrequencyChange><Frequency dt:dt=""r8"">2793030000</Frequency><Timestamp dt:dt=""r8"">2.93113039740002E+15</Timestamp><Current dt:dt=""r8"">0</Current><DateUtc dt:dt=""string"">2014-05-19T21:52:51Z</DateUtc></FrequencyChange></FrequencyChanges></Clock>\n",60.031,1,437584494,0,,-999999,14,43843,t,60099,103942,5/19/2014,14:52:52,9:52:52 PM,2,Session2,SessionsList,0,,-999999,8,756621,t,37039,793660,730534,2,1,2,2,,,,,2,1,2,,,,NonCued1,MiniBlocks1,945060,,,,1,1,r,-999999,11,959670,r,439,960109,Green,Congruent,r,White,0,,0,13,954672,,0,0,,,,,,,,,,,,,Pictures\white.bmp,4000,2000,Pictures\GreenLeft.bmp,1,1,1,,,,,,,,,,StimulusPr,Pictures\black.bmp,NonCuedStim1,Left
POP_2,16053,1,"<?xml version=""1.0""?>\n<Clock xmlns:dt=""urn:schemas-microsoft-com:datatypes""><Description dt:dt=""string"">E-Prime Primary Realtime Clock</Description><StartTime><Timestamp dt:dt=""int"">0</Timestamp><DateUtc dt:dt=""string"">2014-05-19T21:52:51Z</DateUtc></StartTime><FrequencyChanges><FrequencyChange><Frequency dt:dt=""r8"">2793030000</Frequency><Timestamp dt:dt=""r8"">2.93113039740002E+15</Timestamp><Current dt:dt=""r8"">0</Current><DateUtc dt:dt=""string"">2014-05-19T21:52:51Z</DateUtc></FrequencyChange></FrequencyChanges></Clock>\n",60.031,1,437584494,0,,-999999,14,43843,t,60099,103942,5/19/2014,14:52:52,9:52:52 PM,2,Session2,SessionsList,0,,-999999,8,756621,t,37039,793660,730534,2,1,2,2,,,,,2,1,2,,,,NonCued1,MiniBlocks1,945060,,,,2,1,b,-999999,7,970681,b,434,971115,Green,Congruent,b,White,0,,0,8,963667,,0,0,,,,,,,,,,,,,Pictures\white.bmp,6000,16000,Pictures\black.bmp,2,1,2,,,,,,,,,,StimulusPr,Pictures\GreenRight.bmp,NonCuedStim1,Right
POP_2,16053,1,"<?xml version=""1.0""?>\n<Clock xmlns:dt=""urn:schemas-microsoft-com:datatypes""><Description dt:dt=""string"">E-Prime Primary Realtime Clock</Description><StartTime><Timestamp dt:dt=""int"">0</Timestamp><DateUtc dt:dt=""string"">2014-05-19T21:52:51Z</DateUtc></StartTime><FrequencyChanges><FrequencyChange><Frequency dt:dt=""r8"">2793030000</Frequency><Timestamp dt:dt=""r8"">2.93113039740002E+15</Timestamp><Current dt:dt=""r8"">0</Current><DateUtc dt:dt=""string"">2014-05-19T21:52:51Z</DateUtc></FrequencyChange></FrequencyChanges></Clock>\n",60.031,1,437584494,0,,-999999,14,43843,t,60099,103942,5/19/2014,14:52:52,9:52:52 PM,2,Session2,SessionsList,0,,-999999,8,756621,t,37039,793660,730534,2,1,2,2,,,,,2,1,2,,,,NonCued1,MiniBlocks1,945060,,,,3,1,r,-999999,9,995668,r,583,996251,Red,Incongruent,r,White,0,,0,13,988672,,0,0,,,,,,,,,,,,,Pictures\white.bmp,6000,10000,Pictures\black.bmp,3,1,3,,,,,,,,,,StimulusPr,Pictures\RedRight.bmp,NonCuedStim1,Right
POP_2,16053,1,"<?xml version=""1.0""?>\n<Clock xmlns:dt=""urn:schemas-microsoft-com:datatypes""><Description dt:dt=""string"">E-Prime Primary Realtime Clock</Description><StartTime><Timestamp dt:dt=""int"">0</Timestamp><DateUtc dt:dt=""string"">2014-05-19T21:52:51Z</DateUtc></StartTime><FrequencyChanges><FrequencyChange><Frequency dt:dt=""r8"">2793030000</Frequency><Timestamp dt:dt=""r8"">2.93113039740002E+15</Timestamp><Current dt:dt=""r8"">0</Current><DateUtc dt:dt=""string"">2014-05-19T21:52:51Z</DateUtc></FrequencyChange></FrequencyChanges></Clock>\n",60.031,1,437584494,0,,-999999,14,43843,t,60099,103942,5/19/2014,14:52:52,9:52:52 PM,2,Session2,SessionsList,0,,-999999,8,756621,t,37039,793660,730534,2,1,2,2,,,,,2,1,2,,,,NonCued1,MiniBlocks1,945060,,,,4,1,r,-999999,15,1017674,r,538,1018212,Green,Congruent,r,White,0,,0,3,1007662,,0,0,,,,,,,,,,,,,Pictures\white.bmp,9000,10000,Pictures\GreenLeft.bmp,4,1,4,,,,,,,,,,StimulusPr,Pictures\black.bmp,NonCuedStim1,Left
POP_2,16053,1,"<?xml version=""1.0""?>\n<Clock xmlns:dt=""urn:schemas-microsoft-com:datatypes""><Description dt:dt=""string"">E-Prime Primary Realtime Clock</Description><StartTime><Timestamp dt:dt=""int"">0</Timestamp><DateUtc dt:dt=""string"">2014-05-19T21:52:51Z</DateUtc></StartTime><FrequencyChanges><FrequencyChange><Frequency dt:dt=""r8"">2793030000</Frequency><Timestamp dt:dt=""r8"">2.93113039740002E+15</Timestamp><Current dt:dt=""r8"">0</Current><DateUtc dt:dt=""string"">2014-05-19T21:52:51Z</DateUtc></FrequencyChange></FrequencyChanges></Clock>\n",60.031,1,437584494,0,,-999999,14,43843,t,60099,103942,5/19/2014,14:52:52,9:52:52 PM,2,Session2,SessionsList,0,,-999999,8,756621,t,37039,793660,730534,2,1,2,2,,,,,2,1,2,,,,NonCued1,MiniBlocks1,945060,,,,5,1,b,-999999,7,1033666,b,566,1034232,Green,Congruent,b,White,0,,0,9,1029668,,0,0,,,,,,,,,,,,,Pictures\white.bmp,3000,2000,Pictures\black.bmp,5,1,5,,,,,,,,,,StimulusPr,Pictures\GreenRight.bmp,NonCuedStim1,Right
POP_2,16053,1,"<?xml version=""1.0""?>\n<Clock xmlns:dt=""urn:schemas-microsoft-com:datatypes""><Description dt:dt=""string"">E-Prime Primary Realtime Clock</Description><StartTime><Timestamp dt:dt=""int"">0</Timestamp><DateUtc dt:dt=""string"">2014-05-19T21:52:51Z</DateUtc></StartTime><FrequencyChanges><FrequencyChange><Frequency dt:dt=""r8"">2793030000</Frequency><Timestamp dt:dt=""r8"">2.93113039740002E+15</Timestamp><Current dt:dt=""r8"">0</Current><DateUtc dt:dt=""string"">2014-05-19T21:52:51Z</DateUtc></FrequencyChange></FrequencyChanges></Clock>\n",60.031,1,437584494,0,,-999999,14,43843,t,60099,103942,5/19/2014,14:52:52,9:52:52 PM,2,Session2,SessionsList,0,,-999999,8,756621,t,37039,793660,730534,2,1,2,2,,,,,2,1,2,,,,NonCued1,MiniBlocks1,945060,,,,6,1,b,-999999,4,1042678,b,434,1043112,Red,Incongruent,b,White,0,,0,5,1037664,,0,0,,,,,,,,,,,,,Pictures\white.bmp,4000,16000,Pictures\RedLeft.bmp,6,1,6,,,,,,,,,,StimulusPr,Pictures\black.bmp,NonCuedStim1,Left
POP_2,16053,1,"<?xml version=""1.0""?>\n<Clock xmlns:dt=""urn:schemas-microsoft-com:datatypes""><Description dt:dt=""string"">E-Prime Primary Realtime Clock</Description><StartTime><Timestamp dt:dt=""int"">0</Timestamp><DateUtc dt:dt=""string"">2014-05-19T21:52:51Z</DateUtc></StartTime><FrequencyChanges><FrequencyChange><Frequency dt:dt=""r8"">2793030000</Frequency><Timestamp dt:dt=""r8"">2.93113039740002E+15</Timestamp><Current dt:dt=""r8"">0</Current><DateUtc dt:dt=""string"">2014-05-19T21:52:51Z</DateUtc></FrequencyChange></FrequencyChanges></Clock>\n",60.031,1,437584494,0,,-999999,14,43843,t,60099,103942,5/19/2014,14:52:52,9:52:52 PM,2,Session2,SessionsList,0,,-999999,8,756621,t,37039,793660,730534,2,1,2,2,,,,,2,1,2,,,,NonCued1,MiniBlocks1,945060,,,,7,1,b,-999999,8,1064667,b,527,1065194,Green,Congruent,b,White,0,,0,10,1060669,,0,0,,,,,,,,,,,,,Pictures\white.bmp,3000,4000,Pictures\black.bmp,7,1,7,,,,,,,,,,StimulusPr,Pictures\GreenRight.bmp,NonCuedStim1,Right
POP_2,16053,1,"<?xml version=""1.0""?>\n<Clock xmlns:dt=""urn:schemas-microsoft-com:datatypes""><Description dt:dt=""string"">E-Prime Primary Realtime Clock</Description><StartTime><Timestamp dt:dt=""int"">0</Timestamp><DateUtc dt:dt=""string"">2014-05-19T21:52:51Z</DateUtc></StartTime><FrequencyChanges><FrequencyChange><Frequency dt:dt=""r8"">2793030000</Frequency><Timestamp dt:dt=""r8"">2.93113039740002E+15</Timestamp><Current dt:dt=""r8"">0</Current><DateUtc dt:dt=""string"">2014-05-19T21:52:51Z</DateUtc></FrequencyChange></FrequencyChanges></Clock>\n",60.031,1,437584494,0,,-999999,14,43843,t,60099,103942,5/19/2014,14:52:52,9:52:52 PM,2,Session2,SessionsList,0,,-999999,8,756621,t,37039,793660,730534,2,1,2,2,,,,,2,1,2,,,,NonCued1,MiniBlocks1,945060,,,,8,1,b,-999999,3,1074662,b,469,1075131,Green,Congruent,b,White,0,,0,5,1070664,,0,0,,,,,,,,,,,,,Pictures\white.bmp,3000,4000,Pictures\black.bmp,8,1,8,,,,,,,,,,StimulusPr,Pictures\GreenRight.bmp,NonCuedStim1,Right
POP_2,16053,1,"<?xml version=""1.0""?>\n<Clock xmlns:dt=""urn:schemas-microsoft-com:datatypes""><Description dt:dt=""string"">E-Prime Primary Realtime Clock</Description><StartTime><Timestamp dt:dt=""int"">0</Timestamp><DateUtc dt:dt=""string"">2014-05-19T21:52:51Z</DateUtc></StartTime><FrequencyChanges><FrequencyChange><Frequency dt:dt=""r8"">2793030000</Frequency><Timestamp dt:dt=""r8"">2.93113039740002E+15</Timestamp><Current dt:dt=""r8"">0</Current><DateUtc dt:dt=""string"">2014-05-19T21:52:51Z</DateUtc></FrequencyChange></FrequencyChanges></Clock>\n",60.031,1,437584494,0,,-999999,14,43843,t,60099,103942,5/19/2014,14:52:52,9:52:52 PM,2,Session2,SessionsList,0,,-999999,8,756621,t,37039,793660,730534,2,1,2,2,,,,,2,1,2,,,,NonCued1,MiniBlocks1,945060,,,,9,1,b,-999999,12,1090671,b,480,1091151,Red,Incongruent,b,White,0,,0,17,1080676,,0,0,,,,,,,,,,,,,Pictures\white.bmp,9000,2000,Pictures\RedLeft.bmp,9,1,9,,,,,,,,,,StimulusPr,Pictures\black.bmp,NonCuedStim1,Left
POP_2,16053,1,"<?xml version=""1.0""?>\n<Clock xmlns:dt=""urn:schemas-microsoft-com:datatypes""><Description dt:dt=""string"">E-Prime Primary Realtime Clock</Description><StartTime><Timestamp dt:dt=""int"">0</Timestamp><DateUtc dt:dt=""string"">2014-05-19T21:52:51Z</DateUtc></StartTime><FrequencyChanges><FrequencyChange><Frequency dt:dt=""r8"">2793030000</Frequency><Timestamp dt:dt=""r8"">2.93113039740002E+15</Timestamp><Current dt:dt=""r8"">0</Current><DateUtc dt:dt=""string"">2014-05-19T21:52:51Z</DateUtc></FrequencyChange></FrequencyChanges></Clock>\n",60.031,1,437584494,0,,-999999,14,43843,t,60099,103942,5/19/2014,14:52:52,9:52:52 PM,2,Session2,SessionsList,0,,-999999,8,756621,t,37039,793660,730534,2,1,2,2,,,,,2,1,2,,,,NonCued1,MiniBlocks1,945060,,,,10,0,r,-999999,6,1101665,b,402,1102067,Green,Congruent,r,White,0,,0,10,1094669,,0,0,,,,,,,,,,,,,Pictures\white.bmp,6000,2000,Pictures\GreenLeft.bmp,10,1,10,,,,,,,,,,StimulusPr,Pictures\black.bmp,NonCuedStim1,Left
POP_2,16053,1,"<?xml version=""1.0""?>\n<Clock xmlns:dt=""urn:schemas-microsoft-com:datatypes""><Description dt:dt=""string"">E-Prime Primary Realtime Clock</Description><StartTime><Timestamp dt:dt=""int"">0</Timestamp><DateUtc dt:dt=""string"">2014-05-19T21:52:51Z</DateUtc></StartTime><FrequencyChanges><FrequencyChange><Frequency dt:dt=""r8"">2793030000</Frequency><Timestamp dt:dt=""r8"">2.93113039740002E+15</Timestamp><Current dt:dt=""r8"">0</Current><DateUtc dt:dt=""string"">2014-05-19T21:52:51Z</DateUtc></FrequencyChange></FrequencyChanges></Clock>\n",60.031,1,437584494,0,,-999999,14,43843,t,60099,103942,5/19/2014,14:52:52,9:52:52 PM,2,Session2,SessionsList,0,,-999999,8,756621,t,37039,793660,730534,2,1,2,3,,,,,3,1,3,,,,NonCued2,MiniBlocks1,,1104097,,,1,1,b,-999999,12,1123671,b,385,1124056,Green,Congruent,b,White,0,,0,17,1113676,,0,0,,,,,,,,,,,,,Pictures\white.bmp,9000,10000,Pictures\black.bmp,,,,1,1,1,,,,,,,StimulusPr,Pictures\GreenRight.bmp,NonCuedStim2,Right
POP_2,16053,1,"<?xml version=""1.0""?>\n<Clock xmlns:dt=""urn:schemas-microsoft-com:datatypes""><Description dt:dt=""string"">E-Prime Primary Realtime Clock</Description><StartTime><Timestamp dt:dt=""int"">0</Timestamp><DateUtc dt:dt=""string"">2014-05-19T21:52:51Z</DateUtc></StartTime><FrequencyChanges><FrequencyChange><Frequency dt:dt=""r8"">2793030000</Frequency><Timestamp dt:dt=""r8"">2.93113039740002E+15</Timestamp><Current dt:dt=""r8"">0</Current><DateUtc dt:dt=""string"">2014-05-19T21:52:51Z</DateUtc></FrequencyChange></FrequencyChanges></Clock>\n",60.031,1,437584494,0,,-999999,14,43843,t,60099,103942,5/19/2014,14:52:52,9:52:52 PM,2,Session2,SessionsList,0,,-999999,8,756621,t,37039,793660,730534,2,1,2,3,,,,,3,1,3,,,,NonCued2,MiniBlocks1,,1104097,,,2,1,r,-999999,4,1139663,r,605,1140268,Green,Congruent,r,White,0,,0,6,1135665,,0,0,,,,,,,,,,,,,Pictures\white.bmp,3000,2000,Pictures\GreenLeft.bmp,,,,2,1,2,,,,,,,StimulusPr,Pictures\black.bmp,NonCuedStim2,Left
POP_2,16053,1,"<?xml version=""1.0""?>\n<Clock xmlns:dt=""urn:schemas-microsoft-com:datatypes""><Description dt:dt=""string"">E-Prime Primary Realtime Clock</Description><StartTime><Timestamp dt:dt=""int"">0</Timestamp><DateUtc dt:dt=""string"">2014-05-19T21:52:51Z</DateUtc></StartTime><FrequencyChanges><FrequencyChange><Frequency dt:dt=""r8"">2793030000</Frequency><Timestamp dt:dt=""r8"">2.93113039740002E+15</Timestamp><Current dt:dt=""r8"">0</Current><DateUtc dt:dt=""string"">2014-05-19T21:52:51Z</DateUtc></FrequencyChange></FrequencyChanges></Clock>\n",60.031,1,437584494,0,,-999999,14,43843,t,60099,103942,5/19/2014,14:52:52,9:52:52 PM,2,Session2,SessionsList,0,,-999999,8,756621,t,37039,793660,730534,2,1,2,3,,,,,3,1,3,,,,NonCued2,MiniBlocks1,,1104097,,,3,1,r,-999999,17,1147692,r,624,1148316,Red,Incongruent,r,White,0,,0,2,1143661,,0,0,,,,,,,,,,,,,Pictures\white.bmp,3000,2000,Pictures\black.bmp,,,,3,1,3,,,,,,,StimulusPr,Pictures\RedRight.bmp,NonCuedStim2,Right
POP_2,16053,1,"<?xml version=""1.0""?>\n<Clock xmlns:dt=""urn:schemas-microsoft-com:datatypes""><Description dt:dt=""string"">E-Prime Primary Realtime Clock</Description><StartTime><Timestamp dt:dt=""int"">0</Timestamp><DateUtc dt:dt=""string"">2014-05-19T21:52:51Z</DateUtc></StartTime><FrequencyChanges><FrequencyChange><Frequency dt:dt=""r8"">2793030000</Frequency><Timestamp dt:dt=""r8"">2.93113039740002E+15</Timestamp><Current dt:dt=""r8"">0</Current><DateUtc dt:dt=""string"">2014-05-19T21:52:51Z</DateUtc></FrequencyChange></FrequencyChanges></Clock>\n",60.031,1,437584494,0,,-999999,14,43843,t,60099,103942,5/19/2014,14:52:52,9:52:52 PM,2,Session2,SessionsList,0,,-999999,8,756621,t,37039,793660,730534,2,1,2,3,,,,,3,1,3,,,,NonCued2,MiniBlocks1,,1104097,,,4,1,r,-999999,12,1156671,r,443,1157114,Green,Congruent,r,White,0,,0,15,1151674,,0,0,,,,,,,,,,,,,Pictures\white.bmp,4000,16000,Pictures\GreenLeft.bmp,,,,4,1,4,,,,,,,StimulusPr,Pictures\black.bmp,NonCuedStim2,Left
POP_2,16053,1,"<?xml version=""1.0""?>\n<Clock xmlns:dt=""urn:schemas-microsoft-com:datatypes""><Description dt:dt=""string"">E-Prime Primary Realtime Clock</Description><StartTime><Timestamp dt:dt=""int"">0</Timestamp><DateUtc dt:dt=""string"">2014-05-19T21:52:51Z</DateUtc></StartTime><FrequencyChanges><FrequencyChange><Frequency dt:dt=""r8"">2793030000</Frequency><Timestamp dt:dt=""r8"">2.93113039740002E+15</Timestamp><Current dt:dt=""r8"">0</Current><DateUtc dt:dt=""string"">2014-05-19T21:52:51Z</DateUtc></FrequencyChange></FrequencyChanges></Clock>\n",60.031,1,437584494,0,,-999999,14,43843,t,60099,103942,5/19/2014,14:52:52,9:52:52 PM,2,Session2,SessionsList,0,,-999999,8,756621,t,37039,793660,730534,2,1,2,3,,,,,3,1,3,,,,NonCued2,MiniBlocks1,,1104097,,,5,1,r,-999999,17,1181675,r,691,1182366,Green,Congruent,r,White,0,,0,3,1174662,,0,0,,,,,,,,,,,,,Pictures\white.bmp,6000,4000,Pictures\GreenLeft.bmp,,,,5,1,5,,,,,,,StimulusPr,Pictures\black.bmp,NonCuedStim2,Left
POP_2,16053,1,"<?xml version=""1.0""?>\n<Clock xmlns:dt=""urn:schemas-microsoft-com:datatypes""><Description dt:dt=""string"">E-Prime Primary Realtime Clock</Description><StartTime><Timestamp dt:dt=""int"">0</Timestamp><DateUtc dt:dt=""string"">2014-05-19T21:52:51Z</DateUtc></StartTime><FrequencyChanges><FrequencyChange><Frequency dt:dt=""r8"">2793030000</Frequency><Timestamp dt:dt=""r8"">2.93113039740002E+15</Timestamp><Current dt:dt=""r8"">0</Current><DateUtc dt:dt=""string"">2014-05-19T21:52:51Z</DateUtc></FrequencyChange></FrequencyChanges></Clock>\n",60.031,1,437584494,0,,-999999,14,43843,t,60099,103942,5/19/2014,14:52:52,9:52:52 PM,2,Session2,SessionsList,0,,-999999,8,756621,t,37039,793660,730534,2,1,2,3,,,,,3,1,3,,,,NonCued2,MiniBlocks1,,1104097,,,6,1,b,-999999,11,1191670,b,478,1192148,Red,Incongruent,b,White,0,,0,13,1187672,,0,0,,,,,,,,,,,,,Pictures\white.bmp,3000,4000,Pictures\RedLeft.bmp,,,,6,1,6,,,,,,,StimulusPr,Pictures\black.bmp,NonCuedStim2,Left
POP_2,16053,1,"<?xml version=""1.0""?>\n<Clock xmlns:dt=""urn:schemas-microsoft-com:datatypes""><Description dt:dt=""string"">E-Prime Primary Realtime Clock</Description><StartTime><Timestamp dt:dt=""int"">0</Timestamp><DateUtc dt:dt=""string"">2014-05-19T21:52:51Z</DateUtc></StartTime><FrequencyChanges><FrequencyChange><Frequency dt:dt=""r8"">2793030000</Frequency><Timestamp dt:dt=""r8"">2.93113039740002E+15</Timestamp><Current dt:dt=""r8"">0</Current><DateUtc dt:dt=""string"">2014-05-19T21:52:51Z</DateUtc></FrequencyChange></FrequencyChanges></Clock>\n",60.031,1,437584494,0,,-999999,14,43843,t,60099,103942,5/19/2014,14:52:52,9:52:52 PM,2,Session2,SessionsList,0,,-999999,8,756621,t,37039,793660,730534,2,1,2,3,,,,,3,1,3,,,,NonCued2,MiniBlocks1,,1104097,,,7,1,b,-999999,6,1202665,b,519,1203184,Green,Congruent,b,White,0,,0,12,1197667,,0,0,,,,,,,,,,,,,Pictures\white.bmp,4000,16000,Pictures\black.bmp,,,,7,1,7,,,,,,,StimulusPr,Pictures\GreenRight.bmp,NonCuedStim2,Right
POP_2,16053,1,"<?xml version=""1.0""?>\n<Clock xmlns:dt=""urn:schemas-microsoft-com:datatypes""><Description dt:dt=""string"">E-Prime Primary Realtime Clock</Description><StartTime><Timestamp dt:dt=""int"">0</Timestamp><DateUtc dt:dt=""string"">2014-05-19T21:52:51Z</DateUtc></StartTime><FrequencyChanges><FrequencyChange><Frequency dt:dt=""r8"">2793030000</Frequency><Timestamp dt:dt=""r8"">2.93113039740002E+15</Timestamp><Current dt:dt=""r8"">0</Current><DateUtc dt:dt=""string"">2014-05-19T21:52:51Z</DateUtc></FrequencyChange></FrequencyChanges></Clock>\n",60.031,1,437584494,0,,-999999,14,43843,t,60099,103942,5/19/2014,14:52:52,9:52:52 PM,2,Session2,SessionsList,0,,-999999,8,756621,t,37039,793660,730534,2,1,2,3,,,,,3,1,3,,,,NonCued2,MiniBlocks1,,1104097,,,8,1,r,-999999,10,1230684,r,556,1231240,Green,Congruent,r,White,0,,0,14,1220673,,0,0,,,,,,,,,,,,,Pictures\white.bmp,9000,2000,Pictures\GreenLeft.bmp,,,,8,1,8,,,,,,,StimulusPr,Pictures\black.bmp,NonCuedStim2,Left
POP_2,16053,1,"<?xml version=""1.0""?>\n<Clock xmlns:dt=""urn:schemas-microsoft-com:datatypes""><Description dt:dt=""string"">E-Prime Primary Realtime Clock</Description><StartTime><Timestamp dt:dt=""int"">0</Timestamp><DateUtc dt:dt=""string"">2014-05-19T21:52:51Z</DateUtc></StartTime><FrequencyChanges><FrequencyChange><Frequency dt:dt=""r8"">2793030000</Frequency><Timestamp dt:dt=""r8"">2.93113039740002E+15</Timestamp><Current dt:dt=""r8"">0</Current><DateUtc dt:dt=""string"">2014-05-19T21:52:51Z</DateUtc></FrequencyChange></FrequencyChanges></Clock>\n",60.031,1,437584494,0,,-999999,14,43843,t,60099,103942,5/19/2014,14:52:52,9:52:52 PM,2,Session2,SessionsList,0,,-999999,8,756621,t,37039,793660,730534,2,1,2,3,,,,,3,1,3,,,,NonCued2,MiniBlocks1,,1104097,,,9,1,b,-999999,5,1238664,b,450,1239114,Green,Congruent,b,White,0,,0,7,1234666,,0,0,,,,,,,,,,,,,Pictures\white.bmp,3000,10000,Pictures\black.bmp,,,,9,1,9,,,,,,,StimulusPr,Pictures\GreenRight.bmp,NonCuedStim2,Right
POP_2,16053,1,"<?xml version=""1.0""?>\n<Clock xmlns:dt=""urn:schemas-microsoft-com:datatypes""><Description dt:dt=""string"">E-Prime Primary Realtime Clock</Description><StartTime><Timestamp dt:dt=""int"">0</Timestamp><DateUtc dt:dt=""string"">2014-05-19T21:52:51Z</DateUtc></StartTime><FrequencyChanges><FrequencyChange><Frequency dt:dt=""r8"">2793030000</Frequency><Timestamp dt:dt=""r8"">2.93113039740002E+15</Timestamp><Current dt:dt=""r8"">0</Current><DateUtc dt:dt=""string"">2014-05-19T21:52:51Z</DateUtc></FrequencyChange></FrequencyChanges></Clock>\n",60.031,1,437584494,0,,-999999,14,43843,t,60099,103942,5/19/2014,14:52:52,9:52:52 PM,2,Session2,SessionsList,0,,-999999,8,756621,t,37039,793660,730534,2,1,2,3,,,,,3,1,3,,,,NonCued2,MiniBlocks1,,1104097,,,10,1,b,-999999,13,1254672,b,408,1255080,Green,Congruent,b,White,0,,0,15,1250674,,0,0,,,,,,,,,,,,,Pictures\white.bmp,3000,2000,Pictures\black.bmp,,,,10,1,10,,,,,,,StimulusPr,Pictures\GreenRight.bmp,NonCuedStim2,Right
POP_2,16053,1,"<?xml version=""1.0""?>\n<Clock xmlns:dt=""urn:schemas-microsoft-com:datatypes""><Description dt:dt=""string"">E-Prime Primary Realtime Clock</Description><StartTime><Timestamp dt:dt=""int"">0</Timestamp><DateUtc dt:dt=""string"">2014-05-19T21:52:51Z</DateUtc></StartTime><FrequencyChanges><FrequencyChange><Frequency dt:dt=""r8"">2793030000</Frequency><Timestamp dt:dt=""r8"">2.93113039740002E+15</Timestamp><Current dt:dt=""r8"">0</Current><DateUtc dt:dt=""string"">2014-05-19T21:52:51Z</DateUtc></FrequencyChange></FrequencyChanges></Clock>\n",60.031,1,437584494,0,,-999999,14,43843,t,60099,103942,5/19/2014,14:52:52,9:52:52 PM,2,Session2,SessionsList,0,,-999999,8,756621,t,37039,793660,730534,2,1,2,4,,1257104,,,4,1,4,,,,Cued2,MiniBlocks1,,,,,1,1,b,-999999,4,1273663,b,412,1274075,White,Congruent,b,Green,0,,0,7,1266666,,0,0,,,,1,1,1,,,,,,,Pictures\green.bmp,6000,4000,Pictures\black.bmp,,,,,,,,,,,,,StimulusPr,Pictures\right.bmp,CuedStim2,Right
POP_2,16053,1,"<?xml version=""1.0""?>\n<Clock xmlns:dt=""urn:schemas-microsoft-com:datatypes""><Description dt:dt=""string"">E-Prime Primary Realtime Clock</Description><StartTime><Timestamp dt:dt=""int"">0</Timestamp><DateUtc dt:dt=""string"">2014-05-19T21:52:51Z</DateUtc></StartTime><FrequencyChanges><FrequencyChange><Frequency dt:dt=""r8"">2793030000</Frequency><Timestamp dt:dt=""r8"">2.93113039740002E+15</Timestamp><Current dt:dt=""r8"">0</Current><DateUtc dt:dt=""string"">2014-05-19T21:52:51Z</DateUtc></FrequencyChange></FrequencyChanges></Clock>\n",60.031,1,437584494,0,,-999999,14,43843,t,60099,103942,5/19/2014,14:52:52,9:52:52 PM,2,Session2,SessionsList,0,,-999999,8,756621,t,37039,793660,730534,2,1,2,4,,1257104,,,4,1,4,,,,Cued2,MiniBlocks1,,,,,2,1,b,-999999,12,1289671,b,406,1290077,White,Congruent,b,Green,0,,0,2,1279676,,0,0,,,,2,1,2,,,,,,,Pictures\green.bmp,9000,10000,Pictures\black.bmp,,,,,,,,,,,,,StimulusPr,Pictures\right.bmp,CuedStim2,Right
POP_2,16053,1,"<?xml version=""1.0""?>\n<Clock xmlns:dt=""urn:schemas-microsoft-com:datatypes""><Description dt:dt=""string"">E-Prime Primary Realtime Clock</Description><StartTime><Timestamp dt:dt=""int"">0</Timestamp><DateUtc dt:dt=""string"">2014-05-19T21:52:51Z</DateUtc></StartTime><FrequencyChanges><FrequencyChange><Frequency dt:dt=""r8"">2793030000</Frequency><Timestamp dt:dt=""r8"">2.93113039740002E+15</Timestamp><Current dt:dt=""r8"">0</Current><DateUtc dt:dt=""string"">2014-05-19T21:52:51Z</DateUtc></FrequencyChange></FrequencyChanges></Clock>\n",60.031,1,437584494,0,,-999999,14,43843,t,60099,103942,5/19/2014,14:52:52,9:52:52 PM,2,Session2,SessionsList,0,,-999999,8,756621,t,37039,793660,730534,2,1,2,4,,1257104,,,4,1,4,,,,Cued2,MiniBlocks1,,,,,3,1,r,-999999,6,1305663,r,410,1306073,White,Incongruent,r,Red,0,,0,7,1301682,,0,0,,,,3,1,3,,,,,,,Pictures\red.bmp,3000,2000,Pictures\black.bmp,,,,,,,,,,,,,StimulusPr,Pictures\right.bmp,CuedStim2,Right
POP_2,16053,1,"<?xml version=""1.0""?>\n<Clock xmlns:dt=""urn:schemas-microsoft-com:datatypes""><Description dt:dt=""string"">E-Prime Primary Realtime Clock</Description><StartTime><Timestamp dt:dt=""int"">0</Timestamp><DateUtc dt:dt=""string"">2014-05-19T21:52:51Z</DateUtc></StartTime><FrequencyChanges><FrequencyChange><Frequency dt:dt=""r8"">2793030000</Frequency><Timestamp dt:dt=""r8"">2.93113039740002E+15</Timestamp><Current dt:dt=""r8"">0</Current><DateUtc dt:dt=""string"">2014-05-19T21:52:51Z</DateUtc></FrequencyChange></FrequencyChanges></Clock>\n",60.031,1,437584494,0,,-999999,14,43843,t,60099,103942,5/19/2014,14:52:52,9:52:52 PM,2,Session2,SessionsList,0,,-999999,8,756621,t,37039,793660,730534,2,1,2,4,,1257104,,,4,1,4,,,,Cued2,MiniBlocks1,,,,,4,1,r,-999999,16,1316675,r,404,1317079,White,Congruent,r,Green,0,,0,2,1309661,,0,0,,,,4,1,4,,,,,,,Pictures\green.bmp,6000,16000,Pictures\left.bmp,,,,,,,,,,,,,StimulusPr,Pictures\black.bmp,CuedStim2,Left
POP_2,16053,1,"<?xml version=""1.0""?>\n<Clock xmlns:dt=""urn:schemas-microsoft-com:datatypes""><Description dt:dt=""string"">E-Prime Primary Realtime Clock</Description><StartTime><Timestamp dt:dt=""int"">0</Timestamp><DateUtc dt:dt=""string"">2014-05-19T21:52:51Z</DateUtc></StartTime><FrequencyChanges><FrequencyChange><Frequency dt:dt=""r8"">2793030000</Frequency><Timestamp dt:dt=""r8"">2.93113039740002E+15</Timestamp><Current dt:dt=""r8"">0</Current><DateUtc dt:dt=""string"">2014-05-19T21:52:51Z</DateUtc></FrequencyChange></FrequencyChanges></Clock>\n",60.031,1,437584494,0,,-999999,14,43843,t,60099,103942,5/19/2014,14:52:52,9:52:52 PM,2,Session2,SessionsList,0,,-999999,8,756621,t,37039,793660,730534,2,1,2,4,,1257104,,,4,1,4,,,,Cued2,MiniBlocks1,,,,,5,1,b,-999999,7,1338664,b,356,1339020,White,Congruent,b,Green,0,,0,7,1334666,,0,0,,,,5,1,5,,,,,,,Pictures\green.bmp,3000,2000,Pictures\black.bmp,,,,,,,,,,,,,StimulusPr,Pictures\right.bmp,CuedStim2,Right
POP_2,16053,1,"<?xml version=""1.0""?>\n<Clock xmlns:dt=""urn:schemas-microsoft-com:datatypes""><Description dt:dt=""string"">E-Prime Primary Realtime Clock</Description><StartTime><Timestamp dt:dt=""int"">0</Timestamp><DateUtc dt:dt=""string"">2014-05-19T21:52:51Z</DateUtc></StartTime><FrequencyChanges><FrequencyChange><Frequency dt:dt=""r8"">2793030000</Frequency><Timestamp dt:dt=""r8"">2.93113039740002E+15</Timestamp><Current dt:dt=""r8"">0</Current><DateUtc dt:dt=""string"">2014-05-19T21:52:51Z</DateUtc></FrequencyChange></FrequencyChanges></Clock>\n",60.031,1,437584494,0,,-999999,14,43843,t,60099,103942,5/19/2014,14:52:52,9:52:52 PM,2,Session2,SessionsList,0,,-999999,8,756621,t,37039,793660,730534,2,1,2,4,,1257104,,,4,1,4,,,,Cued2,MiniBlocks1,,,,,6,1,r,-999999,17,1346676,r,292,1346968,White,Congruent,r,Green,0,,0,3,1342662,,0,0,,,,6,1,6,,,,,,,Pictures\green.bmp,3000,2000,Pictures\left.bmp,,,,,,,,,,,,,StimulusPr,Pictures\black.bmp,CuedStim2,Left
POP_2,16053,1,"<?xml version=""1.0""?>\n<Clock xmlns:dt=""urn:schemas-microsoft-com:datatypes""><Description dt:dt=""string"">E-Prime Primary Realtime Clock</Description><StartTime><Timestamp dt:dt=""int"">0</Timestamp><DateUtc dt:dt=""string"">2014-05-19T21:52:51Z</DateUtc></StartTime><FrequencyChanges><FrequencyChange><Frequency dt:dt=""r8"">2793030000</Frequency><Timestamp dt:dt=""r8"">2.93113039740002E+15</Timestamp><Current dt:dt=""r8"">0</Current><DateUtc dt:dt=""string"">2014-05-19T21:52:51Z</DateUtc></FrequencyChange></FrequencyChanges></Clock>\n",60.031,1,437584494,0,,-999999,14,43843,t,60099,103942,5/19/2014,14:52:52,9:52:52 PM,2,Session2,SessionsList,0,,-999999,8,756621,t,37039,793660,730534,2,1,2,4,,1257104,,,4,1,4,,,,Cued2,MiniBlocks1,,,,,7,1,b,-999999,17,1357687,b,418,1358105,White,Incongruent,b,Red,0,,0,17,1350691,,0,0,,,,7,1,7,,,,,,,Pictures\red.bmp,6000,4000,Pictures\left.bmp,,,,,,,,,,,,,StimulusPr,Pictures\black.bmp,CuedStim2,Left
POP_2,16053,1,"<?xml version=""1.0""?>\n<Clock xmlns:dt=""urn:schemas-microsoft-com:datatypes""><Description dt:dt=""string"">E-Prime Primary Realtime Clock</Description><StartTime><Timestamp dt:dt=""int"">0</Timestamp><DateUtc dt:dt=""string"">2014-05-19T21:52:51Z</DateUtc></StartTime><FrequencyChanges><FrequencyChange><Frequency dt:dt=""r8"">2793030000</Frequency><Timestamp dt:dt=""r8"">2.93113039740002E+15</Timestamp><Current dt:dt=""r8"">0</Current><DateUtc dt:dt=""string"">2014-05-19T21:52:51Z</DateUtc></FrequencyChange></FrequencyChanges></Clock>\n",60.031,1,437584494,0,,-999999,14,43843,t,60099,103942,5/19/2014,14:52:52,9:52:52 PM,2,Session2,SessionsList,0,,-999999,8,756621,t,37039,793660,730534,2,1,2,4,,1257104,,,4,1,4,,,,Cued2,MiniBlocks1,,,,,8,1,b,-999999,8,1368682,b,490,1369172,White,Congruent,b,Green,0,,0,2,1363669,,0,0,,,,8,1,8,,,,,,,Pictures\green.bmp,4000,4000,Pictures\black.bmp,,,,,,,,,,,,,StimulusPr,Pictures\right.bmp,CuedStim2,Right
POP_2,16053,1,"<?xml version=""1.0""?>\n<Clock xmlns:dt=""urn:schemas-microsoft-com:datatypes""><Description dt:dt=""string"">E-Prime Primary Realtime Clock</Description><StartTime><Timestamp dt:dt=""int"">0</Timestamp><DateUtc dt:dt=""string"">2014-05-19T21:52:51Z</DateUtc></StartTime><FrequencyChanges><FrequencyChange><Frequency dt:dt=""r8"">2793030000</Frequency><Timestamp dt:dt=""r8"">2.93113039740002E+15</Timestamp><Current dt:dt=""r8"">0</Current><DateUtc dt:dt=""string"">2014-05-19T21:52:51Z</DateUtc></FrequencyChange></FrequencyChanges></Clock>\n",60.031,1,437584494,0,,-999999,14,43843,t,60099,103942,5/19/2014,14:52:52,9:52:52 PM,2,Session2,SessionsList,0,,-999999,8,756621,t,37039,793660,730534,2,1,2,4,,1257104,,,4,1,4,,,,Cued2,MiniBlocks1,,,,,9,1,b,-999999,18,1384674,b,473,1385147,White,Incongruent,b,Red,0,,0,5,1374679,,0,0,,,,9,1,9,,,,,,,Pictures\red.bmp,9000,10000,Pictures\left.bmp,,,,,,,,,,,,,StimulusPr,Pictures\black.bmp,CuedStim2,Left
POP_2,16053,1,"<?xml version=""1.0""?>\n<Clock xmlns:dt=""urn:schemas-microsoft-com:datatypes""><Description dt:dt=""string"">E-Prime Primary Realtime Clock</Description><StartTime><Timestamp dt:dt=""int"">0</Timestamp><DateUtc dt:dt=""string"">2014-05-19T21:52:51Z</DateUtc></StartTime><FrequencyChanges><FrequencyChange><Frequency dt:dt=""r8"">2793030000</Frequency><Timestamp dt:dt=""r8"">2.93113039740002E+15</Timestamp><Current dt:dt=""r8"">0</Current><DateUtc dt:dt=""string"">2014-05-19T21:52:51Z</DateUtc></FrequencyChange></FrequencyChanges></Clock>\n",60.031,1,437584494,0,,-999999,14,43843,t,60099,103942,5/19/2014,14:52:52,9:52:52 PM,2,Session2,SessionsList,0,,-999999,8,756621,t,37039,793660,730534,2,1,2,4,,1257104,,,4,1,4,,,,Cued2,MiniBlocks1,,,,,10,1,r,-999999,4,1406663,r,351,1407014,White,Congruent,r,Green,0,,0,9,1396668,,0,0,,,,10,1,10,,,,,,,Pictures\green.bmp,9000,10000,Pictures\left.bmp,,,,,,,,,,,,,StimulusPr,Pictures\black.bmp,CuedStim2,Left
