ExperimentName,Subject,Session,Clock.Information,Display.RefreshRate,Group,RandomSeed,Session1Onset.ACC,Session1Onset.CRESP,Session1Onset.DurationError,Session1Onset.OnsetDelay,Session1Onset.OnsetTime,Session1Onset.RESP,Session1Onset.RT,Session1Onset.RTTime,SessionDate,SessionTime,SessionTimeUtc,Block,Procedure[Block],Running[Block],Session2Onset.ACC,Session2Onset.CRESP,Session2Onset.DurationError,Session2Onset.OnsetDelay,Session2Onset.OnsetTime,Session2Onset.RESP,Session2Onset.RT,Session2Onset.RTTime,SessionBreak.OnsetTime,SessionsList,SessionsList.Cycle,SessionsList.Sample,Trial,CuedPrompt1.OnsetTime,CuedPrompt2.OnsetTime,CuedPrompt3.OnsetTime,CuedPrompt4.OnsetTime,MiniBlocks1,MiniBlocks1.Cycle,MiniBlocks1.Sample,MiniBlocks2,MiniBlocks2.Cycle,MiniBlocks2.Sample,Procedure[Trial],Running[Trial],UncuedPrompt1.OnsetTime,UncuedPrompt2.OnsetTime,UncuedPrompt3.OnsetTime,UncuedPrompt4.OnsetTime,SubTrial,Arrow1.ACC,Arrow1.CRESP,Arrow1.DurationError,Arrow1.OnsetDelay,Arrow1.OnsetTime,Arrow1.RESP,Arrow1.RT,Arrow1.RTTime,ArrowColor,Congruence,CorrectResp,Cue,Cue.ACC,Cue.CRESP,Cue.DurationError,Cue.OnsetDelay,Cue.OnsetTime,Cue.RESP,Cue.RT,Cue.RTTime,CuedStim1,CuedStim1.Cycle,CuedStim1.Sample,CuedStim2,CuedStim2.Cycle,CuedStim2.Sample,CuedStim3,CuedStim3.Cycle,CuedStim3.Sample,CuedStim4,CuedStim4.Cycle,CuedStim4.Sample,CueImage,JitterCue,JitterTrial,LeftImage,NonCuedStim1,NonCuedStim1.Cycle,NonCuedStim1.Sample,NonCuedStim2,NonCuedStim2.Cycle,NonCuedStim2.Sample,NonCuedStim3,NonCuedStim3.Cycle,NonCuedStim3.Sample,NonCuedStim4,NonCuedStim4.Cycle,NonCuedStim4.Sample,Procedure[SubTrial],RightImage,Running[SubTrial],Stimulus
POP_2,27029,1,"<?xml version=""1.0""?>\n<Clock xmlns:dt=""urn:schemas-microsoft-com:datatypes""><Description dt:dt=""string"">E-Prime Primary Realtime Clock</Description><StartTime><Timestamp dt:dt=""int"">0</Timestamp><DateUtc dt:dt=""string"">2014-05-29T21:24:22Z</DateUtc></StartTime><FrequencyChanges><FrequencyChange><Frequency dt:dt=""r8"">2793040000</Frequency><Timestamp dt:dt=""r8"">271493679845794</Timestamp><Current dt:dt=""r8"">0</Current><DateUtc dt:dt=""string"">2014-05-29T21:24:22Z</DateUtc></FrequencyChange></FrequencyChanges></Clock>\n",60.03,1,747301631,0,,-999999,4,29643,t,20597,50240,5/29/2014,14:24:23,9:24:23 PM,1,Session1,SessionsList,,,,,,,,,,1,1,1,1,,,,,,,,1,1,1,NonCued3,MiniBlocks2,,,50249,,1,1,b,-999999,12,70273,b,624,70897,Green,Congruent,b,White,0,,0,3,60244,,0,0,,,,,,,,,,,,,Pictures\white.bmp,9000,10000,Pictures\black.bmp,,,,,,,1,1,1,,,,StimulusPr,Pictures\GreenRight.bmp,NonCuedStim3,Right
POP_2,27029,1,"<?xml version=""1.0""?>\n<Clock xmlns:dt=""urn:schemas-microsoft-com:datatypes""><Description dt:dt=""string"">E-Prime Primary Realtime Clock</Description><StartTime><Timestamp dt:dt=""int"">0</Timestamp><DateUtc dt:dt=""string"">2014-05-29T21:24:22Z</DateUtc></StartTime><FrequencyChanges><FrequencyChange><Frequency dt:dt=""r8"">2793040000</Frequency><Timestamp dt:dt=""r8"">271493679845794</Timestamp><Current dt:dt=""r8"">0</Current><DateUtc dt:dt=""string"">2014-05-29T21:24:22Z</DateUtc></FrequencyChange></FrequencyChanges></Clock>\n",60.03,1,747301631,0,,-999999,4,29643,t,20597,50240,5/29/2014,14:24:23,9:24:23 PM,1,Session1,SessionsList,,,,,,,,,,1,1,1,1,,,,,,,,1,1,1,NonCued3,MiniBlocks2,,,50249,,2,1,r,-999999,11,92262,r,670,92932,Red,Incongruent,r,White,0,,0,6,82250,,0,0,,,,,,,,,,,,,Pictures\white.bmp,9000,10000,Pictures\black.bmp,,,,,,,2,1,2,,,,StimulusPr,Pictures\RedRight.bmp,NonCuedStim3,Right
POP_2,27029,1,"<?xml version=""1.0""?>\n<Clock xmlns:dt=""urn:schemas-microsoft-com:datatypes""><Description dt:dt=""string"">E-Prime Primary Realtime Clock</Description><StartTime><Timestamp dt:dt=""int"">0</Timestamp><DateUtc dt:dt=""string"">2014-05-29T21:24:22Z</DateUtc></StartTime><FrequencyChanges><FrequencyChange><Frequency dt:dt=""r8"">2793040000</Frequency><Timestamp dt:dt=""r8"">271493679845794</Timestamp><Current dt:dt=""r8"">0</Current><DateUtc dt:dt=""string"">2014-05-29T21:24:22Z</DateUtc></FrequencyChange></FrequencyChanges></Clock>\n",60.03,1,747301631,0,,-999999,4,29643,t,20597,50240,5/29/2014,14:24:23,9:24:23 PM,1,Session1,SessionsList,,,,,,,,,,1,1,1,1,,,,,,,,1,1,1,NonCued3,MiniBlocks2,,,50249,,3,1,r,-999999,14,109270,r,508,109778,Green,Congruent,r,White,0,,0,12,104272,,0,0,,,,,,,,,,,,,Pictures\white.bmp,4000,4000,Pictures\GreenLeft.bmp,,,,,,,3,1,3,,,,StimulusPr,Pictures\black.bmp,NonCuedStim3,Left
POP_2,27029,1,"<?xml version=""1.0""?>\n<Clock xmlns:dt=""urn:schemas-microsoft-com:datatypes""><Description dt:dt=""string"">E-Prime Primary Realtime Clock</Description><StartTime><Timestamp dt:dt=""int"">0</Timestamp><DateUtc dt:dt=""string"">2014-05-29T21:24:22Z</DateUtc></StartTime><FrequencyChanges><FrequencyChange><Frequency dt:dt=""r8"">2793040000</Frequency><Timestamp dt:dt=""r8"">271493679845794</Timestamp><Current dt:dt=""r8"">0</Current><DateUtc dt:dt=""string"">2014-05-29T21:24:22Z</DateUtc></FrequencyChange></FrequencyChanges></Clock>\n",60.03,1,747301631,0,,-999999,4,29643,t,20597,50240,5/29/2014,14:24:23,9:24:23 PM,1,Session1,SessionsList,,,,,,,,,,1,1,1,1,,,,,,,,1,1,1,NonCued3,MiniBlocks2,,,50249,,4,1,b,-999999,8,122263,b,675,122938,Red,Incongruent,b,White,0,,0,7,115267,,0,0,,,,,,,,,,,,,Pictures\white.bmp,6000,4000,Pictures\RedLeft.bmp,,,,,,,4,1,4,,,,StimulusPr,Pictures\black.bmp,NonCuedStim3,Left
POP_2,27029,1,"<?xml version=""1.0""?>\n<Clock xmlns:dt=""urn:schemas-microsoft-com:datatypes""><Description dt:dt=""string"">E-Prime Primary Realtime Clock</Description><StartTime><Timestamp dt:dt=""int"">0</Timestamp><DateUtc dt:dt=""string"">2014-05-29T21:24:22Z</DateUtc></StartTime><FrequencyChanges><FrequencyChange><Frequency dt:dt=""r8"">2793040000</Frequency><Timestamp dt:dt=""r8"">271493679845794</Timestamp><Current dt:dt=""r8"">0</Current><DateUtc dt:dt=""string"">2014-05-29T21:24:22Z</DateUtc></FrequencyChange></FrequencyChanges></Clock>\n",60.03,1,747301631,0,,-999999,4,29643,t,20597,50240,5/29/2014,14:24:23,9:24:23 PM,1,Session1,SessionsList,,,,,,,,,,1,1,1,1,,,,,,,,1,1,1,NonCued3,MiniBlocks2,,,50249,,5,1,b,-999999,3,132258,b,526,132784,Green,Congruent,b,White,0,,0,5,128260,,0,0,,,,,,,,,,,,,Pictures\white.bmp,3000,2000,Pictures\black.bmp,,,,,,,5,1,5,,,,StimulusPr,Pictures\GreenRight.bmp,NonCuedStim3,Right
POP_2,27029,1,"<?xml version=""1.0""?>\n<Clock xmlns:dt=""urn:schemas-microsoft-com:datatypes""><Description dt:dt=""string"">E-Prime Primary Realtime Clock</Description><StartTime><Timestamp dt:dt=""int"">0</Timestamp><DateUtc dt:dt=""string"">2014-05-29T21:24:22Z</DateUtc></StartTime><FrequencyChanges><FrequencyChange><Frequency dt:dt=""r8"">2793040000</Frequency><Timestamp dt:dt=""r8"">271493679845794</Timestamp><Current dt:dt=""r8"">0</Current><DateUtc dt:dt=""string"">2014-05-29T21:24:22Z</DateUtc></FrequencyChange></FrequencyChanges></Clock>\n",60.03,1,747301631,0,,-999999,4,29643,t,20597,50240,5/29/2014,14:24:23,9:24:23 PM,1,Session1,SessionsList,,,,,,,,,,1,1,1,1,,,,,,,,1,1,1,NonCued3,MiniBlocks2,,,50249,,6,1,r,-999999,16,140271,r,557,140828,Green,Congruent,r,White,0,,0,18,136273,,0,0,,,,,,,,,,,,,Pictures\white.bmp,3000,2000,Pictures\GreenLeft.bmp,,,,,,,6,1,6,,,,StimulusPr,Pictures\black.bmp,NonCuedStim3,Left
POP_2,27029,1,"<?xml version=""1.0""?>\n<Clock xmlns:dt=""urn:schemas-microsoft-com:datatypes""><Description dt:dt=""string"">E-Prime Primary Realtime Clock</Description><StartTime><Timestamp dt:dt=""int"">0</Timestamp><DateUtc dt:dt=""string"">2014-05-29T21:24:22Z</DateUtc></StartTime><FrequencyChanges><FrequencyChange><Frequency dt:dt=""r8"">2793040000</Frequency><Timestamp dt:dt=""r8"">271493679845794</Timestamp><Current dt:dt=""r8"">0</Current><DateUtc dt:dt=""string"">2014-05-29T21:24:22Z</DateUtc></FrequencyChange></FrequencyChanges></Clock>\n",60.03,1,747301631,0,,-999999,4,29643,t,20597,50240,5/29/2014,14:24:23,9:24:23 PM,1,Session1,SessionsList,,,,,,,,,,1,1,1,1,,,,,,,,1,1,1,NonCued3,MiniBlocks2,,,50249,,7,1,b,-999999,9,151249,b,524,151773,Green,Congruent,b,White,0,,0,14,144269,,0,0,,,,,,,,,,,,,Pictures\white.bmp,6000,16000,Pictures\black.bmp,,,,,,,7,1,7,,,,StimulusPr,Pictures\GreenRight.bmp,NonCuedStim3,Right
POP_2,27029,1,"<?xml version=""1.0""?>\n<Clock xmlns:dt=""urn:schemas-microsoft-com:datatypes""><Description dt:dt=""string"">E-Prime Primary Realtime Clock</Description><StartTime><Timestamp dt:dt=""int"">0</Timestamp><DateUtc dt:dt=""string"">2014-05-29T21:24:22Z</DateUtc></StartTime><FrequencyChanges><FrequencyChange><Frequency dt:dt=""r8"">2793040000</Frequency><Timestamp dt:dt=""r8"">271493679845794</Timestamp><Current dt:dt=""r8"">0</Current><DateUtc dt:dt=""string"">2014-05-29T21:24:22Z</DateUtc></FrequencyChange></FrequencyChanges></Clock>\n",60.03,1,747301631,0,,-999999,4,29643,t,20597,50240,5/29/2014,14:24:23,9:24:23 PM,1,Session1,SessionsList,,,,,,,,,,1,1,1,1,,,,,,,,1,1,1,NonCued3,MiniBlocks2,,,50249,,8,1,r,-999999,11,173271,r,664,173935,Red,Incongruent,r,White,0,,0,13,169273,,0,0,,,,,,,,,,,,,Pictures\white.bmp,3000,2000,Pictures\black.bmp,,,,,,,8,1,8,,,,StimulusPr,Pictures\RedRight.bmp,NonCuedStim3,Right
POP_2,27029,1,"<?xml version=""1.0""?>\n<Clock xmlns:dt=""urn:schemas-microsoft-com:datatypes""><Description dt:dt=""string"">E-Prime Primary Realtime Clock</Description><StartTime><Timestamp dt:dt=""int"">0</Timestamp><DateUtc dt:dt=""string"">2014-05-29T21:24:22Z</DateUtc></StartTime><FrequencyChanges><FrequencyChange><Frequency dt:dt=""r8"">2793040000</Frequency><Timestamp dt:dt=""r8"">271493679845794</Timestamp><Current dt:dt=""r8"">0</Current><DateUtc dt:dt=""string"">2014-05-29T21:24:22Z</DateUtc></FrequencyChange></FrequencyChanges></Clock>\n",60.03,1,747301631,0,,-999999,4,29643,t,20597,50240,5/29/2014,14:24:23,9:24:23 PM,1,Session1,SessionsList,,,,,,,,,,1,1,1,1,,,,,,,,1,1,1,NonCued3,MiniBlocks2,,,50249,,9,1,r,-999999,4,187264,r,417,187681,Green,Congruent,r,White,0,,0,9,177269,,0,0,,,,,,,,,,,,,Pictures\white.bmp,9000,10000,Pictures\GreenLeft.bmp,,,,,,,9,1,9,,,,StimulusPr,Pictures\black.bmp,NonCuedStim3,Left
POP_2,27029,1,"<?xml version=""1.0""?>\n<Clock xmlns:dt=""urn:schemas-microsoft-com:datatypes""><Description dt:dt=""string"">E-Prime Primary Realtime Clock</Description><StartTime><Timestamp dt:dt=""int"">0</Timestamp><DateUtc dt:dt=""string"">2014-05-29T21:24:22Z</DateUtc></StartTime><FrequencyChanges><FrequencyChange><Frequency dt:dt=""r8"">2793040000</Frequency><Timestamp dt:dt=""r8"">271493679845794</Timestamp><Current dt:dt=""r8"">0</Current><DateUtc dt:dt=""string"">2014-05-29T21:24:22Z</DateUtc></FrequencyChange></FrequencyChanges></Clock>\n",60.03,1,747301631,0,,-999999,4,29643,t,20597,50240,5/29/2014,14:24:23,9:24:23 PM,1,Session1,SessionsList,,,,,,,,,,1,1,1,1,,,,,,,,1,1,1,NonCued3,MiniBlocks2,,,50249,,10,1,r,-999999,5,206254,r,379,206633,Green,Congruent,r,White,0,,0,3,199258,,0,0,,,,,,,,,,,,,Pictures\white.bmp,6000,4000,Pictures\GreenLeft.bmp,,,,,,,10,1,10,,,,StimulusPr,Pictures\black.bmp,NonCuedStim3,Left
POP_2,27029,1,"<?xml version=""1.0""?>\n<Clock xmlns:dt=""urn:schemas-microsoft-com:datatypes""><Description dt:dt=""string"">E-Prime Primary Realtime Clock</Description><StartTime><Timestamp dt:dt=""int"">0</Timestamp><DateUtc dt:dt=""string"">2014-05-29T21:24:22Z</DateUtc></StartTime><FrequencyChanges><FrequencyChange><Frequency dt:dt=""r8"">2793040000</Frequency><Timestamp dt:dt=""r8"">271493679845794</Timestamp><Current dt:dt=""r8"">0</Current><DateUtc dt:dt=""string"">2014-05-29T21:24:22Z</DateUtc></FrequencyChange></FrequencyChanges></Clock>\n",60.03,1,747301631,0,,-999999,4,29643,t,20597,50240,5/29/2014,14:24:23,9:24:23 PM,1,Session1,SessionsList,,,,,,,,,,1,1,1,2,,,210652,,,,,2,1,2,Cued3,MiniBlocks2,,,,,1,1,b,-999999,7,224262,b,543,224805,White,Congruent,b,Green,0,,0,4,220264,,0,0,,,,,,,1,1,1,,,,Pictures\green.bmp,3000,2000,Pictures\black.bmp,,,,,,,,,,,,,StimulusPr,Pictures\right.bmp,CuedStim3,Right
POP_2,27029,1,"<?xml version=""1.0""?>\n<Clock xmlns:dt=""urn:schemas-microsoft-com:datatypes""><Description dt:dt=""string"">E-Prime Primary Realtime Clock</Description><StartTime><Timestamp dt:dt=""int"">0</Timestamp><DateUtc dt:dt=""string"">2014-05-29T21:24:22Z</DateUtc></StartTime><FrequencyChanges><FrequencyChange><Frequency dt:dt=""r8"">2793040000</Frequency><Timestamp dt:dt=""r8"">271493679845794</Timestamp><Current dt:dt=""r8"">0</Current><DateUtc dt:dt=""string"">2014-05-29T21:24:22Z</DateUtc></FrequencyChange></FrequencyChanges></Clock>\n",60.03,1,747301631,0,,-999999,4,29643,t,20597,50240,5/29/2014,14:24:23,9:24:23 PM,1,Session1,SessionsList,,,,,,,,,,1,1,1,2,,,210652,,,,,2,1,2,Cued3,MiniBlocks2,,,,,2,1,b,-999999,16,232275,b,322,232597,White,Congruent,b,Green,0,,0,5,228260,,0,0,,,,,,,2,1,2,,,,Pictures\green.bmp,3000,10000,Pictures\black.bmp,,,,,,,,,,,,,StimulusPr,Pictures\right.bmp,CuedStim3,Right
POP_2,27029,1,"<?xml version=""1.0""?>\n<Clock xmlns:dt=""urn:schemas-microsoft-com:datatypes""><Description dt:dt=""string"">E-Prime Primary Realtime Clock</Description><StartTime><Timestamp dt:dt=""int"">0</Timestamp><DateUtc dt:dt=""string"">2014-05-29T21:24:22Z</DateUtc></StartTime><FrequencyChanges><FrequencyChange><Frequency dt:dt=""r8"">2793040000</Frequency><Timestamp dt:dt=""r8"">271493679845794</Timestamp><Current dt:dt=""r8"">0</Current><DateUtc dt:dt=""string"">2014-05-29T21:24:22Z</DateUtc></FrequencyChange></FrequencyChanges></Clock>\n",60.03,1,747301631,0,,-999999,4,29643,t,20597,50240,5/29/2014,14:24:23,9:24:23 PM,1,Session1,SessionsList,,,,,,,,,,1,1,1,2,,,210652,,,,,2,1,2,Cued3,MiniBlocks2,,,,,3,1,r,-999999,4,254264,r,427,254691,White,Congruent,r,Green,0,,0,9,244252,,0,0,,,,,,,3,1,3,,,,Pictures\green.bmp,9000,2000,Pictures\left.bmp,,,,,,,,,,,,,StimulusPr,Pictures\black.bmp,CuedStim3,Left
POP_2,27029,1,"<?xml version=""1.0""?>\n<Clock xmlns:dt=""urn:schemas-microsoft-com:datatypes""><Description dt:dt=""string"">E-Prime Primary Realtime Clock</Description><StartTime><Timestamp dt:dt=""int"">0</Timestamp><DateUtc dt:dt=""string"">2014-05-29T21:24:22Z</DateUtc></StartTime><FrequencyChanges><FrequencyChange><Frequency dt:dt=""r8"">2793040000</Frequency><Timestamp dt:dt=""r8"">271493679845794</Timestamp><Current dt:dt=""r8"">0</Current><DateUtc dt:dt=""string"">2014-05-29T21:24:22Z</DateUtc></FrequencyChange></FrequencyChanges></Clock>\n",60.03,1,747301631,0,,-999999,4,29643,t,20597,50240,5/29/2014,14:24:23,9:24:23 PM,1,Session1,SessionsList,,,,,,,,,,1,1,1,2,,,210652,,,,,2,1,2,Cued3,MiniBlocks2,,,,,4,1,r,-999999,5,263259,r,385,263644,White,Congruent,r,Green,0,,0,10,258262,,0,0,,,,,,,4,1,4,,,,Pictures\green.bmp,4000,16000,Pictures\left.bmp,,,,,,,,,,,,,StimulusPr,Pictures\black.bmp,CuedStim3,Left
POP_2,27029,1,"<?xml version=""1.0""?>\n<Clock xmlns:dt=""urn:schemas-microsoft-com:datatypes""><Description dt:dt=""string"">E-Prime Primary Realtime Clock</Description><StartTime><Timestamp dt:dt=""int"">0</Timestamp><DateUtc dt:dt=""string"">2014-05-29T21:24:22Z</DateUtc></StartTime><FrequencyChanges><FrequencyChange><Frequency dt:dt=""r8"">2793040000</Frequency><Timestamp dt:dt=""r8"">271493679845794</Timestamp><Current dt:dt=""r8"">0</Current><DateUtc dt:dt=""string"">2014-05-29T21:24:22Z</DateUtc></FrequencyChange></FrequencyChanges></Clock>\n",60.03,1,747301631,0,,-999999,4,29643,t,20597,50240,5/29/2014,14:24:23,9:24:23 PM,1,Session1,SessionsList,,,,,,,,,,1,1,1,2,,,210652,,,,,2,1,2,Cued3,MiniBlocks2,,,,,5,1,r,-999999,11,285265,r,464,285729,White,Incongruent,r,Red,0,,0,7,281267,,0,0,,,,,,,5,1,5,,,,Pictures\red.bmp,3000,4000,Pictures\black.bmp,,,,,,,,,,,,,StimulusPr,Pictures\right.bmp,CuedStim3,Right
POP_2,27029,1,"<?xml version=""1.0""?>\n<Clock xmlns:dt=""urn:schemas-microsoft-com:datatypes""><Description dt:dt=""string"">E-Prime Primary Realtime Clock</Description><StartTime><Timestamp dt:dt=""int"">0</Timestamp><DateUtc dt:dt=""string"">2014-05-29T21:24:22Z</DateUtc></StartTime><FrequencyChanges><FrequencyChange><Frequency dt:dt=""r8"">2793040000</Frequency><Timestamp dt:dt=""r8"">271493679845794</Timestamp><Current dt:dt=""r8"">0</Current><DateUtc dt:dt=""string"">2014-05-29T21:24:22Z</DateUtc></FrequencyChange></FrequencyChanges></Clock>\n",60.03,1,747301631,0,,-999999,4,29643,t,20597,50240,5/29/2014,14:24:23,9:24:23 PM,1,Session1,SessionsList,,,,,,,,,,1,1,1,2,,,210652,,,,,2,1,2,Cued3,MiniBlocks2,,,,,6,1,b,-999999,15,298275,b,298,298573,White,Congruent,b,Green,0,,0,18,291262,,0,0,,,,,,,6,1,6,,,,Pictures\green.bmp,6000,4000,Pictures\black.bmp,,,,,,,,,,,,,StimulusPr,Pictures\right.bmp,CuedStim3,Right
POP_2,27029,1,"<?xml version=""1.0""?>\n<Clock xmlns:dt=""urn:schemas-microsoft-com:datatypes""><Description dt:dt=""string"">E-Prime Primary Realtime Clock</Description><StartTime><Timestamp dt:dt=""int"">0</Timestamp><DateUtc dt:dt=""string"">2014-05-29T21:24:22Z</DateUtc></StartTime><FrequencyChanges><FrequencyChange><Frequency dt:dt=""r8"">2793040000</Frequency><Timestamp dt:dt=""r8"">271493679845794</Timestamp><Current dt:dt=""r8"">0</Current><DateUtc dt:dt=""string"">2014-05-29T21:24:22Z</DateUtc></FrequencyChange></FrequencyChanges></Clock>\n",60.03,1,747301631,0,,-999999,4,29643,t,20597,50240,5/29/2014,14:24:23,9:24:23 PM,1,Session1,SessionsList,,,,,,,,,,1,1,1,2,,,210652,,,,,2,1,2,Cued3,MiniBlocks2,,,,,7,1,r,-999999,10,309253,r,421,309674,White,Congruent,r,Green,0,,0,5,304255,,0,0,,,,,,,7,1,7,,,,Pictures\green.bmp,4000,16000,Pictures\left.bmp,,,,,,,,,,,,,StimulusPr,Pictures\black.bmp,CuedStim3,Left
POP_2,27029,1,"<?xml version=""1.0""?>\n<Clock xmlns:dt=""urn:schemas-microsoft-com:datatypes""><Description dt:dt=""string"">E-Prime Primary Realtime Clock</Description><StartTime><Timestamp dt:dt=""int"">0</Timestamp><DateUtc dt:dt=""string"">2014-05-29T21:24:22Z</DateUtc></StartTime><FrequencyChanges><FrequencyChange><Frequency dt:dt=""r8"">2793040000</Frequency><Timestamp dt:dt=""r8"">271493679845794</Timestamp><Current dt:dt=""r8"">0</Current><DateUtc dt:dt=""string"">2014-05-29T21:24:22Z</DateUtc></FrequencyChange></FrequencyChanges></Clock>\n",60.03,1,747301631,0,,-999999,4,29643,t,20597,50240,5/29/2014,14:24:23,9:24:23 PM,1,Session1,SessionsList,,,,,,,,,,1,1,1,2,,,210652,,,,,2,1,2,Cued3,MiniBlocks2,,,,,8,1,b,-999999,4,331258,b,446,331704,White,Incongruent,b,Red,0,,0,18,327277,,0,0,,,,,,,8,1,8,,,,Pictures\red.bmp,3000,2000,Pictures\left.bmp,,,,,,,,,,,,,StimulusPr,Pictures\black.bmp,CuedStim3,Left
POP_2,27029,1,"<?xml version=""1.0""?>\n<Clock xmlns:dt=""urn:schemas-microsoft-com:datatypes""><Description dt:dt=""string"">E-Prime Primary Realtime Clock</Description><StartTime><Timestamp dt:dt=""int"">0</Timestamp><DateUtc dt:dt=""string"">2014-05-29T21:24:22Z</DateUtc></StartTime><FrequencyChanges><FrequencyChange><Frequency dt:dt=""r8"">2793040000</Frequency><Timestamp dt:dt=""r8"">271493679845794</Timestamp><Current dt:dt=""r8"">0</Current><DateUtc dt:dt=""string"">2014-05-29T21:24:22Z</DateUtc></FrequencyChange></FrequencyChanges></Clock>\n",60.03,1,747301631,0,,-999999,4,29643,t,20597,50240,5/29/2014,14:24:23,9:24:23 PM,1,Session1,SessionsList,,,,,,,,,,1,1,1,2,,,210652,,,,,2,1,2,Cued3,MiniBlocks2,,,,,9,1,r,-999999,11,339271,r,408,339679,White,Congruent,r,Green,0,,0,2,335256,,0,0,,,,,,,9,1,9,,,,Pictures\green.bmp,3000,2000,Pictures\left.bmp,,,,,,,,,,,,,StimulusPr,Pictures\black.bmp,CuedStim3,Left
POP_2,27029,1,"<?xml version=""1.0""?>\n<Clock xmlns:dt=""urn:schemas-microsoft-com:datatypes""><Description dt:dt=""string"">E-Prime Primary Realtime Clock</Description><StartTime><Timestamp dt:dt=""int"">0</Timestamp><DateUtc dt:dt=""string"">2014-05-29T21:24:22Z</DateUtc></StartTime><FrequencyChanges><FrequencyChange><Frequency dt:dt=""r8"">2793040000</Frequency><Timestamp dt:dt=""r8"">271493679845794</Timestamp><Current dt:dt=""r8"">0</Current><DateUtc dt:dt=""string"">2014-05-29T21:24:22Z</DateUtc></FrequencyChange></FrequencyChanges></Clock>\n",60.03,1,747301631,0,,-999999,4,29643,t,20597,50240,5/29/2014,14:24:23,9:24:23 PM,1,Session1,SessionsList,,,,,,,,,,1,1,1,2,,,210652,,,,,2,1,2,Cued3,MiniBlocks2,,,,,10,1,b,-999999,4,353264,b,395,353659,White,Congruent,b,Green,0,,0,9,343269,,0,0,,,,,,,10,1,10,,,,Pictures\green.bmp,9000,10000,Pictures\black.bmp,,,,,,,,,,,,,StimulusPr,Pictures\right.bmp,CuedStim3,Right
POP_2,27029,1,"<?xml version=""1.0""?>\n<Clock xmlns:dt=""urn:schemas-microsoft-com:datatypes""><Description dt:dt=""string"">E-Prime Primary Realtime Clock</Description><StartTime><Timestamp dt:dt=""int"">0</Timestamp><DateUtc dt:dt=""string"">2014-05-29T21:24:22Z</DateUtc></StartTime><FrequencyChanges><FrequencyChange><Frequency dt:dt=""r8"">2793040000</Frequency><Timestamp dt:dt=""r8"">271493679845794</Timestamp><Current dt:dt=""r8"">0</Current><DateUtc dt:dt=""string"">2014-05-29T21:24:22Z</DateUtc></FrequencyChange></FrequencyChanges></Clock>\n",60.03,1,747301631,0,,-999999,4,29643,t,20597,50240,5/29/2014,14:24:23,9:24:23 PM,1,Session1,SessionsList,,,,,,,,,,1,1,1,3,,,,363675,,,,3,1,3,Cued4,MiniBlocks2,,,,,1,1,b,-999999,9,380267,b,427,380694,White,Congruent,b,Green,0,,0,16,373270,,0,0,,,,,,,,,,1,1,1,Pictures\green.bmp,6000,2000,Pictures\black.bmp,,,,,,,,,,,,,StimulusPr,Pictures\right.bmp,CuedStim4,Right
POP_2,27029,1,"<?xml version=""1.0""?>\n<Clock xmlns:dt=""urn:schemas-microsoft-com:datatypes""><Description dt:dt=""string"">E-Prime Primary Realtime Clock</Description><StartTime><Timestamp dt:dt=""int"">0</Timestamp><DateUtc dt:dt=""string"">2014-05-29T21:24:22Z</DateUtc></StartTime><FrequencyChanges><FrequencyChange><Frequency dt:dt=""r8"">2793040000</Frequency><Timestamp dt:dt=""r8"">271493679845794</Timestamp><Current dt:dt=""r8"">0</Current><DateUtc dt:dt=""string"">2014-05-29T21:24:22Z</DateUtc></FrequencyChange></FrequencyChanges></Clock>\n",60.03,1,747301631,0,,-999999,4,29643,t,20597,50240,5/29/2014,14:24:23,9:24:23 PM,1,Session1,SessionsList,,,,,,,,,,1,1,1,3,,,,363675,,,,3,1,3,Cued4,MiniBlocks2,,,,,2,1,r,-999999,9,394260,r,569,394829,White,Incongruent,r,Red,0,,0,6,384265,,0,0,,,,,,,,,,2,1,2,Pictures\red.bmp,9000,2000,Pictures\black.bmp,,,,,,,,,,,,,StimulusPr,Pictures\right.bmp,CuedStim4,Right
POP_2,27029,1,"<?xml version=""1.0""?>\n<Clock xmlns:dt=""urn:schemas-microsoft-com:datatypes""><Description dt:dt=""string"">E-Prime Primary Realtime Clock</Description><StartTime><Timestamp dt:dt=""int"">0</Timestamp><DateUtc dt:dt=""string"">2014-05-29T21:24:22Z</DateUtc></StartTime><FrequencyChanges><FrequencyChange><Frequency dt:dt=""r8"">2793040000</Frequency><Timestamp dt:dt=""r8"">271493679845794</Timestamp><Current dt:dt=""r8"">0</Current><DateUtc dt:dt=""string"">2014-05-29T21:24:22Z</DateUtc></FrequencyChange></FrequencyChanges></Clock>\n",60.03,1,747301631,0,,-999999,4,29643,t,20597,50240,5/29/2014,14:24:23,9:24:23 PM,1,Session1,SessionsList,,,,,,,,,,1,1,1,3,,,,363675,,,,3,1,3,Cued4,MiniBlocks2,,,,,3,1,b,-999999,13,402272,b,396,402668,White,Congruent,b,Green,0,,0,15,398274,,0,0,,,,,,,,,,3,1,3,Pictures\green.bmp,3000,4000,Pictures\black.bmp,,,,,,,,,,,,,StimulusPr,Pictures\right.bmp,CuedStim4,Right
POP_2,27029,1,"<?xml version=""1.0""?>\n<Clock xmlns:dt=""urn:schemas-microsoft-com:datatypes""><Description dt:dt=""string"">E-Prime Primary Realtime Clock</Description><StartTime><Timestamp dt:dt=""int"">0</Timestamp><DateUtc dt:dt=""string"">2014-05-29T21:24:22Z</DateUtc></StartTime><FrequencyChanges><FrequencyChange><Frequency dt:dt=""r8"">2793040000</Frequency><Timestamp dt:dt=""r8"">271493679845794</Timestamp><Current dt:dt=""r8"">0</Current><DateUtc dt:dt=""string"">2014-05-29T21:24:22Z</DateUtc></FrequencyChange></FrequencyChanges></Clock>\n",60.03,1,747301631,0,,-999999,4,29643,t,20597,50240,5/29/2014,14:24:23,9:24:23 PM,1,Session1,SessionsList,,,,,,,,,,1,1,1,3,,,,363675,,,,3,1,3,Cued4,MiniBlocks2,,,,,4,1,r,-999999,4,412251,r,453,412704,White,Congruent,r,Green,0,,0,10,408269,,0,0,,,,,,,,,,4,1,4,Pictures\green.bmp,3000,4000,Pictures\left.bmp,,,,,,,,,,,,,StimulusPr,Pictures\black.bmp,CuedStim4,Left
POP_2,27029,1,"<?xml version=""1.0""?>\n<Clock xmlns:dt=""urn:schemas-microsoft-com:datatypes""><Description dt:dt=""string"">E-Prime Primary Realtime Clock</Description><StartTime><Timestamp dt:dt=""int"">0</Timestamp><DateUtc dt:dt=""string"">2014-05-29T21:24:22Z</DateUtc></StartTime><FrequencyChanges><FrequencyChange><Frequency dt:dt=""r8"">2793040000</Frequency><Timestamp dt:dt=""r8"">271493679845794</Timestamp><Current dt:dt=""r8"">0</Current><DateUtc dt:dt=""string"">2014-05-29T21:24:22Z</DateUtc></FrequencyChange></FrequencyChanges></Clock>\n",60.03,1,747301631,0,,-999999,4,29643,t,20597,50240,5/29/2014,14:24:23,9:24:23 PM,1,Session1,SessionsList,,,,,,,,,,1,1,1,3,,,,363675,,,,3,1,3,Cued4,MiniBlocks2,,,,,5,0,b,-999999,19,423279,r,416,423695,White,Incongruent,b,Red,0,,0,17,418264,,0,0,,,,,,,,,,5,1,5,Pictures\red.bmp,4000,16000,Pictures\left.bmp,,,,,,,,,,,,,StimulusPr,Pictures\black.bmp,CuedStim4,Left
POP_2,27029,1,"<?xml version=""1.0""?>\n<Clock xmlns:dt=""urn:schemas-microsoft-com:datatypes""><Description dt:dt=""string"">E-Prime Primary Realtime Clock</Description><StartTime><Timestamp dt:dt=""int"">0</Timestamp><DateUtc dt:dt=""string"">2014-05-29T21:24:22Z</DateUtc></StartTime><FrequencyChanges><FrequencyChange><Frequency dt:dt=""r8"">2793040000</Frequency><Timestamp dt:dt=""r8"">271493679845794</Timestamp><Current dt:dt=""r8"">0</Current><DateUtc dt:dt=""string"">2014-05-29T21:24:22Z</DateUtc></FrequencyChange></FrequencyChanges></Clock>\n",60.03,1,747301631,0,,-999999,4,29643,t,20597,50240,5/29/2014,14:24:23,9:24:23 PM,1,Session1,SessionsList,,,,,,,,,,1,1,1,3,,,,363675,,,,3,1,3,Cued4,MiniBlocks2,,,,,6,1,b,-999999,9,445268,b,578,445846,White,Congruent,b,Green,0,,0,11,441270,,0,0,,,,,,,,,,6,1,6,Pictures\green.bmp,3000,2000,Pictures\black.bmp,,,,,,,,,,,,,StimulusPr,Pictures\right.bmp,CuedStim4,Right
POP_2,27029,1,"<?xml version=""1.0""?>\n<Clock xmlns:dt=""urn:schemas-microsoft-com:datatypes""><Description dt:dt=""string"">E-Prime Primary Realtime Clock</Description><StartTime><Timestamp dt:dt=""int"">0</Timestamp><DateUtc dt:dt=""string"">2014-05-29T21:24:22Z</DateUtc></StartTime><FrequencyChanges><FrequencyChange><Frequency dt:dt=""r8"">2793040000</Frequency><Timestamp dt:dt=""r8"">271493679845794</Timestamp><Current dt:dt=""r8"">0</Current><DateUtc dt:dt=""string"">2014-05-29T21:24:22Z</DateUtc></FrequencyChange></FrequencyChanges></Clock>\n",60.03,1,747301631,0,,-999999,4,29643,t,20597,50240,5/29/2014,14:24:23,9:24:23 PM,1,Session1,SessionsList,,,,,,,,,,1,1,1,3,,,,363675,,,,3,1,3,Cued4,MiniBlocks2,,,,,7,1,b,-999999,5,459260,b,318,459578,White,Congruent,b,Green,0,,0,12,449266,,0,0,,,,,,,,,,7,1,7,Pictures\green.bmp,9000,10000,Pictures\black.bmp,,,,,,,,,,,,,StimulusPr,Pictures\right.bmp,CuedStim4,Right
POP_2,27029,1,"<?xml version=""1.0""?>\n<Clock xmlns:dt=""urn:schemas-microsoft-com:datatypes""><Description dt:dt=""string"">E-Prime Primary Realtime Clock</Description><StartTime><Timestamp dt:dt=""int"">0</Timestamp><DateUtc dt:dt=""string"">2014-05-29T21:24:22Z</DateUtc></StartTime><FrequencyChanges><FrequencyChange><Frequency dt:dt=""r8"">2793040000</Frequency><Timestamp dt:dt=""r8"">271493679845794</Timestamp><Current dt:dt=""r8"">0</Current><DateUtc dt:dt=""string"">2014-05-29T21:24:22Z</DateUtc></FrequencyChange></FrequencyChanges></Clock>\n",60.03,1,747301631,0,,-999999,4,29643,t,20597,50240,5/29/2014,14:24:23,9:24:23 PM,1,Session1,SessionsList,,,,,,,,,,1,1,1,3,,,,363675,,,,3,1,3,Cued4,MiniBlocks2,,,,,8,1,b,-999999,9,478268,b,811,479079,White,Incongruent,b,Red,0,,0,12,471271,,0,0,,,,,,,,,,8,1,8,Pictures\red.bmp,6000,10000,Pictures\left.bmp,,,,,,,,,,,,,StimulusPr,Pictures\black.bmp,CuedStim4,Left
POP_2,27029,1,"<?xml version=""1.0""?>\n<Clock xmlns:dt=""urn:schemas-microsoft-com:datatypes""><Description dt:dt=""string"">E-Prime Primary Realtime Clock</Description><StartTime><Timestamp dt:dt=""int"">0</Timestamp><DateUtc dt:dt=""string"">2014-05-29T21:24:22Z</DateUtc></StartTime><FrequencyChanges><FrequencyChange><Frequency dt:dt=""r8"">2793040000</Frequency><Timestamp dt:dt=""r8"">271493679845794</Timestamp><Current dt:dt=""r8"">0</Current><DateUtc dt:dt=""string"">2014-05-29T21:24:22Z</DateUtc></FrequencyChange></FrequencyChanges></Clock>\n",60.03,1,747301631,0,,-999999,4,29643,t,20597,50240,5/29/2014,14:24:23,9:24:23 PM,1,Session1,SessionsList,,,,,,,,,,1,1,1,3,,,,363675,,,,3,1,3,Cued4,MiniBlocks2,,,,,9,1,r,-999999,16,497275,r,745,498020,White,Congruent,r,Green,0,,0,3,490262,,0,0,,,,,,,,,,9,1,9,Pictures\green.bmp,6000,16000,Pictures\left.bmp,,,,,,,,,,,,,StimulusPr,Pictures\black.bmp,CuedStim4,Left
POP_2,27029,1,"<?xml version=""1.0""?>\n<Clock xmlns:dt=""urn:schemas-microsoft-com:datatypes""><Description dt:dt=""string"">E-Prime Primary Realtime Clock</Description><StartTime><Timestamp dt:dt=""int"">0</Timestamp><DateUtc dt:dt=""string"">2014-05-29T21:24:22Z</DateUtc></StartTime><FrequencyChanges><FrequencyChange><Frequency dt:dt=""r8"">2793040000</Frequency><Timestamp dt:dt=""r8"">271493679845794</Timestamp><Current dt:dt=""r8"">0</Current><DateUtc dt:dt=""string"">2014-05-29T21:24:22Z</DateUtc></FrequencyChange></FrequencyChanges></Clock>\n",60.03,1,747301631,0,,-999999,4,29643,t,20597,50240,5/29/2014,14:24:23,9:24:23 PM,1,Session1,SessionsList,,,,,,,,,,1,1,1,3,,,,363675,,,,3,1,3,Cued4,MiniBlocks2,,,,,10,1,r,-999999,6,520246,r,811,521057,White,Congruent,r,Green,0,,0,7,515266,,0,0,,,,,,,,,,10,1,10,Pictures\green.bmp,4000,2000,Pictures\left.bmp,,,,,,,,,,,,,StimulusPr,Pictures\black.bmp,CuedStim4,Left
POP_2,27029,1,"<?xml version=""1.0""?>\n<Clock xmlns:dt=""urn:schemas-microsoft-com:datatypes""><Description dt:dt=""string"">E-Prime Primary Realtime Clock</Description><StartTime><Timestamp dt:dt=""int"">0</Timestamp><DateUtc dt:dt=""string"">2014-05-29T21:24:22Z</DateUtc></StartTime><FrequencyChanges><FrequencyChange><Frequency dt:dt=""r8"">2793040000</Frequency><Timestamp dt:dt=""r8"">271493679845794</Timestamp><Current dt:dt=""r8"">0</Current><DateUtc dt:dt=""string"">2014-05-29T21:24:22Z</DateUtc></FrequencyChange></FrequencyChanges></Clock>\n",60.03,1,747301631,0,,-999999,4,29643,t,20597,50240,5/29/2014,14:24:23,9:24:23 PM,1,Session1,SessionsList,,,,,,,,,,1,1,1,4,,,,,,,,4,1,4,NonCued4,MiniBlocks2,,,,523078,1,1,r,-999999,12,537271,r,518,537789,Green,Congruent,r,White,0,,0,14,533273,,0,0,,,,,,,,,,,,,Pictures\white.bmp,3000,2000,Pictures\GreenLeft.bmp,,,,,,,,,,1,1,1,StimulusPr,Pictures\black.bmp,NonCuedStim4,Left
POP_2,27029,1,"<?xml version=""1.0""?>\n<Clock xmlns:dt=""urn:schemas-microsoft-com:datatypes""><Description dt:dt=""string"">E-Prime Primary Realtime Clock</Description><StartTime><Timestamp dt:dt=""int"">0</Timestamp><DateUtc dt:dt=""string"">2014-05-29T21:24:22Z</DateUtc></StartTime><FrequencyChanges><FrequencyChange><Frequency dt:dt=""r8"">2793040000</Frequency><Timestamp dt:dt=""r8"">271493679845794</Timestamp><Current dt:dt=""r8"">0</Current><DateUtc dt:dt=""string"">2014-05-29T21:24:22Z</DateUtc></FrequencyChange></FrequencyChanges></Clock>\n",60.03,1,747301631,0,,-999999,4,29643,t,20597,50240,5/29/2014,14:24:23,9:24:23 PM,1,Session1,SessionsList,,,,,,,,,,1,1,1,4,,,,,,,,4,1,4,NonCued4,MiniBlocks2,,,,523078,2,1,r,-999999,8,546267,r,579,546846,Green,Congruent,r,White,0,,0,10,541269,,0,0,,,,,,,,,,,,,Pictures\white.bmp,4000,2000,Pictures\GreenLeft.bmp,,,,,,,,,,2,1,2,StimulusPr,Pictures\black.bmp,NonCuedStim4,Left
POP_2,27029,1,"<?xml version=""1.0""?>\n<Clock xmlns:dt=""urn:schemas-microsoft-com:datatypes""><Description dt:dt=""string"">E-Prime Primary Realtime Clock</Description><StartTime><Timestamp dt:dt=""int"">0</Timestamp><DateUtc dt:dt=""string"">2014-05-29T21:24:22Z</DateUtc></StartTime><FrequencyChanges><FrequencyChange><Frequency dt:dt=""r8"">2793040000</Frequency><Timestamp dt:dt=""r8"">271493679845794</Timestamp><Current dt:dt=""r8"">0</Current><DateUtc dt:dt=""string"">2014-05-29T21:24:22Z</DateUtc></FrequencyChange></FrequencyChanges></Clock>\n",60.03,1,747301631,0,,-999999,4,29643,t,20597,50240,5/29/2014,14:24:23,9:24:23 PM,1,Session1,SessionsList,,,,,,,,,,1,1,1,4,,,,,,,,4,1,4,NonCued4,MiniBlocks2,,,,523078,3,1,r,-999999,3,555262,r,387,555649,Red,Incongruent,r,White,0,,0,6,550265,,0,0,,,,,,,,,,,,,Pictures\white.bmp,4000,2000,Pictures\black.bmp,,,,,,,,,,3,1,3,StimulusPr,Pictures\RedRight.bmp,NonCuedStim4,Right
POP_2,27029,1,"<?xml version=""1.0""?>\n<Clock xmlns:dt=""urn:schemas-microsoft-com:datatypes""><Description dt:dt=""string"">E-Prime Primary Realtime Clock</Description><StartTime><Timestamp dt:dt=""int"">0</Timestamp><DateUtc dt:dt=""string"">2014-05-29T21:24:22Z</DateUtc></StartTime><FrequencyChanges><FrequencyChange><Frequency dt:dt=""r8"">2793040000</Frequency><Timestamp dt:dt=""r8"">271493679845794</Timestamp><Current dt:dt=""r8"">0</Current><DateUtc dt:dt=""string"">2014-05-29T21:24:22Z</DateUtc></FrequencyChange></FrequencyChanges></Clock>\n",60.03,1,747301631,0,,-999999,4,29643,t,20597,50240,5/29/2014,14:24:23,9:24:23 PM,1,Session1,SessionsList,,,,,,,,,,1,1,1,4,,,,,,,,4,1,4,NonCued4,MiniBlocks2,,,,523078,4,1,b,-999999,16,563275,b,460,563735,Green,Congruent,b,White,0,,0,7,559260,,0,0,,,,,,,,,,,,,Pictures\white.bmp,3000,16000,Pictures\black.bmp,,,,,,,,,,4,1,4,StimulusPr,Pictures\GreenRight.bmp,NonCuedStim4,Right
POP_2,27029,1,"<?xml version=""1.0""?>\n<Clock xmlns:dt=""urn:schemas-microsoft-com:datatypes""><Description dt:dt=""string"">E-Prime Primary Realtime Clock</Description><StartTime><Timestamp dt:dt=""int"">0</Timestamp><DateUtc dt:dt=""string"">2014-05-29T21:24:22Z</DateUtc></StartTime><FrequencyChanges><FrequencyChange><Frequency dt:dt=""r8"">2793040000</Frequency><Timestamp dt:dt=""r8"">271493679845794</Timestamp><Current dt:dt=""r8"">0</Current><DateUtc dt:dt=""string"">2014-05-29T21:24:22Z</DateUtc></FrequencyChange></FrequencyChanges></Clock>\n",60.03,1,747301631,0,,-999999,4,29643,t,20597,50240,5/29/2014,14:24:23,9:24:23 PM,1,Session1,SessionsList,,,,,,,,,,1,1,1,4,,,,,,,,4,1,4,NonCued4,MiniBlocks2,,,,523078,5,1,r,-999999,8,591261,r,363,591624,Green,Congruent,r,White,0,,0,9,581249,,0,0,,,,,,,,,,,,,Pictures\white.bmp,9000,10000,Pictures\GreenLeft.bmp,,,,,,,,,,5,1,5,StimulusPr,Pictures\black.bmp,NonCuedStim4,Left
POP_2,27029,1,"<?xml version=""1.0""?>\n<Clock xmlns:dt=""urn:schemas-microsoft-com:datatypes""><Description dt:dt=""string"">E-Prime Primary Realtime Clock</Description><StartTime><Timestamp dt:dt=""int"">0</Timestamp><DateUtc dt:dt=""string"">2014-05-29T21:24:22Z</DateUtc></StartTime><FrequencyChanges><FrequencyChange><Frequency dt:dt=""r8"">2793040000</Frequency><Timestamp dt:dt=""r8"">271493679845794</Timestamp><Current dt:dt=""r8"">0</Current><DateUtc dt:dt=""string"">2014-05-29T21:24:22Z</DateUtc></FrequencyChange></FrequencyChanges></Clock>\n",60.03,1,747301631,0,,-999999,4,29643,t,20597,50240,5/29/2014,14:24:23,9:24:23 PM,1,Session1,SessionsList,,,,,,,,,,1,1,1,4,,,,,,,,4,1,4,NonCued4,MiniBlocks2,,,,523078,6,1,b,-999999,18,607269,b,363,607632,Green,Congruent,b,White,0,,0,3,603255,,0,0,,,,,,,,,,,,,Pictures\white.bmp,3000,16000,Pictures\black.bmp,,,,,,,,,,6,1,6,StimulusPr,Pictures\GreenRight.bmp,NonCuedStim4,Right
POP_2,27029,1,"<?xml version=""1.0""?>\n<Clock xmlns:dt=""urn:schemas-microsoft-com:datatypes""><Description dt:dt=""string"">E-Prime Primary Realtime Clock</Description><StartTime><Timestamp dt:dt=""int"">0</Timestamp><DateUtc dt:dt=""string"">2014-05-29T21:24:22Z</DateUtc></StartTime><FrequencyChanges><FrequencyChange><Frequency dt:dt=""r8"">2793040000</Frequency><Timestamp dt:dt=""r8"">271493679845794</Timestamp><Current dt:dt=""r8"">0</Current><DateUtc dt:dt=""string"">2014-05-29T21:24:22Z</DateUtc></FrequencyChange></FrequencyChanges></Clock>\n",60.03,1,747301631,0,,-999999,4,29643,t,20597,50240,5/29/2014,14:24:23,9:24:23 PM,1,Session1,SessionsList,,,,,,,,,,1,1,1,4,,,,,,,,4,1,4,NonCued4,MiniBlocks2,,,,523078,7,1,b,-999999,16,629275,b,579,629854,Red,Incongruent,b,White,0,,0,2,625261,,0,0,,,,,,,,,,,,,Pictures\white.bmp,3000,16000,Pictures\RedLeft.bmp,,,,,,,,,,7,1,7,StimulusPr,Pictures\black.bmp,NonCuedStim4,Left
POP_2,27029,1,"<?xml version=""1.0""?>\n<Clock xmlns:dt=""urn:schemas-microsoft-com:datatypes""><Description dt:dt=""string"">E-Prime Primary Realtime Clock</Description><StartTime><Timestamp dt:dt=""int"">0</Timestamp><DateUtc dt:dt=""string"">2014-05-29T21:24:22Z</DateUtc></StartTime><FrequencyChanges><FrequencyChange><Frequency dt:dt=""r8"">2793040000</Frequency><Timestamp dt:dt=""r8"">271493679845794</Timestamp><Current dt:dt=""r8"">0</Current><DateUtc dt:dt=""string"">2014-05-29T21:24:22Z</DateUtc></FrequencyChange></FrequencyChanges></Clock>\n",60.03,1,747301631,0,,-999999,4,29643,t,20597,50240,5/29/2014,14:24:23,9:24:23 PM,1,Session1,SessionsList,,,,,,,,,,1,1,1,4,,,,,,,,4,1,4,NonCued4,MiniBlocks2,,,,523078,8,1,r,-999999,6,651264,r,604,651868,Green,Congruent,r,White,0,,0,7,647266,,0,0,,,,,,,,,,,,,Pictures\white.bmp,3000,2000,Pictures\GreenLeft.bmp,,,,,,,,,,8,1,8,StimulusPr,Pictures\black.bmp,NonCuedStim4,Left
POP_2,27029,1,"<?xml version=""1.0""?>\n<Clock xmlns:dt=""urn:schemas-microsoft-com:datatypes""><Description dt:dt=""string"">E-Prime Primary Realtime Clock</Description><StartTime><Timestamp dt:dt=""int"">0</Timestamp><DateUtc dt:dt=""string"">2014-05-29T21:24:22Z</DateUtc></StartTime><FrequencyChanges><FrequencyChange><Frequency dt:dt=""r8"">2793040000</Frequency><Timestamp dt:dt=""r8"">271493679845794</Timestamp><Current dt:dt=""r8"">0</Current><DateUtc dt:dt=""string"">2014-05-29T21:24:22Z</DateUtc></FrequencyChange></FrequencyChanges></Clock>\n",60.03,1,747301631,0,,-999999,4,29643,t,20597,50240,5/29/2014,14:24:23,9:24:23 PM,1,Session1,SessionsList,,,,,,,,,,1,1,1,4,,,,,,,,4,1,4,NonCued4,MiniBlocks2,,,,523078,9,1,b,-999999,5,662258,b,387,662645,Green,Congruent,b,White,0,,0,9,655262,,0,0,,,,,,,,,,,,,Pictures\white.bmp,6000,2000,Pictures\black.bmp,,,,,,,,,,9,1,9,StimulusPr,Pictures\GreenRight.bmp,NonCuedStim4,Right
POP_2,27029,1,"<?xml version=""1.0""?>\n<Clock xmlns:dt=""urn:schemas-microsoft-com:datatypes""><Description dt:dt=""string"">E-Prime Primary Realtime Clock</Description><StartTime><Timestamp dt:dt=""int"">0</Timestamp><DateUtc dt:dt=""string"">2014-05-29T21:24:22Z</DateUtc></StartTime><FrequencyChanges><FrequencyChange><Frequency dt:dt=""r8"">2793040000</Frequency><Timestamp dt:dt=""r8"">271493679845794</Timestamp><Current dt:dt=""r8"">0</Current><DateUtc dt:dt=""string"">2014-05-29T21:24:22Z</DateUtc></FrequencyChange></FrequencyChanges></Clock>\n",60.03,1,747301631,0,,-999999,4,29643,t,20597,50240,5/29/2014,14:24:23,9:24:23 PM,1,Session1,SessionsList,,,,,,,,,,1,1,1,4,,,,,,,,4,1,4,NonCued4,MiniBlocks2,,,,523078,10,1,b,-999999,19,671271,b,412,671683,Green,Congruent,b,White,0,,0,15,666273,,0,0,,,,,,,,,,,,,Pictures\white.bmp,4000,4000,Pictures\black.bmp,,,,,,,,,,10,1,10,StimulusPr,Pictures\GreenRight.bmp,NonCuedStim4,Right
POP_2,27029,1,"<?xml version=""1.0""?>\n<Clock xmlns:dt=""urn:schemas-microsoft-com:datatypes""><Description dt:dt=""string"">E-Prime Primary Realtime Clock</Description><StartTime><Timestamp dt:dt=""int"">0</Timestamp><DateUtc dt:dt=""string"">2014-05-29T21:24:22Z</DateUtc></StartTime><FrequencyChanges><FrequencyChange><Frequency dt:dt=""r8"">2793040000</Frequency><Timestamp dt:dt=""r8"">271493679845794</Timestamp><Current dt:dt=""r8"">0</Current><DateUtc dt:dt=""string"">2014-05-29T21:24:22Z</DateUtc></FrequencyChange></FrequencyChanges></Clock>\n",60.03,1,747301631,0,,-999999,4,29643,t,20597,50240,5/29/2014,14:24:23,9:24:23 PM,2,Session2,SessionsList,0,,-999999,3,705787,t,36767,742554,675702,2,1,2,1,742568,,,,1,1,1,,,,Cued1,MiniBlocks1,,,,,1,1,r,-999999,7,756561,r,692,757253,White,Congruent,r,Green,0,,0,15,751564,,0,0,1,1,1,,,,,,,,,,Pictures\green.bmp,4000,4000,Pictures\left.bmp,,,,,,,,,,,,,StimulusPr,Pictures\black.bmp,CuedStim1,Left
POP_2,27029,1,"<?xml version=""1.0""?>\n<Clock xmlns:dt=""urn:schemas-microsoft-com:datatypes""><Description dt:dt=""string"">E-Prime Primary Realtime Clock</Description><StartTime><Timestamp dt:dt=""int"">0</Timestamp><DateUtc dt:dt=""string"">2014-05-29T21:24:22Z</DateUtc></StartTime><FrequencyChanges><FrequencyChange><Frequency dt:dt=""r8"">2793040000</Frequency><Timestamp dt:dt=""r8"">271493679845794</Timestamp><Current dt:dt=""r8"">0</Current><DateUtc dt:dt=""string"">2014-05-29T21:24:22Z</DateUtc></FrequencyChange></FrequencyChanges></Clock>\n",60.03,1,747301631,0,,-999999,4,29643,t,20597,50240,5/29/2014,14:24:23,9:24:23 PM,2,Session2,SessionsList,0,,-999999,3,705787,t,36767,742554,675702,2,1,2,1,742568,,,,1,1,1,,,,Cued1,MiniBlocks1,,,,,2,1,b,-999999,17,769571,b,375,769946,White,Congruent,b,Green,0,,0,9,762558,,0,0,2,1,2,,,,,,,,,,Pictures\green.bmp,6000,2000,Pictures\black.bmp,,,,,,,,,,,,,StimulusPr,Pictures\right.bmp,CuedStim1,Right
POP_2,27029,1,"<?xml version=""1.0""?>\n<Clock xmlns:dt=""urn:schemas-microsoft-com:datatypes""><Description dt:dt=""string"">E-Prime Primary Realtime Clock</Description><StartTime><Timestamp dt:dt=""int"">0</Timestamp><DateUtc dt:dt=""string"">2014-05-29T21:24:22Z</DateUtc></StartTime><FrequencyChanges><FrequencyChange><Frequency dt:dt=""r8"">2793040000</Frequency><Timestamp dt:dt=""r8"">271493679845794</Timestamp><Current dt:dt=""r8"">0</Current><DateUtc dt:dt=""string"">2014-05-29T21:24:22Z</DateUtc></FrequencyChange></FrequencyChanges></Clock>\n",60.03,1,747301631,0,,-999999,4,29643,t,20597,50240,5/29/2014,14:24:23,9:24:23 PM,2,Session2,SessionsList,0,,-999999,3,705787,t,36767,742554,675702,2,1,2,1,742568,,,,1,1,1,,,,Cued1,MiniBlocks1,,,,,3,1,b,-999999,18,777567,b,313,777880,White,Congruent,b,Green,0,,0,3,773552,,0,0,3,1,3,,,,,,,,,,Pictures\green.bmp,3000,2000,Pictures\black.bmp,,,,,,,,,,,,,StimulusPr,Pictures\right.bmp,CuedStim1,Right
POP_2,27029,1,"<?xml version=""1.0""?>\n<Clock xmlns:dt=""urn:schemas-microsoft-com:datatypes""><Description dt:dt=""string"">E-Prime Primary Realtime Clock</Description><StartTime><Timestamp dt:dt=""int"">0</Timestamp><DateUtc dt:dt=""string"">2014-05-29T21:24:22Z</DateUtc></StartTime><FrequencyChanges><FrequencyChange><Frequency dt:dt=""r8"">2793040000</Frequency><Timestamp dt:dt=""r8"">271493679845794</Timestamp><Current dt:dt=""r8"">0</Current><DateUtc dt:dt=""string"">2014-05-29T21:24:22Z</DateUtc></FrequencyChange></FrequencyChanges></Clock>\n",60.03,1,747301631,0,,-999999,4,29643,t,20597,50240,5/29/2014,14:24:23,9:24:23 PM,2,Session2,SessionsList,0,,-999999,3,705787,t,36767,742554,675702,2,1,2,1,742568,,,,1,1,1,,,,Cued1,MiniBlocks1,,,,,4,1,b,-999999,9,785563,b,373,785936,White,Incongruent,b,Red,0,,0,16,781565,,0,0,4,1,4,,,,,,,,,,Pictures\red.bmp,3000,16000,Pictures\left.bmp,,,,,,,,,,,,,StimulusPr,Pictures\black.bmp,CuedStim1,Left
POP_2,27029,1,"<?xml version=""1.0""?>\n<Clock xmlns:dt=""urn:schemas-microsoft-com:datatypes""><Description dt:dt=""string"">E-Prime Primary Realtime Clock</Description><StartTime><Timestamp dt:dt=""int"">0</Timestamp><DateUtc dt:dt=""string"">2014-05-29T21:24:22Z</DateUtc></StartTime><FrequencyChanges><FrequencyChange><Frequency dt:dt=""r8"">2793040000</Frequency><Timestamp dt:dt=""r8"">271493679845794</Timestamp><Current dt:dt=""r8"">0</Current><DateUtc dt:dt=""string"">2014-05-29T21:24:22Z</DateUtc></FrequencyChange></FrequencyChanges></Clock>\n",60.03,1,747301631,0,,-999999,4,29643,t,20597,50240,5/29/2014,14:24:23,9:24:23 PM,2,Session2,SessionsList,0,,-999999,3,705787,t,36767,742554,675702,2,1,2,1,742568,,,,1,1,1,,,,Cued1,MiniBlocks1,,,,,5,1,r,-999999,3,807552,r,472,808024,White,Congruent,r,Green,0,,0,7,803554,,0,0,5,1,5,,,,,,,,,,Pictures\green.bmp,3000,16000,Pictures\left.bmp,,,,,,,,,,,,,StimulusPr,Pictures\black.bmp,CuedStim1,Left
POP_2,27029,1,"<?xml version=""1.0""?>\n<Clock xmlns:dt=""urn:schemas-microsoft-com:datatypes""><Description dt:dt=""string"">E-Prime Primary Realtime Clock</Description><StartTime><Timestamp dt:dt=""int"">0</Timestamp><DateUtc dt:dt=""string"">2014-05-29T21:24:22Z</DateUtc></StartTime><FrequencyChanges><FrequencyChange><Frequency dt:dt=""r8"">2793040000</Frequency><Timestamp dt:dt=""r8"">271493679845794</Timestamp><Current dt:dt=""r8"">0</Current><DateUtc dt:dt=""string"">2014-05-29T21:24:22Z</DateUtc></FrequencyChange></FrequencyChanges></Clock>\n",60.03,1,747301631,0,,-999999,4,29643,t,20597,50240,5/29/2014,14:24:23,9:24:23 PM,2,Session2,SessionsList,0,,-999999,3,705787,t,36767,742554,675702,2,1,2,1,742568,,,,1,1,1,,,,Cued1,MiniBlocks1,,,,,6,1,r,-999999,17,835571,r,503,836074,White,Congruent,r,Green,0,,0,11,825560,,0,0,6,1,6,,,,,,,,,,Pictures\green.bmp,9000,10000,Pictures\left.bmp,,,,,,,,,,,,,StimulusPr,Pictures\black.bmp,CuedStim1,Left
POP_2,27029,1,"<?xml version=""1.0""?>\n<Clock xmlns:dt=""urn:schemas-microsoft-com:datatypes""><Description dt:dt=""string"">E-Prime Primary Realtime Clock</Description><StartTime><Timestamp dt:dt=""int"">0</Timestamp><DateUtc dt:dt=""string"">2014-05-29T21:24:22Z</DateUtc></StartTime><FrequencyChanges><FrequencyChange><Frequency dt:dt=""r8"">2793040000</Frequency><Timestamp dt:dt=""r8"">271493679845794</Timestamp><Current dt:dt=""r8"">0</Current><DateUtc dt:dt=""string"">2014-05-29T21:24:22Z</DateUtc></FrequencyChange></FrequencyChanges></Clock>\n",60.03,1,747301631,0,,-999999,4,29643,t,20597,50240,5/29/2014,14:24:23,9:24:23 PM,2,Session2,SessionsList,0,,-999999,3,705787,t,36767,742554,675702,2,1,2,1,742568,,,,1,1,1,,,,Cued1,MiniBlocks1,,,,,7,1,b,-999999,14,851563,b,358,851921,White,Congruent,b,Green,0,,0,12,847565,,0,0,7,1,7,,,,,,,,,,Pictures\green.bmp,3000,16000,Pictures\black.bmp,,,,,,,,,,,,,StimulusPr,Pictures\right.bmp,CuedStim1,Right
POP_2,27029,1,"<?xml version=""1.0""?>\n<Clock xmlns:dt=""urn:schemas-microsoft-com:datatypes""><Description dt:dt=""string"">E-Prime Primary Realtime Clock</Description><StartTime><Timestamp dt:dt=""int"">0</Timestamp><DateUtc dt:dt=""string"">2014-05-29T21:24:22Z</DateUtc></StartTime><FrequencyChanges><FrequencyChange><Frequency dt:dt=""r8"">2793040000</Frequency><Timestamp dt:dt=""r8"">271493679845794</Timestamp><Current dt:dt=""r8"">0</Current><DateUtc dt:dt=""string"">2014-05-29T21:24:22Z</DateUtc></FrequencyChange></FrequencyChanges></Clock>\n",60.03,1,747301631,0,,-999999,4,29643,t,20597,50240,5/29/2014,14:24:23,9:24:23 PM,2,Session2,SessionsList,0,,-999999,3,705787,t,36767,742554,675702,2,1,2,1,742568,,,,1,1,1,,,,Cued1,MiniBlocks1,,,,,8,1,r,-999999,4,874552,r,561,875113,White,Incongruent,r,Red,0,,0,5,869554,,0,0,8,1,8,,,,,,,,,,Pictures\red.bmp,4000,2000,Pictures\black.bmp,,,,,,,,,,,,,StimulusPr,Pictures\right.bmp,CuedStim1,Right
POP_2,27029,1,"<?xml version=""1.0""?>\n<Clock xmlns:dt=""urn:schemas-microsoft-com:datatypes""><Description dt:dt=""string"">E-Prime Primary Realtime Clock</Description><StartTime><Timestamp dt:dt=""int"">0</Timestamp><DateUtc dt:dt=""string"">2014-05-29T21:24:22Z</DateUtc></StartTime><FrequencyChanges><FrequencyChange><Frequency dt:dt=""r8"">2793040000</Frequency><Timestamp dt:dt=""r8"">271493679845794</Timestamp><Current dt:dt=""r8"">0</Current><DateUtc dt:dt=""string"">2014-05-29T21:24:22Z</DateUtc></FrequencyChange></FrequencyChanges></Clock>\n",60.03,1,747301631,0,,-999999,4,29643,t,20597,50240,5/29/2014,14:24:23,9:24:23 PM,2,Session2,SessionsList,0,,-999999,3,705787,t,36767,742554,675702,2,1,2,1,742568,,,,1,1,1,,,,Cued1,MiniBlocks1,,,,,9,1,b,-999999,5,883547,b,349,883896,White,Congruent,b,Green,0,,0,17,878566,,0,0,9,1,9,,,,,,,,,,Pictures\green.bmp,4000,2000,Pictures\black.bmp,,,,,,,,,,,,,StimulusPr,Pictures\right.bmp,CuedStim1,Right
POP_2,27029,1,"<?xml version=""1.0""?>\n<Clock xmlns:dt=""urn:schemas-microsoft-com:datatypes""><Description dt:dt=""string"">E-Prime Primary Realtime Clock</Description><StartTime><Timestamp dt:dt=""int"">0</Timestamp><DateUtc dt:dt=""string"">2014-05-29T21:24:22Z</DateUtc></StartTime><FrequencyChanges><FrequencyChange><Frequency dt:dt=""r8"">2793040000</Frequency><Timestamp dt:dt=""r8"">271493679845794</Timestamp><Current dt:dt=""r8"">0</Current><DateUtc dt:dt=""string"">2014-05-29T21:24:22Z</DateUtc></FrequencyChange></FrequencyChanges></Clock>\n",60.03,1,747301631,0,,-999999,4,29643,t,20597,50240,5/29/2014,14:24:23,9:24:23 PM,2,Session2,SessionsList,0,,-999999,3,705787,t,36767,742554,675702,2,1,2,1,742568,,,,1,1,1,,,,Cued1,MiniBlocks1,,,,,10,1,r,-999999,12,891560,r,356,891916,White,Congruent,r,Green,0,,0,14,887562,,0,0,10,1,10,,,,,,,,,,Pictures\green.bmp,3000,2000,Pictures\left.bmp,,,,,,,,,,,,,StimulusPr,Pictures\black.bmp,CuedStim1,Left
POP_2,27029,1,"<?xml version=""1.0""?>\n<Clock xmlns:dt=""urn:schemas-microsoft-com:datatypes""><Description dt:dt=""string"">E-Prime Primary Realtime Clock</Description><StartTime><Timestamp dt:dt=""int"">0</Timestamp><DateUtc dt:dt=""string"">2014-05-29T21:24:22Z</DateUtc></StartTime><FrequencyChanges><FrequencyChange><Frequency dt:dt=""r8"">2793040000</Frequency><Timestamp dt:dt=""r8"">271493679845794</Timestamp><Current dt:dt=""r8"">0</Current><DateUtc dt:dt=""string"">2014-05-29T21:24:22Z</DateUtc></FrequencyChange></FrequencyChanges></Clock>\n",60.03,1,747301631,0,,-999999,4,29643,t,20597,50240,5/29/2014,14:24:23,9:24:23 PM,2,Session2,SessionsList,0,,-999999,3,705787,t,36767,742554,675702,2,1,2,2,,,,,2,1,2,,,,NonCued1,MiniBlocks1,893942,,,,1,1,r,-999999,3,908551,r,457,909008,Green,Congruent,r,White,0,,0,5,903554,,0,0,,,,,,,,,,,,,Pictures\white.bmp,4000,2000,Pictures\GreenLeft.bmp,1,1,1,,,,,,,,,,StimulusPr,Pictures\black.bmp,NonCuedStim1,Left
POP_2,27029,1,"<?xml version=""1.0""?>\n<Clock xmlns:dt=""urn:schemas-microsoft-com:datatypes""><Description dt:dt=""string"">E-Prime Primary Realtime Clock</Description><StartTime><Timestamp dt:dt=""int"">0</Timestamp><DateUtc dt:dt=""string"">2014-05-29T21:24:22Z</DateUtc></StartTime><FrequencyChanges><FrequencyChange><Frequency dt:dt=""r8"">2793040000</Frequency><Timestamp dt:dt=""r8"">271493679845794</Timestamp><Current dt:dt=""r8"">0</Current><DateUtc dt:dt=""string"">2014-05-29T21:24:22Z</DateUtc></FrequencyChange></FrequencyChanges></Clock>\n",60.03,1,747301631,0,,-999999,4,29643,t,20597,50240,5/29/2014,14:24:23,9:24:23 PM,2,Session2,SessionsList,0,,-999999,3,705787,t,36767,742554,675702,2,1,2,2,,,,,2,1,2,,,,NonCued1,MiniBlocks1,893942,,,,2,1,b,-999999,6,919546,b,443,919989,Green,Congruent,b,White,0,,0,18,912566,,0,0,,,,,,,,,,,,,Pictures\white.bmp,6000,16000,Pictures\black.bmp,2,1,2,,,,,,,,,,StimulusPr,Pictures\GreenRight.bmp,NonCuedStim1,Right
POP_2,27029,1,"<?xml version=""1.0""?>\n<Clock xmlns:dt=""urn:schemas-microsoft-com:datatypes""><Description dt:dt=""string"">E-Prime Primary Realtime Clock</Description><StartTime><Timestamp dt:dt=""int"">0</Timestamp><DateUtc dt:dt=""string"">2014-05-29T21:24:22Z</DateUtc></StartTime><FrequencyChanges><FrequencyChange><Frequency dt:dt=""r8"">2793040000</Frequency><Timestamp dt:dt=""r8"">271493679845794</Timestamp><Current dt:dt=""r8"">0</Current><DateUtc dt:dt=""string"">2014-05-29T21:24:22Z</DateUtc></FrequencyChange></FrequencyChanges></Clock>\n",60.03,1,747301631,0,,-999999,4,29643,t,20597,50240,5/29/2014,14:24:23,9:24:23 PM,2,Session2,SessionsList,0,,-999999,3,705787,t,36767,742554,675702,2,1,2,2,,,,,2,1,2,,,,NonCued1,MiniBlocks1,893942,,,,3,1,r,-999999,14,944567,r,585,945152,Red,Incongruent,r,White,0,,0,16,937570,,0,0,,,,,,,,,,,,,Pictures\white.bmp,6000,10000,Pictures\black.bmp,3,1,3,,,,,,,,,,StimulusPr,Pictures\RedRight.bmp,NonCuedStim1,Right
POP_2,27029,1,"<?xml version=""1.0""?>\n<Clock xmlns:dt=""urn:schemas-microsoft-com:datatypes""><Description dt:dt=""string"">E-Prime Primary Realtime Clock</Description><StartTime><Timestamp dt:dt=""int"">0</Timestamp><DateUtc dt:dt=""string"">2014-05-29T21:24:22Z</DateUtc></StartTime><FrequencyChanges><FrequencyChange><Frequency dt:dt=""r8"">2793040000</Frequency><Timestamp dt:dt=""r8"">271493679845794</Timestamp><Current dt:dt=""r8"">0</Current><DateUtc dt:dt=""string"">2014-05-29T21:24:22Z</DateUtc></FrequencyChange></FrequencyChanges></Clock>\n",60.03,1,747301631,0,,-999999,4,29643,t,20597,50240,5/29/2014,14:24:23,9:24:23 PM,2,Session2,SessionsList,0,,-999999,3,705787,t,36767,742554,675702,2,1,2,2,,,,,2,1,2,,,,NonCued1,MiniBlocks1,893942,,,,4,1,r,-999999,19,966572,r,486,967058,Green,Congruent,r,White,0,,0,7,956560,,0,0,,,,,,,,,,,,,Pictures\white.bmp,9000,10000,Pictures\GreenLeft.bmp,4,1,4,,,,,,,,,,StimulusPr,Pictures\black.bmp,NonCuedStim1,Left
POP_2,27029,1,"<?xml version=""1.0""?>\n<Clock xmlns:dt=""urn:schemas-microsoft-com:datatypes""><Description dt:dt=""string"">E-Prime Primary Realtime Clock</Description><StartTime><Timestamp dt:dt=""int"">0</Timestamp><DateUtc dt:dt=""string"">2014-05-29T21:24:22Z</DateUtc></StartTime><FrequencyChanges><FrequencyChange><Frequency dt:dt=""r8"">2793040000</Frequency><Timestamp dt:dt=""r8"">271493679845794</Timestamp><Current dt:dt=""r8"">0</Current><DateUtc dt:dt=""string"">2014-05-29T21:24:22Z</DateUtc></FrequencyChange></FrequencyChanges></Clock>\n",60.03,1,747301631,0,,-999999,4,29643,t,20597,50240,5/29/2014,14:24:23,9:24:23 PM,2,Session2,SessionsList,0,,-999999,3,705787,t,36767,742554,675702,2,1,2,2,,,,,2,1,2,,,,NonCued1,MiniBlocks1,893942,,,,5,1,b,-999999,9,982547,b,466,983013,Green,Congruent,b,White,0,,0,2,978550,,0,0,,,,,,,,,,,,,Pictures\white.bmp,3000,2000,Pictures\black.bmp,5,1,5,,,,,,,,,,StimulusPr,Pictures\GreenRight.bmp,NonCuedStim1,Right
POP_2,27029,1,"<?xml version=""1.0""?>\n<Clock xmlns:dt=""urn:schemas-microsoft-com:datatypes""><Description dt:dt=""string"">E-Prime Primary Realtime Clock</Description><StartTime><Timestamp dt:dt=""int"">0</Timestamp><DateUtc dt:dt=""string"">2014-05-29T21:24:22Z</DateUtc></StartTime><FrequencyChanges><FrequencyChange><Frequency dt:dt=""r8"">2793040000</Frequency><Timestamp dt:dt=""r8"">271493679845794</Timestamp><Current dt:dt=""r8"">0</Current><DateUtc dt:dt=""string"">2014-05-29T21:24:22Z</DateUtc></FrequencyChange></FrequencyChanges></Clock>\n",60.03,1,747301631,0,,-999999,4,29643,t,20597,50240,5/29/2014,14:24:23,9:24:23 PM,2,Session2,SessionsList,0,,-999999,3,705787,t,36767,742554,675702,2,1,2,2,,,,,2,1,2,,,,NonCued1,MiniBlocks1,893942,,,,6,1,b,-999999,12,991560,b,566,992126,Red,Incongruent,b,White,0,,0,10,986562,,0,0,,,,,,,,,,,,,Pictures\white.bmp,4000,16000,Pictures\RedLeft.bmp,6,1,6,,,,,,,,,,StimulusPr,Pictures\black.bmp,NonCuedStim1,Left
POP_2,27029,1,"<?xml version=""1.0""?>\n<Clock xmlns:dt=""urn:schemas-microsoft-com:datatypes""><Description dt:dt=""string"">E-Prime Primary Realtime Clock</Description><StartTime><Timestamp dt:dt=""int"">0</Timestamp><DateUtc dt:dt=""string"">2014-05-29T21:24:22Z</DateUtc></StartTime><FrequencyChanges><FrequencyChange><Frequency dt:dt=""r8"">2793040000</Frequency><Timestamp dt:dt=""r8"">271493679845794</Timestamp><Current dt:dt=""r8"">0</Current><DateUtc dt:dt=""string"">2014-05-29T21:24:22Z</DateUtc></FrequencyChange></FrequencyChanges></Clock>\n",60.03,1,747301631,0,,-999999,4,29643,t,20597,50240,5/29/2014,14:24:23,9:24:23 PM,2,Session2,SessionsList,0,,-999999,3,705787,t,36767,742554,675702,2,1,2,2,,,,,2,1,2,,,,NonCued1,MiniBlocks1,893942,,,,7,1,b,-999999,12,1013565,b,431,1013996,Green,Congruent,b,White,0,,0,14,1009567,,0,0,,,,,,,,,,,,,Pictures\white.bmp,3000,4000,Pictures\black.bmp,7,1,7,,,,,,,,,,StimulusPr,Pictures\GreenRight.bmp,NonCuedStim1,Right
POP_2,27029,1,"<?xml version=""1.0""?>\n<Clock xmlns:dt=""urn:schemas-microsoft-com:datatypes""><Description dt:dt=""string"">E-Prime Primary Realtime Clock</Description><StartTime><Timestamp dt:dt=""int"">0</Timestamp><DateUtc dt:dt=""string"">2014-05-29T21:24:22Z</DateUtc></StartTime><FrequencyChanges><FrequencyChange><Frequency dt:dt=""r8"">2793040000</Frequency><Timestamp dt:dt=""r8"">271493679845794</Timestamp><Current dt:dt=""r8"">0</Current><DateUtc dt:dt=""string"">2014-05-29T21:24:22Z</DateUtc></FrequencyChange></FrequencyChanges></Clock>\n",60.03,1,747301631,0,,-999999,4,29643,t,20597,50240,5/29/2014,14:24:23,9:24:23 PM,2,Session2,SessionsList,0,,-999999,3,705787,t,36767,742554,675702,2,1,2,2,,,,,2,1,2,,,,NonCued1,MiniBlocks1,893942,,,,8,1,b,-999999,7,1023560,b,339,1023899,Green,Congruent,b,White,0,,0,9,1019562,,0,0,,,,,,,,,,,,,Pictures\white.bmp,3000,4000,Pictures\black.bmp,8,1,8,,,,,,,,,,StimulusPr,Pictures\GreenRight.bmp,NonCuedStim1,Right
POP_2,27029,1,"<?xml version=""1.0""?>\n<Clock xmlns:dt=""urn:schemas-microsoft-com:datatypes""><Description dt:dt=""string"">E-Prime Primary Realtime Clock</Description><StartTime><Timestamp dt:dt=""int"">0</Timestamp><DateUtc dt:dt=""string"">2014-05-29T21:24:22Z</DateUtc></StartTime><FrequencyChanges><FrequencyChange><Frequency dt:dt=""r8"">2793040000</Frequency><Timestamp dt:dt=""r8"">271493679845794</Timestamp><Current dt:dt=""r8"">0</Current><DateUtc dt:dt=""string"">2014-05-29T21:24:22Z</DateUtc></FrequencyChange></FrequencyChanges></Clock>\n",60.03,1,747301631,0,,-999999,4,29643,t,20597,50240,5/29/2014,14:24:23,9:24:23 PM,2,Session2,SessionsList,0,,-999999,3,705787,t,36767,742554,675702,2,1,2,2,,,,,2,1,2,,,,NonCued1,MiniBlocks1,893942,,,,9,1,b,-999999,4,1039552,b,361,1039913,Red,Incongruent,b,White,0,,0,5,1029540,,0,0,,,,,,,,,,,,,Pictures\white.bmp,9000,2000,Pictures\RedLeft.bmp,9,1,9,,,,,,,,,,StimulusPr,Pictures\black.bmp,NonCuedStim1,Left
POP_2,27029,1,"<?xml version=""1.0""?>\n<Clock xmlns:dt=""urn:schemas-microsoft-com:datatypes""><Description dt:dt=""string"">E-Prime Primary Realtime Clock</Description><StartTime><Timestamp dt:dt=""int"">0</Timestamp><DateUtc dt:dt=""string"">2014-05-29T21:24:22Z</DateUtc></StartTime><FrequencyChanges><FrequencyChange><Frequency dt:dt=""r8"">2793040000</Frequency><Timestamp dt:dt=""r8"">271493679845794</Timestamp><Current dt:dt=""r8"">0</Current><DateUtc dt:dt=""string"">2014-05-29T21:24:22Z</DateUtc></FrequencyChange></FrequencyChanges></Clock>\n",60.03,1,747301631,0,,-999999,4,29643,t,20597,50240,5/29/2014,14:24:23,9:24:23 PM,2,Session2,SessionsList,0,,-999999,3,705787,t,36767,742554,675702,2,1,2,2,,,,,2,1,2,,,,NonCued1,MiniBlocks1,893942,,,,10,1,r,-999999,10,1050563,r,697,1051260,Green,Congruent,r,White,0,,0,5,1043550,,0,0,,,,,,,,,,,,,Pictures\white.bmp,6000,2000,Pictures\GreenLeft.bmp,10,1,10,,,,,,,,,,StimulusPr,Pictures\black.bmp,NonCuedStim1,Left
POP_2,27029,1,"<?xml version=""1.0""?>\n<Clock xmlns:dt=""urn:schemas-microsoft-com:datatypes""><Description dt:dt=""string"">E-Prime Primary Realtime Clock</Description><StartTime><Timestamp dt:dt=""int"">0</Timestamp><DateUtc dt:dt=""string"">2014-05-29T21:24:22Z</DateUtc></StartTime><FrequencyChanges><FrequencyChange><Frequency dt:dt=""r8"">2793040000</Frequency><Timestamp dt:dt=""r8"">271493679845794</Timestamp><Current dt:dt=""r8"">0</Current><DateUtc dt:dt=""string"">2014-05-29T21:24:22Z</DateUtc></FrequencyChange></FrequencyChanges></Clock>\n",60.03,1,747301631,0,,-999999,4,29643,t,20597,50240,5/29/2014,14:24:23,9:24:23 PM,2,Session2,SessionsList,0,,-999999,3,705787,t,36767,742554,675702,2,1,2,3,,,,,3,1,3,,,,NonCued2,MiniBlocks1,,1053279,,,1,1,b,-999999,4,1073552,b,458,1074010,Green,Congruent,b,White,0,,0,5,1063557,,0,0,,,,,,,,,,,,,Pictures\white.bmp,9000,10000,Pictures\black.bmp,,,,1,1,1,,,,,,,StimulusPr,Pictures\GreenRight.bmp,NonCuedStim2,Right
POP_2,27029,1,"<?xml version=""1.0""?>\n<Clock xmlns:dt=""urn:schemas-microsoft-com:datatypes""><Description dt:dt=""string"">E-Prime Primary Realtime Clock</Description><StartTime><Timestamp dt:dt=""int"">0</Timestamp><DateUtc dt:dt=""string"">2014-05-29T21:24:22Z</DateUtc></StartTime><FrequencyChanges><FrequencyChange><Frequency dt:dt=""r8"">2793040000</Frequency><Timestamp dt:dt=""r8"">271493679845794</Timestamp><Current dt:dt=""r8"">0</Current><DateUtc dt:dt=""string"">2014-05-29T21:24:22Z</DateUtc></FrequencyChange></FrequencyChanges></Clock>\n",60.03,1,747301631,0,,-999999,4,29643,t,20597,50240,5/29/2014,14:24:23,9:24:23 PM,2,Session2,SessionsList,0,,-999999,3,705787,t,36767,742554,675702,2,1,2,3,,,,,3,1,3,,,,NonCued2,MiniBlocks1,,1053279,,,2,1,r,-999999,13,1089560,r,525,1090085,Green,Congruent,r,White,0,,0,14,1085562,,0,0,,,,,,,,,,,,,Pictures\white.bmp,3000,2000,Pictures\GreenLeft.bmp,,,,2,1,2,,,,,,,StimulusPr,Pictures\black.bmp,NonCuedStim2,Left
POP_2,27029,1,"<?xml version=""1.0""?>\n<Clock xmlns:dt=""urn:schemas-microsoft-com:datatypes""><Description dt:dt=""string"">E-Prime Primary Realtime Clock</Description><StartTime><Timestamp dt:dt=""int"">0</Timestamp><DateUtc dt:dt=""string"">2014-05-29T21:24:22Z</DateUtc></StartTime><FrequencyChanges><FrequencyChange><Frequency dt:dt=""r8"">2793040000</Frequency><Timestamp dt:dt=""r8"">271493679845794</Timestamp><Current dt:dt=""r8"">0</Current><DateUtc dt:dt=""string"">2014-05-29T21:24:22Z</DateUtc></FrequencyChange></FrequencyChanges></Clock>\n",60.03,1,747301631,0,,-999999,4,29643,t,20597,50240,5/29/2014,14:24:23,9:24:23 PM,2,Session2,SessionsList,0,,-999999,3,705787,t,36767,742554,675702,2,1,2,3,,,,,3,1,3,,,,NonCued2,MiniBlocks1,,1053279,,,3,1,r,-999999,3,1097556,r,578,1098134,Red,Incongruent,r,White,0,,0,10,1093558,,0,0,,,,,,,,,,,,,Pictures\white.bmp,3000,2000,Pictures\black.bmp,,,,3,1,3,,,,,,,StimulusPr,Pictures\RedRight.bmp,NonCuedStim2,Right
POP_2,27029,1,"<?xml version=""1.0""?>\n<Clock xmlns:dt=""urn:schemas-microsoft-com:datatypes""><Description dt:dt=""string"">E-Prime Primary Realtime Clock</Description><StartTime><Timestamp dt:dt=""int"">0</Timestamp><DateUtc dt:dt=""string"">2014-05-29T21:24:22Z</DateUtc></StartTime><FrequencyChanges><FrequencyChange><Frequency dt:dt=""r8"">2793040000</Frequency><Timestamp dt:dt=""r8"">271493679845794</Timestamp><Current dt:dt=""r8"">0</Current><DateUtc dt:dt=""string"">2014-05-29T21:24:22Z</DateUtc></FrequencyChange></FrequencyChanges></Clock>\n",60.03,1,747301631,0,,-999999,4,29643,t,20597,50240,5/29/2014,14:24:23,9:24:23 PM,2,Session2,SessionsList,0,,-999999,3,705787,t,36767,742554,675702,2,1,2,3,,,,,3,1,3,,,,NonCued2,MiniBlocks1,,1053279,,,4,1,r,-999999,19,1106552,r,459,1107011,Green,Congruent,r,White,0,,0,2,1101555,,0,0,,,,,,,,,,,,,Pictures\white.bmp,4000,16000,Pictures\GreenLeft.bmp,,,,4,1,4,,,,,,,StimulusPr,Pictures\black.bmp,NonCuedStim2,Left
POP_2,27029,1,"<?xml version=""1.0""?>\n<Clock xmlns:dt=""urn:schemas-microsoft-com:datatypes""><Description dt:dt=""string"">E-Prime Primary Realtime Clock</Description><StartTime><Timestamp dt:dt=""int"">0</Timestamp><DateUtc dt:dt=""string"">2014-05-29T21:24:22Z</DateUtc></StartTime><FrequencyChanges><FrequencyChange><Frequency dt:dt=""r8"">2793040000</Frequency><Timestamp dt:dt=""r8"">271493679845794</Timestamp><Current dt:dt=""r8"">0</Current><DateUtc dt:dt=""string"">2014-05-29T21:24:22Z</DateUtc></FrequencyChange></FrequencyChanges></Clock>\n",60.03,1,747301631,0,,-999999,4,29643,t,20597,50240,5/29/2014,14:24:23,9:24:23 PM,2,Session2,SessionsList,0,,-999999,3,705787,t,36767,742554,675702,2,1,2,3,,,,,3,1,3,,,,NonCued2,MiniBlocks1,,1053279,,,5,1,r,-999999,4,1131556,r,574,1132130,Green,Congruent,r,White,0,,0,7,1124559,,0,0,,,,,,,,,,,,,Pictures\white.bmp,6000,4000,Pictures\GreenLeft.bmp,,,,5,1,5,,,,,,,StimulusPr,Pictures\black.bmp,NonCuedStim2,Left
POP_2,27029,1,"<?xml version=""1.0""?>\n<Clock xmlns:dt=""urn:schemas-microsoft-com:datatypes""><Description dt:dt=""string"">E-Prime Primary Realtime Clock</Description><StartTime><Timestamp dt:dt=""int"">0</Timestamp><DateUtc dt:dt=""string"">2014-05-29T21:24:22Z</DateUtc></StartTime><FrequencyChanges><FrequencyChange><Frequency dt:dt=""r8"">2793040000</Frequency><Timestamp dt:dt=""r8"">271493679845794</Timestamp><Current dt:dt=""r8"">0</Current><DateUtc dt:dt=""string"">2014-05-29T21:24:22Z</DateUtc></FrequencyChange></FrequencyChanges></Clock>\n",60.03,1,747301631,0,,-999999,4,29643,t,20597,50240,5/29/2014,14:24:23,9:24:23 PM,2,Session2,SessionsList,0,,-999999,3,705787,t,36767,742554,675702,2,1,2,3,,,,,3,1,3,,,,NonCued2,MiniBlocks1,,1053279,,,6,1,b,-999999,15,1141567,b,537,1142104,Red,Incongruent,b,White,0,,0,16,1137569,,0,0,,,,,,,,,,,,,Pictures\white.bmp,3000,4000,Pictures\RedLeft.bmp,,,,6,1,6,,,,,,,StimulusPr,Pictures\black.bmp,NonCuedStim2,Left
POP_2,27029,1,"<?xml version=""1.0""?>\n<Clock xmlns:dt=""urn:schemas-microsoft-com:datatypes""><Description dt:dt=""string"">E-Prime Primary Realtime Clock</Description><StartTime><Timestamp dt:dt=""int"">0</Timestamp><DateUtc dt:dt=""string"">2014-05-29T21:24:22Z</DateUtc></StartTime><FrequencyChanges><FrequencyChange><Frequency dt:dt=""r8"">2793040000</Frequency><Timestamp dt:dt=""r8"">271493679845794</Timestamp><Current dt:dt=""r8"">0</Current><DateUtc dt:dt=""string"">2014-05-29T21:24:22Z</DateUtc></FrequencyChange></FrequencyChanges></Clock>\n",60.03,1,747301631,0,,-999999,4,29643,t,20597,50240,5/29/2014,14:24:23,9:24:23 PM,2,Session2,SessionsList,0,,-999999,3,705787,t,36767,742554,675702,2,1,2,3,,,,,3,1,3,,,,NonCued2,MiniBlocks1,,1053279,,,7,1,b,-999999,15,1152562,b,489,1153051,Green,Congruent,b,White,0,,0,12,1147548,,0,0,,,,,,,,,,,,,Pictures\white.bmp,4000,16000,Pictures\black.bmp,,,,7,1,7,,,,,,,StimulusPr,Pictures\GreenRight.bmp,NonCuedStim2,Right
POP_2,27029,1,"<?xml version=""1.0""?>\n<Clock xmlns:dt=""urn:schemas-microsoft-com:datatypes""><Description dt:dt=""string"">E-Prime Primary Realtime Clock</Description><StartTime><Timestamp dt:dt=""int"">0</Timestamp><DateUtc dt:dt=""string"">2014-05-29T21:24:22Z</DateUtc></StartTime><FrequencyChanges><FrequencyChange><Frequency dt:dt=""r8"">2793040000</Frequency><Timestamp dt:dt=""r8"">271493679845794</Timestamp><Current dt:dt=""r8"">0</Current><DateUtc dt:dt=""string"">2014-05-29T21:24:22Z</DateUtc></FrequencyChange></FrequencyChanges></Clock>\n",60.03,1,747301631,0,,-999999,4,29643,t,20597,50240,5/29/2014,14:24:23,9:24:23 PM,2,Session2,SessionsList,0,,-999999,3,705787,t,36767,742554,675702,2,1,2,3,,,,,3,1,3,,,,NonCued2,MiniBlocks1,,1053279,,,8,1,r,-999999,4,1180548,r,437,1180985,Green,Congruent,r,White,0,,0,13,1170553,,0,0,,,,,,,,,,,,,Pictures\white.bmp,9000,2000,Pictures\GreenLeft.bmp,,,,8,1,8,,,,,,,StimulusPr,Pictures\black.bmp,NonCuedStim2,Left
POP_2,27029,1,"<?xml version=""1.0""?>\n<Clock xmlns:dt=""urn:schemas-microsoft-com:datatypes""><Description dt:dt=""string"">E-Prime Primary Realtime Clock</Description><StartTime><Timestamp dt:dt=""int"">0</Timestamp><DateUtc dt:dt=""string"">2014-05-29T21:24:22Z</DateUtc></StartTime><FrequencyChanges><FrequencyChange><Frequency dt:dt=""r8"">2793040000</Frequency><Timestamp dt:dt=""r8"">271493679845794</Timestamp><Current dt:dt=""r8"">0</Current><DateUtc dt:dt=""string"">2014-05-29T21:24:22Z</DateUtc></FrequencyChange></FrequencyChanges></Clock>\n",60.03,1,747301631,0,,-999999,4,29643,t,20597,50240,5/29/2014,14:24:23,9:24:23 PM,2,Session2,SessionsList,0,,-999999,3,705787,t,36767,742554,675702,2,1,2,3,,,,,3,1,3,,,,NonCued2,MiniBlocks1,,1053279,,,9,1,b,-999999,8,1188561,b,472,1189033,Green,Congruent,b,White,0,,0,12,1184546,,0,0,,,,,,,,,,,,,Pictures\white.bmp,3000,10000,Pictures\black.bmp,,,,9,1,9,,,,,,,StimulusPr,Pictures\GreenRight.bmp,NonCuedStim2,Right
POP_2,27029,1,"<?xml version=""1.0""?>\n<Clock xmlns:dt=""urn:schemas-microsoft-com:datatypes""><Description dt:dt=""string"">E-Prime Primary Realtime Clock</Description><StartTime><Timestamp dt:dt=""int"">0</Timestamp><DateUtc dt:dt=""string"">2014-05-29T21:24:22Z</DateUtc></StartTime><FrequencyChanges><FrequencyChange><Frequency dt:dt=""r8"">2793040000</Frequency><Timestamp dt:dt=""r8"">271493679845794</Timestamp><Current dt:dt=""r8"">0</Current><DateUtc dt:dt=""string"">2014-05-29T21:24:22Z</DateUtc></FrequencyChange></FrequencyChanges></Clock>\n",60.03,1,747301631,0,,-999999,4,29643,t,20597,50240,5/29/2014,14:24:23,9:24:23 PM,2,Session2,SessionsList,0,,-999999,3,705787,t,36767,742554,675702,2,1,2,3,,,,,3,1,3,,,,NonCued2,MiniBlocks1,,1053279,,,10,1,b,-999999,17,1204569,b,316,1204885,Green,Congruent,b,White,0,,0,3,1200555,,0,0,,,,,,,,,,,,,Pictures\white.bmp,3000,2000,Pictures\black.bmp,,,,10,1,10,,,,,,,StimulusPr,Pictures\GreenRight.bmp,NonCuedStim2,Right
POP_2,27029,1,"<?xml version=""1.0""?>\n<Clock xmlns:dt=""urn:schemas-microsoft-com:datatypes""><Description dt:dt=""string"">E-Prime Primary Realtime Clock</Description><StartTime><Timestamp dt:dt=""int"">0</Timestamp><DateUtc dt:dt=""string"">2014-05-29T21:24:22Z</DateUtc></StartTime><FrequencyChanges><FrequencyChange><Frequency dt:dt=""r8"">2793040000</Frequency><Timestamp dt:dt=""r8"">271493679845794</Timestamp><Current dt:dt=""r8"">0</Current><DateUtc dt:dt=""string"">2014-05-29T21:24:22Z</DateUtc></FrequencyChange></FrequencyChanges></Clock>\n",60.03,1,747301631,0,,-999999,4,29643,t,20597,50240,5/29/2014,14:24:23,9:24:23 PM,2,Session2,SessionsList,0,,-999999,3,705787,t,36767,742554,675702,2,1,2,4,,1206901,,,4,1,4,,,,Cued2,MiniBlocks1,,,,,1,1,b,-999999,8,1223560,b,399,1223959,White,Congruent,b,Green,0,,0,5,1216546,,0,0,,,,1,1,1,,,,,,,Pictures\green.bmp,6000,4000,Pictures\black.bmp,,,,,,,,,,,,,StimulusPr,Pictures\right.bmp,CuedStim2,Right
POP_2,27029,1,"<?xml version=""1.0""?>\n<Clock xmlns:dt=""urn:schemas-microsoft-com:datatypes""><Description dt:dt=""string"">E-Prime Primary Realtime Clock</Description><StartTime><Timestamp dt:dt=""int"">0</Timestamp><DateUtc dt:dt=""string"">2014-05-29T21:24:22Z</DateUtc></StartTime><FrequencyChanges><FrequencyChange><Frequency dt:dt=""r8"">2793040000</Frequency><Timestamp dt:dt=""r8"">271493679845794</Timestamp><Current dt:dt=""r8"">0</Current><DateUtc dt:dt=""string"">2014-05-29T21:24:22Z</DateUtc></FrequencyChange></FrequencyChanges></Clock>\n",60.03,1,747301631,0,,-999999,4,29643,t,20597,50240,5/29/2014,14:24:23,9:24:23 PM,2,Session2,SessionsList,0,,-999999,3,705787,t,36767,742554,675702,2,1,2,4,,1206901,,,4,1,4,,,,Cued2,MiniBlocks1,,,,,2,1,b,-999999,16,1239568,b,468,1240036,White,Congruent,b,Green,0,,0,17,1229557,,0,0,,,,2,1,2,,,,,,,Pictures\green.bmp,9000,10000,Pictures\black.bmp,,,,,,,,,,,,,StimulusPr,Pictures\right.bmp,CuedStim2,Right
POP_2,27029,1,"<?xml version=""1.0""?>\n<Clock xmlns:dt=""urn:schemas-microsoft-com:datatypes""><Description dt:dt=""string"">E-Prime Primary Realtime Clock</Description><StartTime><Timestamp dt:dt=""int"">0</Timestamp><DateUtc dt:dt=""string"">2014-05-29T21:24:22Z</DateUtc></StartTime><FrequencyChanges><FrequencyChange><Frequency dt:dt=""r8"">2793040000</Frequency><Timestamp dt:dt=""r8"">271493679845794</Timestamp><Current dt:dt=""r8"">0</Current><DateUtc dt:dt=""string"">2014-05-29T21:24:22Z</DateUtc></FrequencyChange></FrequencyChanges></Clock>\n",60.03,1,747301631,0,,-999999,4,29643,t,20597,50240,5/29/2014,14:24:23,9:24:23 PM,2,Session2,SessionsList,0,,-999999,3,705787,t,36767,742554,675702,2,1,2,4,,1206901,,,4,1,4,,,,Cued2,MiniBlocks1,,,,,3,0,r,-999999,13,1255560,b,411,1255971,White,Incongruent,r,Red,0,,0,10,1251562,,0,0,,,,3,1,3,,,,,,,Pictures\red.bmp,3000,2000,Pictures\black.bmp,,,,,,,,,,,,,StimulusPr,Pictures\right.bmp,CuedStim2,Right
POP_2,27029,1,"<?xml version=""1.0""?>\n<Clock xmlns:dt=""urn:schemas-microsoft-com:datatypes""><Description dt:dt=""string"">E-Prime Primary Realtime Clock</Description><StartTime><Timestamp dt:dt=""int"">0</Timestamp><DateUtc dt:dt=""string"">2014-05-29T21:24:22Z</DateUtc></StartTime><FrequencyChanges><FrequencyChange><Frequency dt:dt=""r8"">2793040000</Frequency><Timestamp dt:dt=""r8"">271493679845794</Timestamp><Current dt:dt=""r8"">0</Current><DateUtc dt:dt=""string"">2014-05-29T21:24:22Z</DateUtc></FrequencyChange></FrequencyChanges></Clock>\n",60.03,1,747301631,0,,-999999,4,29643,t,20597,50240,5/29/2014,14:24:23,9:24:23 PM,2,Session2,SessionsList,0,,-999999,3,705787,t,36767,742554,675702,2,1,2,4,,1206901,,,4,1,4,,,,Cued2,MiniBlocks1,,,,,4,1,r,-999999,8,1266555,r,454,1267009,White,Congruent,r,Green,0,,0,2,1259542,,0,0,,,,4,1,4,,,,,,,Pictures\green.bmp,6000,16000,Pictures\left.bmp,,,,,,,,,,,,,StimulusPr,Pictures\black.bmp,CuedStim2,Left
POP_2,27029,1,"<?xml version=""1.0""?>\n<Clock xmlns:dt=""urn:schemas-microsoft-com:datatypes""><Description dt:dt=""string"">E-Prime Primary Realtime Clock</Description><StartTime><Timestamp dt:dt=""int"">0</Timestamp><DateUtc dt:dt=""string"">2014-05-29T21:24:22Z</DateUtc></StartTime><FrequencyChanges><FrequencyChange><Frequency dt:dt=""r8"">2793040000</Frequency><Timestamp dt:dt=""r8"">271493679845794</Timestamp><Current dt:dt=""r8"">0</Current><DateUtc dt:dt=""string"">2014-05-29T21:24:22Z</DateUtc></FrequencyChange></FrequencyChanges></Clock>\n",60.03,1,747301631,0,,-999999,4,29643,t,20597,50240,5/29/2014,14:24:23,9:24:23 PM,2,Session2,SessionsList,0,,-999999,3,705787,t,36767,742554,675702,2,1,2,4,,1206901,,,4,1,4,,,,Cued2,MiniBlocks1,,,,,5,1,b,-999999,14,1288560,b,320,1288880,White,Congruent,b,Green,0,,0,10,1284562,,0,0,,,,5,1,5,,,,,,,Pictures\green.bmp,3000,2000,Pictures\black.bmp,,,,,,,,,,,,,StimulusPr,Pictures\right.bmp,CuedStim2,Right
POP_2,27029,1,"<?xml version=""1.0""?>\n<Clock xmlns:dt=""urn:schemas-microsoft-com:datatypes""><Description dt:dt=""string"">E-Prime Primary Realtime Clock</Description><StartTime><Timestamp dt:dt=""int"">0</Timestamp><DateUtc dt:dt=""string"">2014-05-29T21:24:22Z</DateUtc></StartTime><FrequencyChanges><FrequencyChange><Frequency dt:dt=""r8"">2793040000</Frequency><Timestamp dt:dt=""r8"">271493679845794</Timestamp><Current dt:dt=""r8"">0</Current><DateUtc dt:dt=""string"">2014-05-29T21:24:22Z</DateUtc></FrequencyChange></FrequencyChanges></Clock>\n",60.03,1,747301631,0,,-999999,4,29643,t,20597,50240,5/29/2014,14:24:23,9:24:23 PM,2,Session2,SessionsList,0,,-999999,3,705787,t,36767,742554,675702,2,1,2,4,,1206901,,,4,1,4,,,,Cued2,MiniBlocks1,,,,,6,1,r,-999999,3,1296540,r,322,1296862,White,Congruent,r,Green,0,,0,6,1292558,,0,0,,,,6,1,6,,,,,,,Pictures\green.bmp,3000,2000,Pictures\left.bmp,,,,,,,,,,,,,StimulusPr,Pictures\black.bmp,CuedStim2,Left
POP_2,27029,1,"<?xml version=""1.0""?>\n<Clock xmlns:dt=""urn:schemas-microsoft-com:datatypes""><Description dt:dt=""string"">E-Prime Primary Realtime Clock</Description><StartTime><Timestamp dt:dt=""int"">0</Timestamp><DateUtc dt:dt=""string"">2014-05-29T21:24:22Z</DateUtc></StartTime><FrequencyChanges><FrequencyChange><Frequency dt:dt=""r8"">2793040000</Frequency><Timestamp dt:dt=""r8"">271493679845794</Timestamp><Current dt:dt=""r8"">0</Current><DateUtc dt:dt=""string"">2014-05-29T21:24:22Z</DateUtc></FrequencyChange></FrequencyChanges></Clock>\n",60.03,1,747301631,0,,-999999,4,29643,t,20597,50240,5/29/2014,14:24:23,9:24:23 PM,2,Session2,SessionsList,0,,-999999,3,705787,t,36767,742554,675702,2,1,2,4,,1206901,,,4,1,4,,,,Cued2,MiniBlocks1,,,,,7,1,b,-999999,17,1307551,b,430,1307981,White,Incongruent,b,Red,0,,0,2,1300538,,0,0,,,,7,1,7,,,,,,,Pictures\red.bmp,6000,4000,Pictures\left.bmp,,,,,,,,,,,,,StimulusPr,Pictures\black.bmp,CuedStim2,Left
POP_2,27029,1,"<?xml version=""1.0""?>\n<Clock xmlns:dt=""urn:schemas-microsoft-com:datatypes""><Description dt:dt=""string"">E-Prime Primary Realtime Clock</Description><StartTime><Timestamp dt:dt=""int"">0</Timestamp><DateUtc dt:dt=""string"">2014-05-29T21:24:22Z</DateUtc></StartTime><FrequencyChanges><FrequencyChange><Frequency dt:dt=""r8"">2793040000</Frequency><Timestamp dt:dt=""r8"">271493679845794</Timestamp><Current dt:dt=""r8"">0</Current><DateUtc dt:dt=""string"">2014-05-29T21:24:22Z</DateUtc></FrequencyChange></FrequencyChanges></Clock>\n",60.03,1,747301631,0,,-999999,4,29643,t,20597,50240,5/29/2014,14:24:23,9:24:23 PM,2,Session2,SessionsList,0,,-999999,3,705787,t,36767,742554,675702,2,1,2,4,,1206901,,,4,1,4,,,,Cued2,MiniBlocks1,,,,,8,1,b,-999999,10,1318562,b,436,1318998,White,Congruent,b,Green,0,,0,13,1313548,,0,0,,,,8,1,8,,,,,,,Pictures\green.bmp,4000,4000,Pictures\black.bmp,,,,,,,,,,,,,StimulusPr,Pictures\right.bmp,CuedStim2,Right
POP_2,27029,1,"<?xml version=""1.0""?>\n<Clock xmlns:dt=""urn:schemas-microsoft-com:datatypes""><Description dt:dt=""string"">E-Prime Primary Realtime Clock</Description><StartTime><Timestamp dt:dt=""int"">0</Timestamp><DateUtc dt:dt=""string"">2014-05-29T21:24:22Z</DateUtc></StartTime><FrequencyChanges><FrequencyChange><Frequency dt:dt=""r8"">2793040000</Frequency><Timestamp dt:dt=""r8"">271493679845794</Timestamp><Current dt:dt=""r8"">0</Current><DateUtc dt:dt=""string"">2014-05-29T21:24:22Z</DateUtc></FrequencyChange></FrequencyChanges></Clock>\n",60.03,1,747301631,0,,-999999,4,29643,t,20597,50240,5/29/2014,14:24:23,9:24:23 PM,2,Session2,SessionsList,0,,-999999,3,705787,t,36767,742554,675702,2,1,2,4,,1206901,,,4,1,4,,,,Cued2,MiniBlocks1,,,,,9,1,b,-999999,3,1334554,b,429,1334983,White,Incongruent,b,Red,0,,0,7,1324542,,0,0,,,,9,1,9,,,,,,,Pictures\red.bmp,9000,10000,Pictures\left.bmp,,,,,,,,,,,,,StimulusPr,Pictures\black.bmp,CuedStim2,Left
POP_2,27029,1,"<?xml version=""1.0""?>\n<Clock xmlns:dt=""urn:schemas-microsoft-com:datatypes""><Description dt:dt=""string"">E-Prime Primary Realtime Clock</Description><StartTime><Timestamp dt:dt=""int"">0</Timestamp><DateUtc dt:dt=""string"">2014-05-29T21:24:22Z</DateUtc></StartTime><FrequencyChanges><FrequencyChange><Frequency dt:dt=""r8"">2793040000</Frequency><Timestamp dt:dt=""r8"">271493679845794</Timestamp><Current dt:dt=""r8"">0</Current><DateUtc dt:dt=""string"">2014-05-29T21:24:22Z</DateUtc></FrequencyChange></FrequencyChanges></Clock>\n",60.03,1,747301631,0,,-999999,4,29643,t,20597,50240,5/29/2014,14:24:23,9:24:23 PM,2,Session2,SessionsList,0,,-999999,3,705787,t,36767,742554,675702,2,1,2,4,,1206901,,,4,1,4,,,,Cued2,MiniBlocks1,,,,,10,1,r,-999999,17,1356559,r,706,1357265,White,Congruent,r,Green,0,,0,2,1346548,,0,0,,,,10,1,10,,,,,,,Pictures\green.bmp,9000,10000,Pictures\left.bmp,,,,,,,,,,,,,StimulusPr,Pictures\black.bmp,CuedStim2,Left
