ExperimentName,Subject,Session,Clock.Information,Display.RefreshRate,Group,RandomSeed,Session1Onset.ACC,Session1Onset.CRESP,Session1Onset.DurationError,Session1Onset.OnsetDelay,Session1Onset.OnsetTime,Session1Onset.RESP,Session1Onset.RT,Session1Onset.RTTime,SessionDate,SessionTime,SessionTimeUtc,Block,Procedure[Block],Running[Block],Session2Onset.ACC,Session2Onset.CRESP,Session2Onset.DurationError,Session2Onset.OnsetDelay,Session2Onset.OnsetTime,Session2Onset.RESP,Session2Onset.RT,Session2Onset.RTTime,SessionBreak.OnsetTime,SessionsList,SessionsList.Cycle,SessionsList.Sample,Trial,CuedPrompt1.OnsetTime,CuedPrompt2.OnsetTime,CuedPrompt3.OnsetTime,CuedPrompt4.OnsetTime,MiniBlocks1,MiniBlocks1.Cycle,MiniBlocks1.Sample,MiniBlocks2,MiniBlocks2.Cycle,MiniBlocks2.Sample,Procedure[Trial],Running[Trial],UncuedPrompt1.OnsetTime,UncuedPrompt2.OnsetTime,UncuedPrompt3.OnsetTime,UncuedPrompt4.OnsetTime,SubTrial,Arrow1.ACC,Arrow1.CRESP,Arrow1.DurationError,Arrow1.OnsetDelay,Arrow1.OnsetTime,Arrow1.RESP,Arrow1.RT,Arrow1.RTTime,ArrowColor,Congruence,CorrectResp,Cue,Cue.ACC,Cue.CRESP,Cue.DurationError,Cue.OnsetDelay,Cue.OnsetTime,Cue.RESP,Cue.RT,Cue.RTTime,CuedStim1,CuedStim1.Cycle,CuedStim1.Sample,CuedStim2,CuedStim2.Cycle,CuedStim2.Sample,CuedStim3,CuedStim3.Cycle,CuedStim3.Sample,CuedStim4,CuedStim4.Cycle,CuedStim4.Sample,CueImage,JitterCue,JitterTrial,LeftImage,NonCuedStim1,NonCuedStim1.Cycle,NonCuedStim1.Sample,NonCuedStim2,NonCuedStim2.Cycle,NonCuedStim2.Sample,NonCuedStim3,NonCuedStim3.Cycle,NonCuedStim3.Sample,NonCuedStim4,NonCuedStim4.Cycle,NonCuedStim4.Sample,Procedure[SubTrial],RightImage,Running[SubTrial],Stimulus
POP_2,27025,1,"<?xml version=""1.0""?>\n<Clock xmlns:dt=""urn:schemas-microsoft-com:datatypes""><Description dt:dt=""string"">E-Prime Primary Realtime Clock</Description><StartTime><Timestamp dt:dt=""int"">0</Timestamp><DateUtc dt:dt=""string"">2014-05-30T22:19:31Z</DateUtc></StartTime><FrequencyChanges><FrequencyChange><Frequency dt:dt=""r8"">2793040000</Frequency><Timestamp dt:dt=""r8"">522067888560433</Timestamp><Current dt:dt=""r8"">0</Current><DateUtc dt:dt=""string"">2014-05-30T22:19:31Z</DateUtc></FrequencyChange></FrequencyChanges></Clock>\n",60.03,1,-1996816544,0,,-999999,8,16187,t,56829,73016,5/30/2014,15:19:31,,1,Session1,SessionsList,,,,,,,,,,1,1,1,1,,,,,,,,1,1,1,NonCued3,MiniBlocks2,,,73026,,1,1,b,-999999,6,93016,b,673,93689,Green,Congruent,b,White,0,,0,5,83021,,0,0,,,,,,,,,,,,,Pictures\white.bmp,9000,10000,Pictures\black.bmp,,,,,,,1,1,1,,,,StimulusPr,Pictures\GreenRight.bmp,NonCuedStim3,Right
POP_2,27025,1,"<?xml version=""1.0""?>\n<Clock xmlns:dt=""urn:schemas-microsoft-com:datatypes""><Description dt:dt=""string"">E-Prime Primary Realtime Clock</Description><StartTime><Timestamp dt:dt=""int"">0</Timestamp><DateUtc dt:dt=""string"">2014-05-30T22:19:31Z</DateUtc></StartTime><FrequencyChanges><FrequencyChange><Frequency dt:dt=""r8"">2793040000</Frequency><Timestamp dt:dt=""r8"">522067888560433</Timestamp><Current dt:dt=""r8"">0</Current><DateUtc dt:dt=""string"">2014-05-30T22:19:31Z</DateUtc></FrequencyChange></FrequencyChanges></Clock>\n",60.03,1,-1996816544,0,,-999999,8,16187,t,56829,73016,5/30/2014,15:19:31,,1,Session1,SessionsList,,,,,,,,,,1,1,1,1,,,,,,,,1,1,1,NonCued3,MiniBlocks2,,,73026,,2,1,r,-999999,5,115021,r,752,115773,Red,Incongruent,r,White,0,,0,10,105026,,0,0,,,,,,,,,,,,,Pictures\white.bmp,9000,10000,Pictures\black.bmp,,,,,,,2,1,2,,,,StimulusPr,Pictures\RedRight.bmp,NonCuedStim3,Right
POP_2,27025,1,"<?xml version=""1.0""?>\n<Clock xmlns:dt=""urn:schemas-microsoft-com:datatypes""><Description dt:dt=""string"">E-Prime Primary Realtime Clock</Description><StartTime><Timestamp dt:dt=""int"">0</Timestamp><DateUtc dt:dt=""string"">2014-05-30T22:19:31Z</DateUtc></StartTime><FrequencyChanges><FrequencyChange><Frequency dt:dt=""r8"">2793040000</Frequency><Timestamp dt:dt=""r8"">522067888560433</Timestamp><Current dt:dt=""r8"">0</Current><DateUtc dt:dt=""string"">2014-05-30T22:19:31Z</DateUtc></FrequencyChange></FrequencyChanges></Clock>\n",60.03,1,-1996816544,0,,-999999,8,16187,t,56829,73016,5/30/2014,15:19:31,,1,Session1,SessionsList,,,,,,,,,,1,1,1,1,,,,,,,,1,1,1,NonCued3,MiniBlocks2,,,73026,,3,1,r,-999999,13,132029,r,829,132858,Green,Congruent,r,White,0,,0,16,127032,,0,0,,,,,,,,,,,,,Pictures\white.bmp,4000,4000,Pictures\GreenLeft.bmp,,,,,,,3,1,3,,,,StimulusPr,Pictures\black.bmp,NonCuedStim3,Left
POP_2,27025,1,"<?xml version=""1.0""?>\n<Clock xmlns:dt=""urn:schemas-microsoft-com:datatypes""><Description dt:dt=""string"">E-Prime Primary Realtime Clock</Description><StartTime><Timestamp dt:dt=""int"">0</Timestamp><DateUtc dt:dt=""string"">2014-05-30T22:19:31Z</DateUtc></StartTime><FrequencyChanges><FrequencyChange><Frequency dt:dt=""r8"">2793040000</Frequency><Timestamp dt:dt=""r8"">522067888560433</Timestamp><Current dt:dt=""r8"">0</Current><DateUtc dt:dt=""string"">2014-05-30T22:19:31Z</DateUtc></FrequencyChange></FrequencyChanges></Clock>\n",60.03,1,-1996816544,0,,-999999,8,16187,t,56829,73016,5/30/2014,15:19:31,,1,Session1,SessionsList,,,,,,,,,,1,1,1,1,,,,,,,,1,1,1,NonCued3,MiniBlocks2,,,73026,,4,1,b,-999999,9,145023,b,757,145780,Red,Incongruent,b,White,0,,0,12,138026,,0,0,,,,,,,,,,,,,Pictures\white.bmp,6000,4000,Pictures\RedLeft.bmp,,,,,,,4,1,4,,,,StimulusPr,Pictures\black.bmp,NonCuedStim3,Left
POP_2,27025,1,"<?xml version=""1.0""?>\n<Clock xmlns:dt=""urn:schemas-microsoft-com:datatypes""><Description dt:dt=""string"">E-Prime Primary Realtime Clock</Description><StartTime><Timestamp dt:dt=""int"">0</Timestamp><DateUtc dt:dt=""string"">2014-05-30T22:19:31Z</DateUtc></StartTime><FrequencyChanges><FrequencyChange><Frequency dt:dt=""r8"">2793040000</Frequency><Timestamp dt:dt=""r8"">522067888560433</Timestamp><Current dt:dt=""r8"">0</Current><DateUtc dt:dt=""string"">2014-05-30T22:19:31Z</DateUtc></FrequencyChange></FrequencyChanges></Clock>\n",60.03,1,-1996816544,0,,-999999,8,16187,t,56829,73016,5/30/2014,15:19:31,,1,Session1,SessionsList,,,,,,,,,,1,1,1,1,,,,,,,,1,1,1,NonCued3,MiniBlocks2,,,73026,,5,1,b,-999999,18,155034,b,751,155785,Green,Congruent,b,White,0,,0,13,151020,,0,0,,,,,,,,,,,,,Pictures\white.bmp,3000,2000,Pictures\black.bmp,,,,,,,5,1,5,,,,StimulusPr,Pictures\GreenRight.bmp,NonCuedStim3,Right
POP_2,27025,1,"<?xml version=""1.0""?>\n<Clock xmlns:dt=""urn:schemas-microsoft-com:datatypes""><Description dt:dt=""string"">E-Prime Primary Realtime Clock</Description><StartTime><Timestamp dt:dt=""int"">0</Timestamp><DateUtc dt:dt=""string"">2014-05-30T22:19:31Z</DateUtc></StartTime><FrequencyChanges><FrequencyChange><Frequency dt:dt=""r8"">2793040000</Frequency><Timestamp dt:dt=""r8"">522067888560433</Timestamp><Current dt:dt=""r8"">0</Current><DateUtc dt:dt=""string"">2014-05-30T22:19:31Z</DateUtc></FrequencyChange></FrequencyChanges></Clock>\n",60.03,1,-1996816544,0,,-999999,8,16187,t,56829,73016,5/30/2014,15:19:31,,1,Session1,SessionsList,,,,,,,,,,1,1,1,1,,,,,,,,1,1,1,NonCued3,MiniBlocks2,,,73026,,6,1,r,-999999,18,163030,r,783,163813,Green,Congruent,r,White,0,,0,16,159032,,0,0,,,,,,,,,,,,,Pictures\white.bmp,3000,2000,Pictures\GreenLeft.bmp,,,,,,,6,1,6,,,,StimulusPr,Pictures\black.bmp,NonCuedStim3,Left
POP_2,27025,1,"<?xml version=""1.0""?>\n<Clock xmlns:dt=""urn:schemas-microsoft-com:datatypes""><Description dt:dt=""string"">E-Prime Primary Realtime Clock</Description><StartTime><Timestamp dt:dt=""int"">0</Timestamp><DateUtc dt:dt=""string"">2014-05-30T22:19:31Z</DateUtc></StartTime><FrequencyChanges><FrequencyChange><Frequency dt:dt=""r8"">2793040000</Frequency><Timestamp dt:dt=""r8"">522067888560433</Timestamp><Current dt:dt=""r8"">0</Current><DateUtc dt:dt=""string"">2014-05-30T22:19:31Z</DateUtc></FrequencyChange></FrequencyChanges></Clock>\n",60.03,1,-1996816544,0,,-999999,8,16187,t,56829,73016,5/30/2014,15:19:31,,1,Session1,SessionsList,,,,,,,,,,1,1,1,1,,,,,,,,1,1,1,NonCued3,MiniBlocks2,,,73026,,7,1,b,-999999,9,174025,b,772,174797,Green,Congruent,b,White,0,,0,12,167028,,0,0,,,,,,,,,,,,,Pictures\white.bmp,6000,16000,Pictures\black.bmp,,,,,,,7,1,7,,,,StimulusPr,Pictures\GreenRight.bmp,NonCuedStim3,Right
POP_2,27025,1,"<?xml version=""1.0""?>\n<Clock xmlns:dt=""urn:schemas-microsoft-com:datatypes""><Description dt:dt=""string"">E-Prime Primary Realtime Clock</Description><StartTime><Timestamp dt:dt=""int"">0</Timestamp><DateUtc dt:dt=""string"">2014-05-30T22:19:31Z</DateUtc></StartTime><FrequencyChanges><FrequencyChange><Frequency dt:dt=""r8"">2793040000</Frequency><Timestamp dt:dt=""r8"">522067888560433</Timestamp><Current dt:dt=""r8"">0</Current><DateUtc dt:dt=""string"">2014-05-30T22:19:31Z</DateUtc></FrequencyChange></FrequencyChanges></Clock>\n",60.03,1,-1996816544,0,,-999999,8,16187,t,56829,73016,5/30/2014,15:19:31,,1,Session1,SessionsList,,,,,,,,,,1,1,1,1,,,,,,,,1,1,1,NonCued3,MiniBlocks2,,,73026,,8,1,r,-999999,15,196030,r,810,196840,Red,Incongruent,r,White,0,,0,16,192032,,0,0,,,,,,,,,,,,,Pictures\white.bmp,3000,2000,Pictures\black.bmp,,,,,,,8,1,8,,,,StimulusPr,Pictures\RedRight.bmp,NonCuedStim3,Right
POP_2,27025,1,"<?xml version=""1.0""?>\n<Clock xmlns:dt=""urn:schemas-microsoft-com:datatypes""><Description dt:dt=""string"">E-Prime Primary Realtime Clock</Description><StartTime><Timestamp dt:dt=""int"">0</Timestamp><DateUtc dt:dt=""string"">2014-05-30T22:19:31Z</DateUtc></StartTime><FrequencyChanges><FrequencyChange><Frequency dt:dt=""r8"">2793040000</Frequency><Timestamp dt:dt=""r8"">522067888560433</Timestamp><Current dt:dt=""r8"">0</Current><DateUtc dt:dt=""string"">2014-05-30T22:19:31Z</DateUtc></FrequencyChange></FrequencyChanges></Clock>\n",60.03,1,-1996816544,0,,-999999,8,16187,t,56829,73016,5/30/2014,15:19:31,,1,Session1,SessionsList,,,,,,,,,,1,1,1,1,,,,,,,,1,1,1,NonCued3,MiniBlocks2,,,73026,,9,1,r,-999999,4,210007,r,734,210741,Green,Congruent,r,White,0,,0,12,200028,,0,0,,,,,,,,,,,,,Pictures\white.bmp,9000,10000,Pictures\GreenLeft.bmp,,,,,,,9,1,9,,,,StimulusPr,Pictures\black.bmp,NonCuedStim3,Left
POP_2,27025,1,"<?xml version=""1.0""?>\n<Clock xmlns:dt=""urn:schemas-microsoft-com:datatypes""><Description dt:dt=""string"">E-Prime Primary Realtime Clock</Description><StartTime><Timestamp dt:dt=""int"">0</Timestamp><DateUtc dt:dt=""string"">2014-05-30T22:19:31Z</DateUtc></StartTime><FrequencyChanges><FrequencyChange><Frequency dt:dt=""r8"">2793040000</Frequency><Timestamp dt:dt=""r8"">522067888560433</Timestamp><Current dt:dt=""r8"">0</Current><DateUtc dt:dt=""string"">2014-05-30T22:19:31Z</DateUtc></FrequencyChange></FrequencyChanges></Clock>\n",60.03,1,-1996816544,0,,-999999,8,16187,t,56829,73016,5/30/2014,15:19:31,,1,Session1,SessionsList,,,,,,,,,,1,1,1,1,,,,,,,,1,1,1,NonCued3,MiniBlocks2,,,73026,,10,1,r,-999999,4,229014,r,523,229537,Green,Congruent,r,White,0,,0,14,222017,,0,0,,,,,,,,,,,,,Pictures\white.bmp,6000,4000,Pictures\GreenLeft.bmp,,,,,,,10,1,10,,,,StimulusPr,Pictures\black.bmp,NonCuedStim3,Left
POP_2,27025,1,"<?xml version=""1.0""?>\n<Clock xmlns:dt=""urn:schemas-microsoft-com:datatypes""><Description dt:dt=""string"">E-Prime Primary Realtime Clock</Description><StartTime><Timestamp dt:dt=""int"">0</Timestamp><DateUtc dt:dt=""string"">2014-05-30T22:19:31Z</DateUtc></StartTime><FrequencyChanges><FrequencyChange><Frequency dt:dt=""r8"">2793040000</Frequency><Timestamp dt:dt=""r8"">522067888560433</Timestamp><Current dt:dt=""r8"">0</Current><DateUtc dt:dt=""string"">2014-05-30T22:19:31Z</DateUtc></FrequencyChange></FrequencyChanges></Clock>\n",60.03,1,-1996816544,0,,-999999,8,16187,t,56829,73016,5/30/2014,15:19:31,,1,Session1,SessionsList,,,,,,,,,,1,1,1,2,,,233562,,,,,2,1,2,Cued3,MiniBlocks2,,,,,1,1,b,-999999,6,248021,b,621,248642,White,Congruent,b,Green,0,,0,17,244023,,0,0,,,,,,,1,1,1,,,,Pictures\green.bmp,3000,2000,Pictures\black.bmp,,,,,,,,,,,,,StimulusPr,Pictures\right.bmp,CuedStim3,Right
POP_2,27025,1,"<?xml version=""1.0""?>\n<Clock xmlns:dt=""urn:schemas-microsoft-com:datatypes""><Description dt:dt=""string"">E-Prime Primary Realtime Clock</Description><StartTime><Timestamp dt:dt=""int"">0</Timestamp><DateUtc dt:dt=""string"">2014-05-30T22:19:31Z</DateUtc></StartTime><FrequencyChanges><FrequencyChange><Frequency dt:dt=""r8"">2793040000</Frequency><Timestamp dt:dt=""r8"">522067888560433</Timestamp><Current dt:dt=""r8"">0</Current><DateUtc dt:dt=""string"">2014-05-30T22:19:31Z</DateUtc></FrequencyChange></FrequencyChanges></Clock>\n",60.03,1,-1996816544,0,,-999999,8,16187,t,56829,73016,5/30/2014,15:19:31,,1,Session1,SessionsList,,,,,,,,,,1,1,1,2,,,233562,,,,,2,1,2,Cued3,MiniBlocks2,,,,,2,1,b,-999999,19,256034,b,451,256485,White,Congruent,b,Green,0,,0,7,252019,,0,0,,,,,,,2,1,2,,,,Pictures\green.bmp,3000,10000,Pictures\black.bmp,,,,,,,,,,,,,StimulusPr,Pictures\right.bmp,CuedStim3,Right
POP_2,27025,1,"<?xml version=""1.0""?>\n<Clock xmlns:dt=""urn:schemas-microsoft-com:datatypes""><Description dt:dt=""string"">E-Prime Primary Realtime Clock</Description><StartTime><Timestamp dt:dt=""int"">0</Timestamp><DateUtc dt:dt=""string"">2014-05-30T22:19:31Z</DateUtc></StartTime><FrequencyChanges><FrequencyChange><Frequency dt:dt=""r8"">2793040000</Frequency><Timestamp dt:dt=""r8"">522067888560433</Timestamp><Current dt:dt=""r8"">0</Current><DateUtc dt:dt=""string"">2014-05-30T22:19:31Z</DateUtc></FrequencyChange></FrequencyChanges></Clock>\n",60.03,1,-1996816544,0,,-999999,8,16187,t,56829,73016,5/30/2014,15:19:31,,1,Session1,SessionsList,,,,,,,,,,1,1,1,2,,,233562,,,,,2,1,2,Cued3,MiniBlocks2,,,,,3,1,r,-999999,13,278023,r,416,278439,White,Congruent,r,Green,0,,0,13,268028,,0,0,,,,,,,3,1,3,,,,Pictures\green.bmp,9000,2000,Pictures\left.bmp,,,,,,,,,,,,,StimulusPr,Pictures\black.bmp,CuedStim3,Left
POP_2,27025,1,"<?xml version=""1.0""?>\n<Clock xmlns:dt=""urn:schemas-microsoft-com:datatypes""><Description dt:dt=""string"">E-Prime Primary Realtime Clock</Description><StartTime><Timestamp dt:dt=""int"">0</Timestamp><DateUtc dt:dt=""string"">2014-05-30T22:19:31Z</DateUtc></StartTime><FrequencyChanges><FrequencyChange><Frequency dt:dt=""r8"">2793040000</Frequency><Timestamp dt:dt=""r8"">522067888560433</Timestamp><Current dt:dt=""r8"">0</Current><DateUtc dt:dt=""string"">2014-05-30T22:19:31Z</DateUtc></FrequencyChange></FrequencyChanges></Clock>\n",60.03,1,-1996816544,0,,-999999,8,16187,t,56829,73016,5/30/2014,15:19:31,,1,Session1,SessionsList,,,,,,,,,,1,1,1,2,,,233562,,,,,2,1,2,Cued3,MiniBlocks2,,,,,4,1,r,-999999,3,287018,r,768,287786,White,Congruent,r,Green,0,,0,7,282021,,0,0,,,,,,,4,1,4,,,,Pictures\green.bmp,4000,16000,Pictures\left.bmp,,,,,,,,,,,,,StimulusPr,Pictures\black.bmp,CuedStim3,Left
POP_2,27025,1,"<?xml version=""1.0""?>\n<Clock xmlns:dt=""urn:schemas-microsoft-com:datatypes""><Description dt:dt=""string"">E-Prime Primary Realtime Clock</Description><StartTime><Timestamp dt:dt=""int"">0</Timestamp><DateUtc dt:dt=""string"">2014-05-30T22:19:31Z</DateUtc></StartTime><FrequencyChanges><FrequencyChange><Frequency dt:dt=""r8"">2793040000</Frequency><Timestamp dt:dt=""r8"">522067888560433</Timestamp><Current dt:dt=""r8"">0</Current><DateUtc dt:dt=""string"">2014-05-30T22:19:31Z</DateUtc></FrequencyChange></FrequencyChanges></Clock>\n",60.03,1,-1996816544,0,,-999999,8,16187,t,56829,73016,5/30/2014,15:19:31,,1,Session1,SessionsList,,,,,,,,,,1,1,1,2,,,233562,,,,,2,1,2,Cued3,MiniBlocks2,,,,,5,1,r,-999999,9,309024,r,805,309829,White,Incongruent,r,Red,0,,0,11,305026,,0,0,,,,,,,5,1,5,,,,Pictures\red.bmp,3000,4000,Pictures\black.bmp,,,,,,,,,,,,,StimulusPr,Pictures\right.bmp,CuedStim3,Right
POP_2,27025,1,"<?xml version=""1.0""?>\n<Clock xmlns:dt=""urn:schemas-microsoft-com:datatypes""><Description dt:dt=""string"">E-Prime Primary Realtime Clock</Description><StartTime><Timestamp dt:dt=""int"">0</Timestamp><DateUtc dt:dt=""string"">2014-05-30T22:19:31Z</DateUtc></StartTime><FrequencyChanges><FrequencyChange><Frequency dt:dt=""r8"">2793040000</Frequency><Timestamp dt:dt=""r8"">522067888560433</Timestamp><Current dt:dt=""r8"">0</Current><DateUtc dt:dt=""string"">2014-05-30T22:19:31Z</DateUtc></FrequencyChange></FrequencyChanges></Clock>\n",60.03,1,-1996816544,0,,-999999,8,16187,t,56829,73016,5/30/2014,15:19:31,,1,Session1,SessionsList,,,,,,,,,,1,1,1,2,,,233562,,,,,2,1,2,Cued3,MiniBlocks2,,,,,6,1,b,-999999,3,322018,b,673,322691,White,Congruent,b,Green,0,,0,2,315004,,0,0,,,,,,,6,1,6,,,,Pictures\green.bmp,6000,4000,Pictures\black.bmp,,,,,,,,,,,,,StimulusPr,Pictures\right.bmp,CuedStim3,Right
POP_2,27025,1,"<?xml version=""1.0""?>\n<Clock xmlns:dt=""urn:schemas-microsoft-com:datatypes""><Description dt:dt=""string"">E-Prime Primary Realtime Clock</Description><StartTime><Timestamp dt:dt=""int"">0</Timestamp><DateUtc dt:dt=""string"">2014-05-30T22:19:31Z</DateUtc></StartTime><FrequencyChanges><FrequencyChange><Frequency dt:dt=""r8"">2793040000</Frequency><Timestamp dt:dt=""r8"">522067888560433</Timestamp><Current dt:dt=""r8"">0</Current><DateUtc dt:dt=""string"">2014-05-30T22:19:31Z</DateUtc></FrequencyChange></FrequencyChanges></Clock>\n",60.03,1,-1996816544,0,,-999999,8,16187,t,56829,73016,5/30/2014,15:19:31,,1,Session1,SessionsList,,,,,,,,,,1,1,1,2,,,233562,,,,,2,1,2,Cued3,MiniBlocks2,,,,,7,1,r,-999999,13,333028,r,530,333558,White,Congruent,r,Green,0,,0,16,328031,,0,0,,,,,,,7,1,7,,,,Pictures\green.bmp,4000,16000,Pictures\left.bmp,,,,,,,,,,,,,StimulusPr,Pictures\black.bmp,CuedStim3,Left
POP_2,27025,1,"<?xml version=""1.0""?>\n<Clock xmlns:dt=""urn:schemas-microsoft-com:datatypes""><Description dt:dt=""string"">E-Prime Primary Realtime Clock</Description><StartTime><Timestamp dt:dt=""int"">0</Timestamp><DateUtc dt:dt=""string"">2014-05-30T22:19:31Z</DateUtc></StartTime><FrequencyChanges><FrequencyChange><Frequency dt:dt=""r8"">2793040000</Frequency><Timestamp dt:dt=""r8"">522067888560433</Timestamp><Current dt:dt=""r8"">0</Current><DateUtc dt:dt=""string"">2014-05-30T22:19:31Z</DateUtc></FrequencyChange></FrequencyChanges></Clock>\n",60.03,1,-1996816544,0,,-999999,8,16187,t,56829,73016,5/30/2014,15:19:31,,1,Session1,SessionsList,,,,,,,,,,1,1,1,2,,,233562,,,,,2,1,2,Cued3,MiniBlocks2,,,,,8,1,b,-999999,3,355018,b,736,355754,White,Incongruent,b,Red,0,,0,16,351019,,0,0,,,,,,,8,1,8,,,,Pictures\red.bmp,3000,2000,Pictures\left.bmp,,,,,,,,,,,,,StimulusPr,Pictures\black.bmp,CuedStim3,Left
POP_2,27025,1,"<?xml version=""1.0""?>\n<Clock xmlns:dt=""urn:schemas-microsoft-com:datatypes""><Description dt:dt=""string"">E-Prime Primary Realtime Clock</Description><StartTime><Timestamp dt:dt=""int"">0</Timestamp><DateUtc dt:dt=""string"">2014-05-30T22:19:31Z</DateUtc></StartTime><FrequencyChanges><FrequencyChange><Frequency dt:dt=""r8"">2793040000</Frequency><Timestamp dt:dt=""r8"">522067888560433</Timestamp><Current dt:dt=""r8"">0</Current><DateUtc dt:dt=""string"">2014-05-30T22:19:31Z</DateUtc></FrequencyChange></FrequencyChanges></Clock>\n",60.03,1,-1996816544,0,,-999999,8,16187,t,56829,73016,5/30/2014,15:19:31,,1,Session1,SessionsList,,,,,,,,,,1,1,1,2,,,233562,,,,,2,1,2,Cued3,MiniBlocks2,,,,,9,1,r,-999999,15,363030,r,447,363477,White,Congruent,r,Green,0,,0,17,359032,,0,0,,,,,,,9,1,9,,,,Pictures\green.bmp,3000,2000,Pictures\left.bmp,,,,,,,,,,,,,StimulusPr,Pictures\black.bmp,CuedStim3,Left
POP_2,27025,1,"<?xml version=""1.0""?>\n<Clock xmlns:dt=""urn:schemas-microsoft-com:datatypes""><Description dt:dt=""string"">E-Prime Primary Realtime Clock</Description><StartTime><Timestamp dt:dt=""int"">0</Timestamp><DateUtc dt:dt=""string"">2014-05-30T22:19:31Z</DateUtc></StartTime><FrequencyChanges><FrequencyChange><Frequency dt:dt=""r8"">2793040000</Frequency><Timestamp dt:dt=""r8"">522067888560433</Timestamp><Current dt:dt=""r8"">0</Current><DateUtc dt:dt=""string"">2014-05-30T22:19:31Z</DateUtc></FrequencyChange></FrequencyChanges></Clock>\n",60.03,1,-1996816544,0,,-999999,8,16187,t,56829,73016,5/30/2014,15:19:31,,1,Session1,SessionsList,,,,,,,,,,1,1,1,2,,,233562,,,,,2,1,2,Cued3,MiniBlocks2,,,,,10,1,b,-999999,8,377023,b,588,377611,White,Congruent,b,Green,0,,0,6,367011,,0,0,,,,,,,10,1,10,,,,Pictures\green.bmp,9000,10000,Pictures\black.bmp,,,,,,,,,,,,,StimulusPr,Pictures\right.bmp,CuedStim3,Right
POP_2,27025,1,"<?xml version=""1.0""?>\n<Clock xmlns:dt=""urn:schemas-microsoft-com:datatypes""><Description dt:dt=""string"">E-Prime Primary Realtime Clock</Description><StartTime><Timestamp dt:dt=""int"">0</Timestamp><DateUtc dt:dt=""string"">2014-05-30T22:19:31Z</DateUtc></StartTime><FrequencyChanges><FrequencyChange><Frequency dt:dt=""r8"">2793040000</Frequency><Timestamp dt:dt=""r8"">522067888560433</Timestamp><Current dt:dt=""r8"">0</Current><DateUtc dt:dt=""string"">2014-05-30T22:19:31Z</DateUtc></FrequencyChange></FrequencyChanges></Clock>\n",60.03,1,-1996816544,0,,-999999,8,16187,t,56829,73016,5/30/2014,15:19:31,,1,Session1,SessionsList,,,,,,,,,,1,1,1,3,,,,387634,,,,3,1,3,Cued4,MiniBlocks2,,,,,1,1,b,-999999,10,405025,b,662,405687,White,Congruent,b,Green,0,,0,15,398029,,0,0,,,,,,,,,,1,1,1,Pictures\green.bmp,6000,2000,Pictures\black.bmp,,,,,,,,,,,,,StimulusPr,Pictures\right.bmp,CuedStim4,Right
POP_2,27025,1,"<?xml version=""1.0""?>\n<Clock xmlns:dt=""urn:schemas-microsoft-com:datatypes""><Description dt:dt=""string"">E-Prime Primary Realtime Clock</Description><StartTime><Timestamp dt:dt=""int"">0</Timestamp><DateUtc dt:dt=""string"">2014-05-30T22:19:31Z</DateUtc></StartTime><FrequencyChanges><FrequencyChange><Frequency dt:dt=""r8"">2793040000</Frequency><Timestamp dt:dt=""r8"">522067888560433</Timestamp><Current dt:dt=""r8"">0</Current><DateUtc dt:dt=""string"">2014-05-30T22:19:31Z</DateUtc></FrequencyChange></FrequencyChanges></Clock>\n",60.03,1,-1996816544,0,,-999999,8,16187,t,56829,73016,5/30/2014,15:19:31,,1,Session1,SessionsList,,,,,,,,,,1,1,1,3,,,,387634,,,,3,1,3,Cued4,MiniBlocks2,,,,,2,1,r,-999999,4,419018,r,694,419712,White,Incongruent,r,Red,0,,0,8,409023,,0,0,,,,,,,,,,2,1,2,Pictures\red.bmp,9000,2000,Pictures\black.bmp,,,,,,,,,,,,,StimulusPr,Pictures\right.bmp,CuedStim4,Right
POP_2,27025,1,"<?xml version=""1.0""?>\n<Clock xmlns:dt=""urn:schemas-microsoft-com:datatypes""><Description dt:dt=""string"">E-Prime Primary Realtime Clock</Description><StartTime><Timestamp dt:dt=""int"">0</Timestamp><DateUtc dt:dt=""string"">2014-05-30T22:19:31Z</DateUtc></StartTime><FrequencyChanges><FrequencyChange><Frequency dt:dt=""r8"">2793040000</Frequency><Timestamp dt:dt=""r8"">522067888560433</Timestamp><Current dt:dt=""r8"">0</Current><DateUtc dt:dt=""string"">2014-05-30T22:19:31Z</DateUtc></FrequencyChange></FrequencyChanges></Clock>\n",60.03,1,-1996816544,0,,-999999,8,16187,t,56829,73016,5/30/2014,15:19:31,,1,Session1,SessionsList,,,,,,,,,,1,1,1,3,,,,387634,,,,3,1,3,Cued4,MiniBlocks2,,,,,3,1,b,-999999,16,427031,b,770,427801,White,Congruent,b,Green,0,,0,13,423016,,0,0,,,,,,,,,,3,1,3,Pictures\green.bmp,3000,4000,Pictures\black.bmp,,,,,,,,,,,,,StimulusPr,Pictures\right.bmp,CuedStim4,Right
POP_2,27025,1,"<?xml version=""1.0""?>\n<Clock xmlns:dt=""urn:schemas-microsoft-com:datatypes""><Description dt:dt=""string"">E-Prime Primary Realtime Clock</Description><StartTime><Timestamp dt:dt=""int"">0</Timestamp><DateUtc dt:dt=""string"">2014-05-30T22:19:31Z</DateUtc></StartTime><FrequencyChanges><FrequencyChange><Frequency dt:dt=""r8"">2793040000</Frequency><Timestamp dt:dt=""r8"">522067888560433</Timestamp><Current dt:dt=""r8"">0</Current><DateUtc dt:dt=""string"">2014-05-30T22:19:31Z</DateUtc></FrequencyChange></FrequencyChanges></Clock>\n",60.03,1,-1996816544,0,,-999999,8,16187,t,56829,73016,5/30/2014,15:19:31,,1,Session1,SessionsList,,,,,,,,,,1,1,1,3,,,,387634,,,,3,1,3,Cued4,MiniBlocks2,,,,,4,1,r,-999999,11,437026,r,657,437683,White,Congruent,r,Green,0,,0,14,433028,,0,0,,,,,,,,,,4,1,4,Pictures\green.bmp,3000,4000,Pictures\left.bmp,,,,,,,,,,,,,StimulusPr,Pictures\black.bmp,CuedStim4,Left
POP_2,27025,1,"<?xml version=""1.0""?>\n<Clock xmlns:dt=""urn:schemas-microsoft-com:datatypes""><Description dt:dt=""string"">E-Prime Primary Realtime Clock</Description><StartTime><Timestamp dt:dt=""int"">0</Timestamp><DateUtc dt:dt=""string"">2014-05-30T22:19:31Z</DateUtc></StartTime><FrequencyChanges><FrequencyChange><Frequency dt:dt=""r8"">2793040000</Frequency><Timestamp dt:dt=""r8"">522067888560433</Timestamp><Current dt:dt=""r8"">0</Current><DateUtc dt:dt=""string"">2014-05-30T22:19:31Z</DateUtc></FrequencyChange></FrequencyChanges></Clock>\n",60.03,1,-1996816544,0,,-999999,8,16187,t,56829,73016,5/30/2014,15:19:31,,1,Session1,SessionsList,,,,,,,,,,1,1,1,3,,,,387634,,,,3,1,3,Cued4,MiniBlocks2,,,,,5,1,b,-999999,6,448020,b,488,448508,White,Incongruent,b,Red,0,,0,11,443023,,0,0,,,,,,,,,,5,1,5,Pictures\red.bmp,4000,16000,Pictures\left.bmp,,,,,,,,,,,,,StimulusPr,Pictures\black.bmp,CuedStim4,Left
POP_2,27025,1,"<?xml version=""1.0""?>\n<Clock xmlns:dt=""urn:schemas-microsoft-com:datatypes""><Description dt:dt=""string"">E-Prime Primary Realtime Clock</Description><StartTime><Timestamp dt:dt=""int"">0</Timestamp><DateUtc dt:dt=""string"">2014-05-30T22:19:31Z</DateUtc></StartTime><FrequencyChanges><FrequencyChange><Frequency dt:dt=""r8"">2793040000</Frequency><Timestamp dt:dt=""r8"">522067888560433</Timestamp><Current dt:dt=""r8"">0</Current><DateUtc dt:dt=""string"">2014-05-30T22:19:31Z</DateUtc></FrequencyChange></FrequencyChanges></Clock>\n",60.03,1,-1996816544,0,,-999999,8,16187,t,56829,73016,5/30/2014,15:19:31,,1,Session1,SessionsList,,,,,,,,,,1,1,1,3,,,,387634,,,,3,1,3,Cued4,MiniBlocks2,,,,,6,1,b,-999999,12,470026,b,565,470591,White,Congruent,b,Green,0,,0,16,466028,,0,0,,,,,,,,,,6,1,6,Pictures\green.bmp,3000,2000,Pictures\black.bmp,,,,,,,,,,,,,StimulusPr,Pictures\right.bmp,CuedStim4,Right
POP_2,27025,1,"<?xml version=""1.0""?>\n<Clock xmlns:dt=""urn:schemas-microsoft-com:datatypes""><Description dt:dt=""string"">E-Prime Primary Realtime Clock</Description><StartTime><Timestamp dt:dt=""int"">0</Timestamp><DateUtc dt:dt=""string"">2014-05-30T22:19:31Z</DateUtc></StartTime><FrequencyChanges><FrequencyChange><Frequency dt:dt=""r8"">2793040000</Frequency><Timestamp dt:dt=""r8"">522067888560433</Timestamp><Current dt:dt=""r8"">0</Current><DateUtc dt:dt=""string"">2014-05-30T22:19:31Z</DateUtc></FrequencyChange></FrequencyChanges></Clock>\n",60.03,1,-1996816544,0,,-999999,8,16187,t,56829,73016,5/30/2014,15:19:31,,1,Session1,SessionsList,,,,,,,,,,1,1,1,3,,,,387634,,,,3,1,3,Cued4,MiniBlocks2,,,,,7,1,b,-999999,5,484019,b,679,484698,White,Congruent,b,Green,0,,0,10,474024,,0,0,,,,,,,,,,7,1,7,Pictures\green.bmp,9000,10000,Pictures\black.bmp,,,,,,,,,,,,,StimulusPr,Pictures\right.bmp,CuedStim4,Right
POP_2,27025,1,"<?xml version=""1.0""?>\n<Clock xmlns:dt=""urn:schemas-microsoft-com:datatypes""><Description dt:dt=""string"">E-Prime Primary Realtime Clock</Description><StartTime><Timestamp dt:dt=""int"">0</Timestamp><DateUtc dt:dt=""string"">2014-05-30T22:19:31Z</DateUtc></StartTime><FrequencyChanges><FrequencyChange><Frequency dt:dt=""r8"">2793040000</Frequency><Timestamp dt:dt=""r8"">522067888560433</Timestamp><Current dt:dt=""r8"">0</Current><DateUtc dt:dt=""string"">2014-05-30T22:19:31Z</DateUtc></FrequencyChange></FrequencyChanges></Clock>\n",60.03,1,-1996816544,0,,-999999,8,16187,t,56829,73016,5/30/2014,15:19:31,,1,Session1,SessionsList,,,,,,,,,,1,1,1,3,,,,387634,,,,3,1,3,Cued4,MiniBlocks2,,,,,8,1,b,-999999,12,503026,b,597,503623,White,Incongruent,b,Red,0,,0,16,496030,,0,0,,,,,,,,,,8,1,8,Pictures\red.bmp,6000,10000,Pictures\left.bmp,,,,,,,,,,,,,StimulusPr,Pictures\black.bmp,CuedStim4,Left
POP_2,27025,1,"<?xml version=""1.0""?>\n<Clock xmlns:dt=""urn:schemas-microsoft-com:datatypes""><Description dt:dt=""string"">E-Prime Primary Realtime Clock</Description><StartTime><Timestamp dt:dt=""int"">0</Timestamp><DateUtc dt:dt=""string"">2014-05-30T22:19:31Z</DateUtc></StartTime><FrequencyChanges><FrequencyChange><Frequency dt:dt=""r8"">2793040000</Frequency><Timestamp dt:dt=""r8"">522067888560433</Timestamp><Current dt:dt=""r8"">0</Current><DateUtc dt:dt=""string"">2014-05-30T22:19:31Z</DateUtc></FrequencyChange></FrequencyChanges></Clock>\n",60.03,1,-1996816544,0,,-999999,8,16187,t,56829,73016,5/30/2014,15:19:31,,1,Session1,SessionsList,,,,,,,,,,1,1,1,3,,,,387634,,,,3,1,3,Cued4,MiniBlocks2,,,,,9,1,r,-999999,3,522017,r,803,522820,White,Congruent,r,Green,0,,0,17,515020,,0,0,,,,,,,,,,9,1,9,Pictures\green.bmp,6000,16000,Pictures\left.bmp,,,,,,,,,,,,,StimulusPr,Pictures\black.bmp,CuedStim4,Left
POP_2,27025,1,"<?xml version=""1.0""?>\n<Clock xmlns:dt=""urn:schemas-microsoft-com:datatypes""><Description dt:dt=""string"">E-Prime Primary Realtime Clock</Description><StartTime><Timestamp dt:dt=""int"">0</Timestamp><DateUtc dt:dt=""string"">2014-05-30T22:19:31Z</DateUtc></StartTime><FrequencyChanges><FrequencyChange><Frequency dt:dt=""r8"">2793040000</Frequency><Timestamp dt:dt=""r8"">522067888560433</Timestamp><Current dt:dt=""r8"">0</Current><DateUtc dt:dt=""string"">2014-05-30T22:19:31Z</DateUtc></FrequencyChange></FrequencyChanges></Clock>\n",60.03,1,-1996816544,0,,-999999,8,16187,t,56829,73016,5/30/2014,15:19:31,,1,Session1,SessionsList,,,,,,,,,,1,1,1,3,,,,387634,,,,3,1,3,Cued4,MiniBlocks2,,,,,10,0,r,0,14,545022,,0,0,White,Congruent,r,Green,0,,0,10,540024,,0,0,,,,,,,,,,10,1,10,Pictures\green.bmp,4000,2000,Pictures\left.bmp,,,,,,,,,,,,,StimulusPr,Pictures\black.bmp,CuedStim4,Left
POP_2,27025,1,"<?xml version=""1.0""?>\n<Clock xmlns:dt=""urn:schemas-microsoft-com:datatypes""><Description dt:dt=""string"">E-Prime Primary Realtime Clock</Description><StartTime><Timestamp dt:dt=""int"">0</Timestamp><DateUtc dt:dt=""string"">2014-05-30T22:19:31Z</DateUtc></StartTime><FrequencyChanges><FrequencyChange><Frequency dt:dt=""r8"">2793040000</Frequency><Timestamp dt:dt=""r8"">522067888560433</Timestamp><Current dt:dt=""r8"">0</Current><DateUtc dt:dt=""string"">2014-05-30T22:19:31Z</DateUtc></FrequencyChange></FrequencyChanges></Clock>\n",60.03,1,-1996816544,0,,-999999,8,16187,t,56829,73016,5/30/2014,15:19:31,,1,Session1,SessionsList,,,,,,,,,,1,1,1,4,,,,,,,,4,1,4,NonCued4,MiniBlocks2,,,,550052,1,1,r,-999999,15,564029,r,834,564863,Green,Congruent,r,White,0,,0,17,560031,,0,0,,,,,,,,,,,,,Pictures\white.bmp,3000,2000,Pictures\GreenLeft.bmp,,,,,,,,,,1,1,1,StimulusPr,Pictures\black.bmp,NonCuedStim4,Left
POP_2,27025,1,"<?xml version=""1.0""?>\n<Clock xmlns:dt=""urn:schemas-microsoft-com:datatypes""><Description dt:dt=""string"">E-Prime Primary Realtime Clock</Description><StartTime><Timestamp dt:dt=""int"">0</Timestamp><DateUtc dt:dt=""string"">2014-05-30T22:19:31Z</DateUtc></StartTime><FrequencyChanges><FrequencyChange><Frequency dt:dt=""r8"">2793040000</Frequency><Timestamp dt:dt=""r8"">522067888560433</Timestamp><Current dt:dt=""r8"">0</Current><DateUtc dt:dt=""string"">2014-05-30T22:19:31Z</DateUtc></FrequencyChange></FrequencyChanges></Clock>\n",60.03,1,-1996816544,0,,-999999,8,16187,t,56829,73016,5/30/2014,15:19:31,,1,Session1,SessionsList,,,,,,,,,,1,1,1,4,,,,,,,,4,1,4,NonCued4,MiniBlocks2,,,,550052,2,1,r,-999999,10,573024,r,547,573571,Green,Congruent,r,White,0,,0,13,568027,,0,0,,,,,,,,,,,,,Pictures\white.bmp,4000,2000,Pictures\GreenLeft.bmp,,,,,,,,,,2,1,2,StimulusPr,Pictures\black.bmp,NonCuedStim4,Left
POP_2,27025,1,"<?xml version=""1.0""?>\n<Clock xmlns:dt=""urn:schemas-microsoft-com:datatypes""><Description dt:dt=""string"">E-Prime Primary Realtime Clock</Description><StartTime><Timestamp dt:dt=""int"">0</Timestamp><DateUtc dt:dt=""string"">2014-05-30T22:19:31Z</DateUtc></StartTime><FrequencyChanges><FrequencyChange><Frequency dt:dt=""r8"">2793040000</Frequency><Timestamp dt:dt=""r8"">522067888560433</Timestamp><Current dt:dt=""r8"">0</Current><DateUtc dt:dt=""string"">2014-05-30T22:19:31Z</DateUtc></FrequencyChange></FrequencyChanges></Clock>\n",60.03,1,-1996816544,0,,-999999,8,16187,t,56829,73016,5/30/2014,15:19:31,,1,Session1,SessionsList,,,,,,,,,,1,1,1,4,,,,,,,,4,1,4,NonCued4,MiniBlocks2,,,,550052,3,1,r,-999999,6,582020,r,873,582893,Red,Incongruent,r,White,0,,0,16,577022,,0,0,,,,,,,,,,,,,Pictures\white.bmp,4000,2000,Pictures\black.bmp,,,,,,,,,,3,1,3,StimulusPr,Pictures\RedRight.bmp,NonCuedStim4,Right
POP_2,27025,1,"<?xml version=""1.0""?>\n<Clock xmlns:dt=""urn:schemas-microsoft-com:datatypes""><Description dt:dt=""string"">E-Prime Primary Realtime Clock</Description><StartTime><Timestamp dt:dt=""int"">0</Timestamp><DateUtc dt:dt=""string"">2014-05-30T22:19:31Z</DateUtc></StartTime><FrequencyChanges><FrequencyChange><Frequency dt:dt=""r8"">2793040000</Frequency><Timestamp dt:dt=""r8"">522067888560433</Timestamp><Current dt:dt=""r8"">0</Current><DateUtc dt:dt=""string"">2014-05-30T22:19:31Z</DateUtc></FrequencyChange></FrequencyChanges></Clock>\n",60.03,1,-1996816544,0,,-999999,8,16187,t,56829,73016,5/30/2014,15:19:31,,1,Session1,SessionsList,,,,,,,,,,1,1,1,4,,,,,,,,4,1,4,NonCued4,MiniBlocks2,,,,550052,4,1,b,-999999,18,590032,b,909,590941,Green,Congruent,b,White,0,,0,13,586018,,0,0,,,,,,,,,,,,,Pictures\white.bmp,3000,16000,Pictures\black.bmp,,,,,,,,,,4,1,4,StimulusPr,Pictures\GreenRight.bmp,NonCuedStim4,Right
POP_2,27025,1,"<?xml version=""1.0""?>\n<Clock xmlns:dt=""urn:schemas-microsoft-com:datatypes""><Description dt:dt=""string"">E-Prime Primary Realtime Clock</Description><StartTime><Timestamp dt:dt=""int"">0</Timestamp><DateUtc dt:dt=""string"">2014-05-30T22:19:31Z</DateUtc></StartTime><FrequencyChanges><FrequencyChange><Frequency dt:dt=""r8"">2793040000</Frequency><Timestamp dt:dt=""r8"">522067888560433</Timestamp><Current dt:dt=""r8"">0</Current><DateUtc dt:dt=""string"">2014-05-30T22:19:31Z</DateUtc></FrequencyChange></FrequencyChanges></Clock>\n",60.03,1,-1996816544,0,,-999999,8,16187,t,56829,73016,5/30/2014,15:19:31,,1,Session1,SessionsList,,,,,,,,,,1,1,1,4,,,,,,,,4,1,4,NonCued4,MiniBlocks2,,,,550052,5,1,r,-999999,13,618018,r,689,618707,Green,Congruent,r,White,0,,0,17,608023,,0,0,,,,,,,,,,,,,Pictures\white.bmp,9000,10000,Pictures\GreenLeft.bmp,,,,,,,,,,5,1,5,StimulusPr,Pictures\black.bmp,NonCuedStim4,Left
POP_2,27025,1,"<?xml version=""1.0""?>\n<Clock xmlns:dt=""urn:schemas-microsoft-com:datatypes""><Description dt:dt=""string"">E-Prime Primary Realtime Clock</Description><StartTime><Timestamp dt:dt=""int"">0</Timestamp><DateUtc dt:dt=""string"">2014-05-30T22:19:31Z</DateUtc></StartTime><FrequencyChanges><FrequencyChange><Frequency dt:dt=""r8"">2793040000</Frequency><Timestamp dt:dt=""r8"">522067888560433</Timestamp><Current dt:dt=""r8"">0</Current><DateUtc dt:dt=""string"">2014-05-30T22:19:31Z</DateUtc></FrequencyChange></FrequencyChanges></Clock>\n",60.03,1,-1996816544,0,,-999999,8,16187,t,56829,73016,5/30/2014,15:19:31,,1,Session1,SessionsList,,,,,,,,,,1,1,1,4,,,,,,,,4,1,4,NonCued4,MiniBlocks2,,,,550052,6,1,b,-999999,14,634027,b,956,634983,Green,Congruent,b,White,0,,0,16,630029,,0,0,,,,,,,,,,,,,Pictures\white.bmp,3000,16000,Pictures\black.bmp,,,,,,,,,,6,1,6,StimulusPr,Pictures\GreenRight.bmp,NonCuedStim4,Right
POP_2,27025,1,"<?xml version=""1.0""?>\n<Clock xmlns:dt=""urn:schemas-microsoft-com:datatypes""><Description dt:dt=""string"">E-Prime Primary Realtime Clock</Description><StartTime><Timestamp dt:dt=""int"">0</Timestamp><DateUtc dt:dt=""string"">2014-05-30T22:19:31Z</DateUtc></StartTime><FrequencyChanges><FrequencyChange><Frequency dt:dt=""r8"">2793040000</Frequency><Timestamp dt:dt=""r8"">522067888560433</Timestamp><Current dt:dt=""r8"">0</Current><DateUtc dt:dt=""string"">2014-05-30T22:19:31Z</DateUtc></FrequencyChange></FrequencyChanges></Clock>\n",60.03,1,-1996816544,0,,-999999,8,16187,t,56829,73016,5/30/2014,15:19:31,,1,Session1,SessionsList,,,,,,,,,,1,1,1,4,,,,,,,,4,1,4,NonCued4,MiniBlocks2,,,,550052,7,1,b,-999999,19,657032,b,779,657811,Red,Incongruent,b,White,0,,0,4,653017,,0,0,,,,,,,,,,,,,Pictures\white.bmp,3000,16000,Pictures\RedLeft.bmp,,,,,,,,,,7,1,7,StimulusPr,Pictures\black.bmp,NonCuedStim4,Left
POP_2,27025,1,"<?xml version=""1.0""?>\n<Clock xmlns:dt=""urn:schemas-microsoft-com:datatypes""><Description dt:dt=""string"">E-Prime Primary Realtime Clock</Description><StartTime><Timestamp dt:dt=""int"">0</Timestamp><DateUtc dt:dt=""string"">2014-05-30T22:19:31Z</DateUtc></StartTime><FrequencyChanges><FrequencyChange><Frequency dt:dt=""r8"">2793040000</Frequency><Timestamp dt:dt=""r8"">522067888560433</Timestamp><Current dt:dt=""r8"">0</Current><DateUtc dt:dt=""string"">2014-05-30T22:19:31Z</DateUtc></FrequencyChange></FrequencyChanges></Clock>\n",60.03,1,-1996816544,0,,-999999,8,16187,t,56829,73016,5/30/2014,15:19:31,,1,Session1,SessionsList,,,,,,,,,,1,1,1,4,,,,,,,,4,1,4,NonCued4,MiniBlocks2,,,,550052,8,1,r,-999999,16,679021,r,652,679673,Green,Congruent,r,White,0,,0,10,675023,,0,0,,,,,,,,,,,,,Pictures\white.bmp,3000,2000,Pictures\GreenLeft.bmp,,,,,,,,,,8,1,8,StimulusPr,Pictures\black.bmp,NonCuedStim4,Left
POP_2,27025,1,"<?xml version=""1.0""?>\n<Clock xmlns:dt=""urn:schemas-microsoft-com:datatypes""><Description dt:dt=""string"">E-Prime Primary Realtime Clock</Description><StartTime><Timestamp dt:dt=""int"">0</Timestamp><DateUtc dt:dt=""string"">2014-05-30T22:19:31Z</DateUtc></StartTime><FrequencyChanges><FrequencyChange><Frequency dt:dt=""r8"">2793040000</Frequency><Timestamp dt:dt=""r8"">522067888560433</Timestamp><Current dt:dt=""r8"">0</Current><DateUtc dt:dt=""string"">2014-05-30T22:19:31Z</DateUtc></FrequencyChange></FrequencyChanges></Clock>\n",60.03,1,-1996816544,0,,-999999,8,16187,t,56829,73016,5/30/2014,15:19:31,,1,Session1,SessionsList,,,,,,,,,,1,1,1,4,,,,,,,,4,1,4,NonCued4,MiniBlocks2,,,,550052,9,1,b,-999999,19,690032,b,955,690987,Green,Congruent,b,White,0,,0,6,683019,,0,0,,,,,,,,,,,,,Pictures\white.bmp,6000,2000,Pictures\black.bmp,,,,,,,,,,9,1,9,StimulusPr,Pictures\GreenRight.bmp,NonCuedStim4,Right
POP_2,27025,1,"<?xml version=""1.0""?>\n<Clock xmlns:dt=""urn:schemas-microsoft-com:datatypes""><Description dt:dt=""string"">E-Prime Primary Realtime Clock</Description><StartTime><Timestamp dt:dt=""int"">0</Timestamp><DateUtc dt:dt=""string"">2014-05-30T22:19:31Z</DateUtc></StartTime><FrequencyChanges><FrequencyChange><Frequency dt:dt=""r8"">2793040000</Frequency><Timestamp dt:dt=""r8"">522067888560433</Timestamp><Current dt:dt=""r8"">0</Current><DateUtc dt:dt=""string"">2014-05-30T22:19:31Z</DateUtc></FrequencyChange></FrequencyChanges></Clock>\n",60.03,1,-1996816544,0,,-999999,8,16187,t,56829,73016,5/30/2014,15:19:31,,1,Session1,SessionsList,,,,,,,,,,1,1,1,4,,,,,,,,4,1,4,NonCued4,MiniBlocks2,,,,550052,10,1,b,-999999,14,700027,b,645,700672,Green,Congruent,b,White,0,,0,17,695030,,0,0,,,,,,,,,,,,,Pictures\white.bmp,4000,4000,Pictures\black.bmp,,,,,,,,,,10,1,10,StimulusPr,Pictures\GreenRight.bmp,NonCuedStim4,Right
POP_2,27025,1,"<?xml version=""1.0""?>\n<Clock xmlns:dt=""urn:schemas-microsoft-com:datatypes""><Description dt:dt=""string"">E-Prime Primary Realtime Clock</Description><StartTime><Timestamp dt:dt=""int"">0</Timestamp><DateUtc dt:dt=""string"">2014-05-30T22:19:31Z</DateUtc></StartTime><FrequencyChanges><FrequencyChange><Frequency dt:dt=""r8"">2793040000</Frequency><Timestamp dt:dt=""r8"">522067888560433</Timestamp><Current dt:dt=""r8"">0</Current><DateUtc dt:dt=""string"">2014-05-30T22:19:31Z</DateUtc></FrequencyChange></FrequencyChanges></Clock>\n",60.03,1,-1996816544,0,,-999999,8,16187,t,56829,73016,5/30/2014,15:19:31,,2,Session2,SessionsList,0,,-999999,10,708823,t,78315,787138,704691,2,1,2,1,787150,,,,1,1,1,,,,Cued1,MiniBlocks1,,,,,1,1,r,-999999,5,801143,r,671,801814,White,Congruent,r,Green,0,,0,7,796145,,0,0,1,1,1,,,,,,,,,,Pictures\green.bmp,4000,4000,Pictures\left.bmp,,,,,,,,,,,,,StimulusPr,Pictures\black.bmp,CuedStim1,Left
POP_2,27025,1,"<?xml version=""1.0""?>\n<Clock xmlns:dt=""urn:schemas-microsoft-com:datatypes""><Description dt:dt=""string"">E-Prime Primary Realtime Clock</Description><StartTime><Timestamp dt:dt=""int"">0</Timestamp><DateUtc dt:dt=""string"">2014-05-30T22:19:31Z</DateUtc></StartTime><FrequencyChanges><FrequencyChange><Frequency dt:dt=""r8"">2793040000</Frequency><Timestamp dt:dt=""r8"">522067888560433</Timestamp><Current dt:dt=""r8"">0</Current><DateUtc dt:dt=""string"">2014-05-30T22:19:31Z</DateUtc></FrequencyChange></FrequencyChanges></Clock>\n",60.03,1,-1996816544,0,,-999999,8,16187,t,56829,73016,5/30/2014,15:19:31,,2,Session2,SessionsList,0,,-999999,10,708823,t,78315,787138,704691,2,1,2,1,787150,,,,1,1,1,,,,Cued1,MiniBlocks1,,,,,2,1,b,-999999,18,814153,b,705,814858,White,Congruent,b,Green,0,,0,2,807140,,0,0,2,1,2,,,,,,,,,,Pictures\green.bmp,6000,2000,Pictures\black.bmp,,,,,,,,,,,,,StimulusPr,Pictures\right.bmp,CuedStim1,Right
POP_2,27025,1,"<?xml version=""1.0""?>\n<Clock xmlns:dt=""urn:schemas-microsoft-com:datatypes""><Description dt:dt=""string"">E-Prime Primary Realtime Clock</Description><StartTime><Timestamp dt:dt=""int"">0</Timestamp><DateUtc dt:dt=""string"">2014-05-30T22:19:31Z</DateUtc></StartTime><FrequencyChanges><FrequencyChange><Frequency dt:dt=""r8"">2793040000</Frequency><Timestamp dt:dt=""r8"">522067888560433</Timestamp><Current dt:dt=""r8"">0</Current><DateUtc dt:dt=""string"">2014-05-30T22:19:31Z</DateUtc></FrequencyChange></FrequencyChanges></Clock>\n",60.03,1,-1996816544,0,,-999999,8,16187,t,56829,73016,5/30/2014,15:19:31,,2,Session2,SessionsList,0,,-999999,10,708823,t,78315,787138,704691,2,1,2,1,787150,,,,1,1,1,,,,Cued1,MiniBlocks1,,,,,3,1,b,-999999,11,822149,b,617,822766,White,Congruent,b,Green,0,,0,7,818134,,0,0,3,1,3,,,,,,,,,,Pictures\green.bmp,3000,2000,Pictures\black.bmp,,,,,,,,,,,,,StimulusPr,Pictures\right.bmp,CuedStim1,Right
POP_2,27025,1,"<?xml version=""1.0""?>\n<Clock xmlns:dt=""urn:schemas-microsoft-com:datatypes""><Description dt:dt=""string"">E-Prime Primary Realtime Clock</Description><StartTime><Timestamp dt:dt=""int"">0</Timestamp><DateUtc dt:dt=""string"">2014-05-30T22:19:31Z</DateUtc></StartTime><FrequencyChanges><FrequencyChange><Frequency dt:dt=""r8"">2793040000</Frequency><Timestamp dt:dt=""r8"">522067888560433</Timestamp><Current dt:dt=""r8"">0</Current><DateUtc dt:dt=""string"">2014-05-30T22:19:31Z</DateUtc></FrequencyChange></FrequencyChanges></Clock>\n",60.03,1,-1996816544,0,,-999999,8,16187,t,56829,73016,5/30/2014,15:19:31,,2,Session2,SessionsList,0,,-999999,10,708823,t,78315,787138,704691,2,1,2,1,787150,,,,1,1,1,,,,Cued1,MiniBlocks1,,,,,4,1,b,-999999,7,830145,b,589,830734,White,Incongruent,b,Red,0,,0,9,826147,,0,0,4,1,4,,,,,,,,,,Pictures\red.bmp,3000,16000,Pictures\left.bmp,,,,,,,,,,,,,StimulusPr,Pictures\black.bmp,CuedStim1,Left
POP_2,27025,1,"<?xml version=""1.0""?>\n<Clock xmlns:dt=""urn:schemas-microsoft-com:datatypes""><Description dt:dt=""string"">E-Prime Primary Realtime Clock</Description><StartTime><Timestamp dt:dt=""int"">0</Timestamp><DateUtc dt:dt=""string"">2014-05-30T22:19:31Z</DateUtc></StartTime><FrequencyChanges><FrequencyChange><Frequency dt:dt=""r8"">2793040000</Frequency><Timestamp dt:dt=""r8"">522067888560433</Timestamp><Current dt:dt=""r8"">0</Current><DateUtc dt:dt=""string"">2014-05-30T22:19:31Z</DateUtc></FrequencyChange></FrequencyChanges></Clock>\n",60.03,1,-1996816544,0,,-999999,8,16187,t,56829,73016,5/30/2014,15:19:31,,2,Session2,SessionsList,0,,-999999,10,708823,t,78315,787138,704691,2,1,2,1,787150,,,,1,1,1,,,,Cued1,MiniBlocks1,,,,,5,1,r,-999999,13,852151,r,881,853032,White,Congruent,r,Green,0,,0,14,848136,,0,0,5,1,5,,,,,,,,,,Pictures\green.bmp,3000,16000,Pictures\left.bmp,,,,,,,,,,,,,StimulusPr,Pictures\black.bmp,CuedStim1,Left
POP_2,27025,1,"<?xml version=""1.0""?>\n<Clock xmlns:dt=""urn:schemas-microsoft-com:datatypes""><Description dt:dt=""string"">E-Prime Primary Realtime Clock</Description><StartTime><Timestamp dt:dt=""int"">0</Timestamp><DateUtc dt:dt=""string"">2014-05-30T22:19:31Z</DateUtc></StartTime><FrequencyChanges><FrequencyChange><Frequency dt:dt=""r8"">2793040000</Frequency><Timestamp dt:dt=""r8"">522067888560433</Timestamp><Current dt:dt=""r8"">0</Current><DateUtc dt:dt=""string"">2014-05-30T22:19:31Z</DateUtc></FrequencyChange></FrequencyChanges></Clock>\n",60.03,1,-1996816544,0,,-999999,8,16187,t,56829,73016,5/30/2014,15:19:31,,2,Session2,SessionsList,0,,-999999,10,708823,t,78315,787138,704691,2,1,2,1,787150,,,,1,1,1,,,,Cued1,MiniBlocks1,,,,,6,1,r,-999999,16,880153,r,736,880889,White,Congruent,r,Green,0,,0,5,870142,,0,0,6,1,6,,,,,,,,,,Pictures\green.bmp,9000,10000,Pictures\left.bmp,,,,,,,,,,,,,StimulusPr,Pictures\black.bmp,CuedStim1,Left
POP_2,27025,1,"<?xml version=""1.0""?>\n<Clock xmlns:dt=""urn:schemas-microsoft-com:datatypes""><Description dt:dt=""string"">E-Prime Primary Realtime Clock</Description><StartTime><Timestamp dt:dt=""int"">0</Timestamp><DateUtc dt:dt=""string"">2014-05-30T22:19:31Z</DateUtc></StartTime><FrequencyChanges><FrequencyChange><Frequency dt:dt=""r8"">2793040000</Frequency><Timestamp dt:dt=""r8"">522067888560433</Timestamp><Current dt:dt=""r8"">0</Current><DateUtc dt:dt=""string"">2014-05-30T22:19:31Z</DateUtc></FrequencyChange></FrequencyChanges></Clock>\n",60.03,1,-1996816544,0,,-999999,8,16187,t,56829,73016,5/30/2014,15:19:31,,2,Session2,SessionsList,0,,-999999,10,708823,t,78315,787138,704691,2,1,2,1,787150,,,,1,1,1,,,,Cued1,MiniBlocks1,,,,,7,1,b,-999999,7,896145,b,970,897115,White,Congruent,b,Green,0,,0,10,892147,,0,0,7,1,7,,,,,,,,,,Pictures\green.bmp,3000,16000,Pictures\black.bmp,,,,,,,,,,,,,StimulusPr,Pictures\right.bmp,CuedStim1,Right
POP_2,27025,1,"<?xml version=""1.0""?>\n<Clock xmlns:dt=""urn:schemas-microsoft-com:datatypes""><Description dt:dt=""string"">E-Prime Primary Realtime Clock</Description><StartTime><Timestamp dt:dt=""int"">0</Timestamp><DateUtc dt:dt=""string"">2014-05-30T22:19:31Z</DateUtc></StartTime><FrequencyChanges><FrequencyChange><Frequency dt:dt=""r8"">2793040000</Frequency><Timestamp dt:dt=""r8"">522067888560433</Timestamp><Current dt:dt=""r8"">0</Current><DateUtc dt:dt=""string"">2014-05-30T22:19:31Z</DateUtc></FrequencyChange></FrequencyChanges></Clock>\n",60.03,1,-1996816544,0,,-999999,8,16187,t,56829,73016,5/30/2014,15:19:31,,2,Session2,SessionsList,0,,-999999,10,708823,t,78315,787138,704691,2,1,2,1,787150,,,,1,1,1,,,,Cued1,MiniBlocks1,,,,,8,1,r,-999999,13,920150,r,580,920730,White,Incongruent,r,Red,0,,0,15,915152,,0,0,8,1,8,,,,,,,,,,Pictures\red.bmp,4000,2000,Pictures\black.bmp,,,,,,,,,,,,,StimulusPr,Pictures\right.bmp,CuedStim1,Right
POP_2,27025,1,"<?xml version=""1.0""?>\n<Clock xmlns:dt=""urn:schemas-microsoft-com:datatypes""><Description dt:dt=""string"">E-Prime Primary Realtime Clock</Description><StartTime><Timestamp dt:dt=""int"">0</Timestamp><DateUtc dt:dt=""string"">2014-05-30T22:19:31Z</DateUtc></StartTime><FrequencyChanges><FrequencyChange><Frequency dt:dt=""r8"">2793040000</Frequency><Timestamp dt:dt=""r8"">522067888560433</Timestamp><Current dt:dt=""r8"">0</Current><DateUtc dt:dt=""string"">2014-05-30T22:19:31Z</DateUtc></FrequencyChange></FrequencyChanges></Clock>\n",60.03,1,-1996816544,0,,-999999,8,16187,t,56829,73016,5/30/2014,15:19:31,,2,Session2,SessionsList,0,,-999999,10,708823,t,78315,787138,704691,2,1,2,1,787150,,,,1,1,1,,,,Cued1,MiniBlocks1,,,,,9,1,b,-999999,8,929145,b,1203,930348,White,Congruent,b,Green,0,,0,11,924148,,0,0,9,1,9,,,,,,,,,,Pictures\green.bmp,4000,2000,Pictures\black.bmp,,,,,,,,,,,,,StimulusPr,Pictures\right.bmp,CuedStim1,Right
POP_2,27025,1,"<?xml version=""1.0""?>\n<Clock xmlns:dt=""urn:schemas-microsoft-com:datatypes""><Description dt:dt=""string"">E-Prime Primary Realtime Clock</Description><StartTime><Timestamp dt:dt=""int"">0</Timestamp><DateUtc dt:dt=""string"">2014-05-30T22:19:31Z</DateUtc></StartTime><FrequencyChanges><FrequencyChange><Frequency dt:dt=""r8"">2793040000</Frequency><Timestamp dt:dt=""r8"">522067888560433</Timestamp><Current dt:dt=""r8"">0</Current><DateUtc dt:dt=""string"">2014-05-30T22:19:31Z</DateUtc></FrequencyChange></FrequencyChanges></Clock>\n",60.03,1,-1996816544,0,,-999999,8,16187,t,56829,73016,5/30/2014,15:19:31,,2,Session2,SessionsList,0,,-999999,10,708823,t,78315,787138,704691,2,1,2,1,787150,,,,1,1,1,,,,Cued1,MiniBlocks1,,,,,10,1,r,-999999,12,938141,r,691,938832,White,Congruent,r,Green,0,,0,6,934143,,0,0,10,1,10,,,,,,,,,,Pictures\green.bmp,3000,2000,Pictures\left.bmp,,,,,,,,,,,,,StimulusPr,Pictures\black.bmp,CuedStim1,Left
POP_2,27025,1,"<?xml version=""1.0""?>\n<Clock xmlns:dt=""urn:schemas-microsoft-com:datatypes""><Description dt:dt=""string"">E-Prime Primary Realtime Clock</Description><StartTime><Timestamp dt:dt=""int"">0</Timestamp><DateUtc dt:dt=""string"">2014-05-30T22:19:31Z</DateUtc></StartTime><FrequencyChanges><FrequencyChange><Frequency dt:dt=""r8"">2793040000</Frequency><Timestamp dt:dt=""r8"">522067888560433</Timestamp><Current dt:dt=""r8"">0</Current><DateUtc dt:dt=""string"">2014-05-30T22:19:31Z</DateUtc></FrequencyChange></FrequencyChanges></Clock>\n",60.03,1,-1996816544,0,,-999999,8,16187,t,56829,73016,5/30/2014,15:19:31,,2,Session2,SessionsList,0,,-999999,10,708823,t,78315,787138,704691,2,1,2,2,,,,,2,1,2,,,,NonCued1,MiniBlocks1,940856,,,,1,1,r,-999999,11,956148,r,537,956685,Green,Congruent,r,White,0,,0,13,951134,,0,0,,,,,,,,,,,,,Pictures\white.bmp,4000,2000,Pictures\GreenLeft.bmp,1,1,1,,,,,,,,,,StimulusPr,Pictures\black.bmp,NonCuedStim1,Left
POP_2,27025,1,"<?xml version=""1.0""?>\n<Clock xmlns:dt=""urn:schemas-microsoft-com:datatypes""><Description dt:dt=""string"">E-Prime Primary Realtime Clock</Description><StartTime><Timestamp dt:dt=""int"">0</Timestamp><DateUtc dt:dt=""string"">2014-05-30T22:19:31Z</DateUtc></StartTime><FrequencyChanges><FrequencyChange><Frequency dt:dt=""r8"">2793040000</Frequency><Timestamp dt:dt=""r8"">522067888560433</Timestamp><Current dt:dt=""r8"">0</Current><DateUtc dt:dt=""string"">2014-05-30T22:19:31Z</DateUtc></FrequencyChange></FrequencyChanges></Clock>\n",60.03,1,-1996816544,0,,-999999,8,16187,t,56829,73016,5/30/2014,15:19:31,,2,Session2,SessionsList,0,,-999999,10,708823,t,78315,787138,704691,2,1,2,2,,,,,2,1,2,,,,NonCued1,MiniBlocks1,940856,,,,2,1,b,-999999,6,967143,b,723,967866,Green,Congruent,b,White,0,,0,9,960146,,0,0,,,,,,,,,,,,,Pictures\white.bmp,6000,16000,Pictures\black.bmp,2,1,2,,,,,,,,,,StimulusPr,Pictures\GreenRight.bmp,NonCuedStim1,Right
POP_2,27025,1,"<?xml version=""1.0""?>\n<Clock xmlns:dt=""urn:schemas-microsoft-com:datatypes""><Description dt:dt=""string"">E-Prime Primary Realtime Clock</Description><StartTime><Timestamp dt:dt=""int"">0</Timestamp><DateUtc dt:dt=""string"">2014-05-30T22:19:31Z</DateUtc></StartTime><FrequencyChanges><FrequencyChange><Frequency dt:dt=""r8"">2793040000</Frequency><Timestamp dt:dt=""r8"">522067888560433</Timestamp><Current dt:dt=""r8"">0</Current><DateUtc dt:dt=""string"">2014-05-30T22:19:31Z</DateUtc></FrequencyChange></FrequencyChanges></Clock>\n",60.03,1,-1996816544,0,,-999999,8,16187,t,56829,73016,5/30/2014,15:19:31,,2,Session2,SessionsList,0,,-999999,10,708823,t,78315,787138,704691,2,1,2,2,,,,,2,1,2,,,,NonCued1,MiniBlocks1,940856,,,,3,1,r,-999999,10,992147,r,752,992899,Red,Incongruent,r,White,0,,0,13,985150,,0,0,,,,,,,,,,,,,Pictures\white.bmp,6000,10000,Pictures\black.bmp,3,1,3,,,,,,,,,,StimulusPr,Pictures\RedRight.bmp,NonCuedStim1,Right
POP_2,27025,1,"<?xml version=""1.0""?>\n<Clock xmlns:dt=""urn:schemas-microsoft-com:datatypes""><Description dt:dt=""string"">E-Prime Primary Realtime Clock</Description><StartTime><Timestamp dt:dt=""int"">0</Timestamp><DateUtc dt:dt=""string"">2014-05-30T22:19:31Z</DateUtc></StartTime><FrequencyChanges><FrequencyChange><Frequency dt:dt=""r8"">2793040000</Frequency><Timestamp dt:dt=""r8"">522067888560433</Timestamp><Current dt:dt=""r8"">0</Current><DateUtc dt:dt=""string"">2014-05-30T22:19:31Z</DateUtc></FrequencyChange></FrequencyChanges></Clock>\n",60.03,1,-1996816544,0,,-999999,8,16187,t,56829,73016,5/30/2014,15:19:31,,2,Session2,SessionsList,0,,-999999,10,708823,t,78315,787138,704691,2,1,2,2,,,,,2,1,2,,,,NonCued1,MiniBlocks1,940856,,,,4,1,r,-999999,15,1014152,r,422,1014574,Green,Congruent,r,White,0,,0,4,1004141,,0,0,,,,,,,,,,,,,Pictures\white.bmp,9000,10000,Pictures\GreenLeft.bmp,4,1,4,,,,,,,,,,StimulusPr,Pictures\black.bmp,NonCuedStim1,Left
POP_2,27025,1,"<?xml version=""1.0""?>\n<Clock xmlns:dt=""urn:schemas-microsoft-com:datatypes""><Description dt:dt=""string"">E-Prime Primary Realtime Clock</Description><StartTime><Timestamp dt:dt=""int"">0</Timestamp><DateUtc dt:dt=""string"">2014-05-30T22:19:31Z</DateUtc></StartTime><FrequencyChanges><FrequencyChange><Frequency dt:dt=""r8"">2793040000</Frequency><Timestamp dt:dt=""r8"">522067888560433</Timestamp><Current dt:dt=""r8"">0</Current><DateUtc dt:dt=""string"">2014-05-30T22:19:31Z</DateUtc></FrequencyChange></FrequencyChanges></Clock>\n",60.03,1,-1996816544,0,,-999999,8,16187,t,56829,73016,5/30/2014,15:19:31,,2,Session2,SessionsList,0,,-999999,10,708823,t,78315,787138,704691,2,1,2,2,,,,,2,1,2,,,,NonCued1,MiniBlocks1,940856,,,,5,1,b,-999999,7,1030144,b,961,1031105,Green,Congruent,b,White,0,,0,9,1026146,,0,0,,,,,,,,,,,,,Pictures\white.bmp,3000,2000,Pictures\black.bmp,5,1,5,,,,,,,,,,StimulusPr,Pictures\GreenRight.bmp,NonCuedStim1,Right
POP_2,27025,1,"<?xml version=""1.0""?>\n<Clock xmlns:dt=""urn:schemas-microsoft-com:datatypes""><Description dt:dt=""string"">E-Prime Primary Realtime Clock</Description><StartTime><Timestamp dt:dt=""int"">0</Timestamp><DateUtc dt:dt=""string"">2014-05-30T22:19:31Z</DateUtc></StartTime><FrequencyChanges><FrequencyChange><Frequency dt:dt=""r8"">2793040000</Frequency><Timestamp dt:dt=""r8"">522067888560433</Timestamp><Current dt:dt=""r8"">0</Current><DateUtc dt:dt=""string"">2014-05-30T22:19:31Z</DateUtc></FrequencyChange></FrequencyChanges></Clock>\n",60.03,1,-1996816544,0,,-999999,8,16187,t,56829,73016,5/30/2014,15:19:31,,2,Session2,SessionsList,0,,-999999,10,708823,t,78315,787138,704691,2,1,2,2,,,,,2,1,2,,,,NonCued1,MiniBlocks1,940856,,,,6,1,b,-999999,2,1039123,b,726,1039849,Red,Incongruent,b,White,0,,0,5,1034142,,0,0,,,,,,,,,,,,,Pictures\white.bmp,4000,16000,Pictures\RedLeft.bmp,6,1,6,,,,,,,,,,StimulusPr,Pictures\black.bmp,NonCuedStim1,Left
POP_2,27025,1,"<?xml version=""1.0""?>\n<Clock xmlns:dt=""urn:schemas-microsoft-com:datatypes""><Description dt:dt=""string"">E-Prime Primary Realtime Clock</Description><StartTime><Timestamp dt:dt=""int"">0</Timestamp><DateUtc dt:dt=""string"">2014-05-30T22:19:31Z</DateUtc></StartTime><FrequencyChanges><FrequencyChange><Frequency dt:dt=""r8"">2793040000</Frequency><Timestamp dt:dt=""r8"">522067888560433</Timestamp><Current dt:dt=""r8"">0</Current><DateUtc dt:dt=""string"">2014-05-30T22:19:31Z</DateUtc></FrequencyChange></FrequencyChanges></Clock>\n",60.03,1,-1996816544,0,,-999999,8,16187,t,56829,73016,5/30/2014,15:19:31,,2,Session2,SessionsList,0,,-999999,10,708823,t,78315,787138,704691,2,1,2,2,,,,,2,1,2,,,,NonCued1,MiniBlocks1,940856,,,,7,1,b,-999999,10,1061146,b,668,1061814,Green,Congruent,b,White,0,,0,11,1057148,,0,0,,,,,,,,,,,,,Pictures\white.bmp,3000,4000,Pictures\black.bmp,7,1,7,,,,,,,,,,StimulusPr,Pictures\GreenRight.bmp,NonCuedStim1,Right
POP_2,27025,1,"<?xml version=""1.0""?>\n<Clock xmlns:dt=""urn:schemas-microsoft-com:datatypes""><Description dt:dt=""string"">E-Prime Primary Realtime Clock</Description><StartTime><Timestamp dt:dt=""int"">0</Timestamp><DateUtc dt:dt=""string"">2014-05-30T22:19:31Z</DateUtc></StartTime><FrequencyChanges><FrequencyChange><Frequency dt:dt=""r8"">2793040000</Frequency><Timestamp dt:dt=""r8"">522067888560433</Timestamp><Current dt:dt=""r8"">0</Current><DateUtc dt:dt=""string"">2014-05-30T22:19:31Z</DateUtc></FrequencyChange></FrequencyChanges></Clock>\n",60.03,1,-1996816544,0,,-999999,8,16187,t,56829,73016,5/30/2014,15:19:31,,2,Session2,SessionsList,0,,-999999,10,708823,t,78315,787138,704691,2,1,2,2,,,,,2,1,2,,,,NonCued1,MiniBlocks1,940856,,,,8,1,b,-999999,11,1071141,b,1261,1072402,Green,Congruent,b,White,0,,0,5,1067142,,0,0,,,,,,,,,,,,,Pictures\white.bmp,3000,4000,Pictures\black.bmp,8,1,8,,,,,,,,,,StimulusPr,Pictures\GreenRight.bmp,NonCuedStim1,Right
POP_2,27025,1,"<?xml version=""1.0""?>\n<Clock xmlns:dt=""urn:schemas-microsoft-com:datatypes""><Description dt:dt=""string"">E-Prime Primary Realtime Clock</Description><StartTime><Timestamp dt:dt=""int"">0</Timestamp><DateUtc dt:dt=""string"">2014-05-30T22:19:31Z</DateUtc></StartTime><FrequencyChanges><FrequencyChange><Frequency dt:dt=""r8"">2793040000</Frequency><Timestamp dt:dt=""r8"">522067888560433</Timestamp><Current dt:dt=""r8"">0</Current><DateUtc dt:dt=""string"">2014-05-30T22:19:31Z</DateUtc></FrequencyChange></FrequencyChanges></Clock>\n",60.03,1,-1996816544,0,,-999999,8,16187,t,56829,73016,5/30/2014,15:19:31,,2,Session2,SessionsList,0,,-999999,10,708823,t,78315,787138,704691,2,1,2,2,,,,,2,1,2,,,,NonCued1,MiniBlocks1,940856,,,,9,1,b,-999999,13,1088149,b,760,1088909,Red,Incongruent,b,White,0,,0,18,1078154,,0,0,,,,,,,,,,,,,Pictures\white.bmp,9000,2000,Pictures\RedLeft.bmp,9,1,9,,,,,,,,,,StimulusPr,Pictures\black.bmp,NonCuedStim1,Left
POP_2,27025,1,"<?xml version=""1.0""?>\n<Clock xmlns:dt=""urn:schemas-microsoft-com:datatypes""><Description dt:dt=""string"">E-Prime Primary Realtime Clock</Description><StartTime><Timestamp dt:dt=""int"">0</Timestamp><DateUtc dt:dt=""string"">2014-05-30T22:19:31Z</DateUtc></StartTime><FrequencyChanges><FrequencyChange><Frequency dt:dt=""r8"">2793040000</Frequency><Timestamp dt:dt=""r8"">522067888560433</Timestamp><Current dt:dt=""r8"">0</Current><DateUtc dt:dt=""string"">2014-05-30T22:19:31Z</DateUtc></FrequencyChange></FrequencyChanges></Clock>\n",60.03,1,-1996816544,0,,-999999,8,16187,t,56829,73016,5/30/2014,15:19:31,,2,Session2,SessionsList,0,,-999999,10,708823,t,78315,787138,704691,2,1,2,2,,,,,2,1,2,,,,NonCued1,MiniBlocks1,940856,,,,10,1,r,-999999,7,1099143,r,713,1099856,Green,Congruent,r,White,0,,0,10,1092147,,0,0,,,,,,,,,,,,,Pictures\white.bmp,6000,2000,Pictures\GreenLeft.bmp,10,1,10,,,,,,,,,,StimulusPr,Pictures\black.bmp,NonCuedStim1,Left
POP_2,27025,1,"<?xml version=""1.0""?>\n<Clock xmlns:dt=""urn:schemas-microsoft-com:datatypes""><Description dt:dt=""string"">E-Prime Primary Realtime Clock</Description><StartTime><Timestamp dt:dt=""int"">0</Timestamp><DateUtc dt:dt=""string"">2014-05-30T22:19:31Z</DateUtc></StartTime><FrequencyChanges><FrequencyChange><Frequency dt:dt=""r8"">2793040000</Frequency><Timestamp dt:dt=""r8"">522067888560433</Timestamp><Current dt:dt=""r8"">0</Current><DateUtc dt:dt=""string"">2014-05-30T22:19:31Z</DateUtc></FrequencyChange></FrequencyChanges></Clock>\n",60.03,1,-1996816544,0,,-999999,8,16187,t,56829,73016,5/30/2014,15:19:31,,2,Session2,SessionsList,0,,-999999,10,708823,t,78315,787138,704691,2,1,2,3,,,,,3,1,3,,,,NonCued2,MiniBlocks1,,1101875,,,1,1,b,-999999,12,1122148,b,688,1122836,Green,Congruent,b,White,0,,0,17,1112153,,0,0,,,,,,,,,,,,,Pictures\white.bmp,9000,10000,Pictures\black.bmp,,,,1,1,1,,,,,,,StimulusPr,Pictures\GreenRight.bmp,NonCuedStim2,Right
POP_2,27025,1,"<?xml version=""1.0""?>\n<Clock xmlns:dt=""urn:schemas-microsoft-com:datatypes""><Description dt:dt=""string"">E-Prime Primary Realtime Clock</Description><StartTime><Timestamp dt:dt=""int"">0</Timestamp><DateUtc dt:dt=""string"">2014-05-30T22:19:31Z</DateUtc></StartTime><FrequencyChanges><FrequencyChange><Frequency dt:dt=""r8"">2793040000</Frequency><Timestamp dt:dt=""r8"">522067888560433</Timestamp><Current dt:dt=""r8"">0</Current><DateUtc dt:dt=""string"">2014-05-30T22:19:31Z</DateUtc></FrequencyChange></FrequencyChanges></Clock>\n",60.03,1,-1996816544,0,,-999999,8,16187,t,56829,73016,5/30/2014,15:19:31,,2,Session2,SessionsList,0,,-999999,10,708823,t,78315,787138,704691,2,1,2,3,,,,,3,1,3,,,,NonCued2,MiniBlocks1,,1101875,,,2,1,r,-999999,4,1138140,r,661,1138801,Green,Congruent,r,White,0,,0,6,1134142,,0,0,,,,,,,,,,,,,Pictures\white.bmp,3000,2000,Pictures\GreenLeft.bmp,,,,2,1,2,,,,,,,StimulusPr,Pictures\black.bmp,NonCuedStim2,Left
POP_2,27025,1,"<?xml version=""1.0""?>\n<Clock xmlns:dt=""urn:schemas-microsoft-com:datatypes""><Description dt:dt=""string"">E-Prime Primary Realtime Clock</Description><StartTime><Timestamp dt:dt=""int"">0</Timestamp><DateUtc dt:dt=""string"">2014-05-30T22:19:31Z</DateUtc></StartTime><FrequencyChanges><FrequencyChange><Frequency dt:dt=""r8"">2793040000</Frequency><Timestamp dt:dt=""r8"">522067888560433</Timestamp><Current dt:dt=""r8"">0</Current><DateUtc dt:dt=""string"">2014-05-30T22:19:31Z</DateUtc></FrequencyChange></FrequencyChanges></Clock>\n",60.03,1,-1996816544,0,,-999999,8,16187,t,56829,73016,5/30/2014,15:19:31,,2,Session2,SessionsList,0,,-999999,10,708823,t,78315,787138,704691,2,1,2,3,,,,,3,1,3,,,,NonCued2,MiniBlocks1,,1101875,,,3,1,r,-999999,17,1146153,r,612,1146765,Red,Incongruent,r,White,0,,0,2,1142138,,0,0,,,,,,,,,,,,,Pictures\white.bmp,3000,2000,Pictures\black.bmp,,,,3,1,3,,,,,,,StimulusPr,Pictures\RedRight.bmp,NonCuedStim2,Right
POP_2,27025,1,"<?xml version=""1.0""?>\n<Clock xmlns:dt=""urn:schemas-microsoft-com:datatypes""><Description dt:dt=""string"">E-Prime Primary Realtime Clock</Description><StartTime><Timestamp dt:dt=""int"">0</Timestamp><DateUtc dt:dt=""string"">2014-05-30T22:19:31Z</DateUtc></StartTime><FrequencyChanges><FrequencyChange><Frequency dt:dt=""r8"">2793040000</Frequency><Timestamp dt:dt=""r8"">522067888560433</Timestamp><Current dt:dt=""r8"">0</Current><DateUtc dt:dt=""string"">2014-05-30T22:19:31Z</DateUtc></FrequencyChange></FrequencyChanges></Clock>\n",60.03,1,-1996816544,0,,-999999,8,16187,t,56829,73016,5/30/2014,15:19:31,,2,Session2,SessionsList,0,,-999999,10,708823,t,78315,787138,704691,2,1,2,3,,,,,3,1,3,,,,NonCued2,MiniBlocks1,,1101875,,,4,1,r,-999999,12,1155148,r,1281,1156429,Green,Congruent,r,White,0,,0,14,1150134,,0,0,,,,,,,,,,,,,Pictures\white.bmp,4000,16000,Pictures\GreenLeft.bmp,,,,4,1,4,,,,,,,StimulusPr,Pictures\black.bmp,NonCuedStim2,Left
POP_2,27025,1,"<?xml version=""1.0""?>\n<Clock xmlns:dt=""urn:schemas-microsoft-com:datatypes""><Description dt:dt=""string"">E-Prime Primary Realtime Clock</Description><StartTime><Timestamp dt:dt=""int"">0</Timestamp><DateUtc dt:dt=""string"">2014-05-30T22:19:31Z</DateUtc></StartTime><FrequencyChanges><FrequencyChange><Frequency dt:dt=""r8"">2793040000</Frequency><Timestamp dt:dt=""r8"">522067888560433</Timestamp><Current dt:dt=""r8"">0</Current><DateUtc dt:dt=""string"">2014-05-30T22:19:31Z</DateUtc></FrequencyChange></FrequencyChanges></Clock>\n",60.03,1,-1996816544,0,,-999999,8,16187,t,56829,73016,5/30/2014,15:19:31,,2,Session2,SessionsList,0,,-999999,10,708823,t,78315,787138,704691,2,1,2,3,,,,,3,1,3,,,,NonCued2,MiniBlocks1,,1101875,,,5,1,r,-999999,16,1181152,r,2614,1183766,Green,Congruent,r,White,0,,0,3,1174139,,0,0,,,,,,,,,,,,,Pictures\white.bmp,6000,4000,Pictures\GreenLeft.bmp,,,,5,1,5,,,,,,,StimulusPr,Pictures\black.bmp,NonCuedStim2,Left
POP_2,27025,1,"<?xml version=""1.0""?>\n<Clock xmlns:dt=""urn:schemas-microsoft-com:datatypes""><Description dt:dt=""string"">E-Prime Primary Realtime Clock</Description><StartTime><Timestamp dt:dt=""int"">0</Timestamp><DateUtc dt:dt=""string"">2014-05-30T22:19:31Z</DateUtc></StartTime><FrequencyChanges><FrequencyChange><Frequency dt:dt=""r8"">2793040000</Frequency><Timestamp dt:dt=""r8"">522067888560433</Timestamp><Current dt:dt=""r8"">0</Current><DateUtc dt:dt=""string"">2014-05-30T22:19:31Z</DateUtc></FrequencyChange></FrequencyChanges></Clock>\n",60.03,1,-1996816544,0,,-999999,8,16187,t,56829,73016,5/30/2014,15:19:31,,2,Session2,SessionsList,0,,-999999,10,708823,t,78315,787138,704691,2,1,2,3,,,,,3,1,3,,,,NonCued2,MiniBlocks1,,1101875,,,6,1,b,-999999,10,1193146,b,743,1193889,Red,Incongruent,b,White,0,,0,12,1189148,,0,0,,,,,,,,,,,,,Pictures\white.bmp,3000,4000,Pictures\RedLeft.bmp,,,,6,1,6,,,,,,,StimulusPr,Pictures\black.bmp,NonCuedStim2,Left
POP_2,27025,1,"<?xml version=""1.0""?>\n<Clock xmlns:dt=""urn:schemas-microsoft-com:datatypes""><Description dt:dt=""string"">E-Prime Primary Realtime Clock</Description><StartTime><Timestamp dt:dt=""int"">0</Timestamp><DateUtc dt:dt=""string"">2014-05-30T22:19:31Z</DateUtc></StartTime><FrequencyChanges><FrequencyChange><Frequency dt:dt=""r8"">2793040000</Frequency><Timestamp dt:dt=""r8"">522067888560433</Timestamp><Current dt:dt=""r8"">0</Current><DateUtc dt:dt=""string"">2014-05-30T22:19:31Z</DateUtc></FrequencyChange></FrequencyChanges></Clock>\n",60.03,1,-1996816544,0,,-999999,8,16187,t,56829,73016,5/30/2014,15:19:31,,2,Session2,SessionsList,0,,-999999,10,708823,t,78315,787138,704691,2,1,2,3,,,,,3,1,3,,,,NonCued2,MiniBlocks1,,1101875,,,7,1,b,-999999,4,1204140,b,1037,1205177,Green,Congruent,b,White,0,,0,7,1199143,,0,0,,,,,,,,,,,,,Pictures\white.bmp,4000,16000,Pictures\black.bmp,,,,7,1,7,,,,,,,StimulusPr,Pictures\GreenRight.bmp,NonCuedStim2,Right
POP_2,27025,1,"<?xml version=""1.0""?>\n<Clock xmlns:dt=""urn:schemas-microsoft-com:datatypes""><Description dt:dt=""string"">E-Prime Primary Realtime Clock</Description><StartTime><Timestamp dt:dt=""int"">0</Timestamp><DateUtc dt:dt=""string"">2014-05-30T22:19:31Z</DateUtc></StartTime><FrequencyChanges><FrequencyChange><Frequency dt:dt=""r8"">2793040000</Frequency><Timestamp dt:dt=""r8"">522067888560433</Timestamp><Current dt:dt=""r8"">0</Current><DateUtc dt:dt=""string"">2014-05-30T22:19:31Z</DateUtc></FrequencyChange></FrequencyChanges></Clock>\n",60.03,1,-1996816544,0,,-999999,8,16187,t,56829,73016,5/30/2014,15:19:31,,2,Session2,SessionsList,0,,-999999,10,708823,t,78315,787138,704691,2,1,2,3,,,,,3,1,3,,,,NonCued2,MiniBlocks1,,1101875,,,8,1,r,-999999,6,1233142,r,708,1233850,Green,Congruent,r,White,0,,0,11,1223147,,0,0,,,,,,,,,,,,,Pictures\white.bmp,9000,2000,Pictures\GreenLeft.bmp,,,,8,1,8,,,,,,,StimulusPr,Pictures\black.bmp,NonCuedStim2,Left
POP_2,27025,1,"<?xml version=""1.0""?>\n<Clock xmlns:dt=""urn:schemas-microsoft-com:datatypes""><Description dt:dt=""string"">E-Prime Primary Realtime Clock</Description><StartTime><Timestamp dt:dt=""int"">0</Timestamp><DateUtc dt:dt=""string"">2014-05-30T22:19:31Z</DateUtc></StartTime><FrequencyChanges><FrequencyChange><Frequency dt:dt=""r8"">2793040000</Frequency><Timestamp dt:dt=""r8"">522067888560433</Timestamp><Current dt:dt=""r8"">0</Current><DateUtc dt:dt=""string"">2014-05-30T22:19:31Z</DateUtc></FrequencyChange></FrequencyChanges></Clock>\n",60.03,1,-1996816544,0,,-999999,8,16187,t,56829,73016,5/30/2014,15:19:31,,2,Session2,SessionsList,0,,-999999,10,708823,t,78315,787138,704691,2,1,2,3,,,,,3,1,3,,,,NonCued2,MiniBlocks1,,1101875,,,9,1,b,-999999,18,1241138,b,725,1241863,Green,Congruent,b,White,0,,0,3,1237124,,0,0,,,,,,,,,,,,,Pictures\white.bmp,3000,10000,Pictures\black.bmp,,,,9,1,9,,,,,,,StimulusPr,Pictures\GreenRight.bmp,NonCuedStim2,Right
POP_2,27025,1,"<?xml version=""1.0""?>\n<Clock xmlns:dt=""urn:schemas-microsoft-com:datatypes""><Description dt:dt=""string"">E-Prime Primary Realtime Clock</Description><StartTime><Timestamp dt:dt=""int"">0</Timestamp><DateUtc dt:dt=""string"">2014-05-30T22:19:31Z</DateUtc></StartTime><FrequencyChanges><FrequencyChange><Frequency dt:dt=""r8"">2793040000</Frequency><Timestamp dt:dt=""r8"">522067888560433</Timestamp><Current dt:dt=""r8"">0</Current><DateUtc dt:dt=""string"">2014-05-30T22:19:31Z</DateUtc></FrequencyChange></FrequencyChanges></Clock>\n",60.03,1,-1996816544,0,,-999999,8,16187,t,56829,73016,5/30/2014,15:19:31,,2,Session2,SessionsList,0,,-999999,10,708823,t,78315,787138,704691,2,1,2,3,,,,,3,1,3,,,,NonCued2,MiniBlocks1,,1101875,,,10,1,b,-999999,11,1257147,b,512,1257659,Green,Congruent,b,White,0,,0,12,1253132,,0,0,,,,,,,,,,,,,Pictures\white.bmp,3000,2000,Pictures\black.bmp,,,,10,1,10,,,,,,,StimulusPr,Pictures\GreenRight.bmp,NonCuedStim2,Right
POP_2,27025,1,"<?xml version=""1.0""?>\n<Clock xmlns:dt=""urn:schemas-microsoft-com:datatypes""><Description dt:dt=""string"">E-Prime Primary Realtime Clock</Description><StartTime><Timestamp dt:dt=""int"">0</Timestamp><DateUtc dt:dt=""string"">2014-05-30T22:19:31Z</DateUtc></StartTime><FrequencyChanges><FrequencyChange><Frequency dt:dt=""r8"">2793040000</Frequency><Timestamp dt:dt=""r8"">522067888560433</Timestamp><Current dt:dt=""r8"">0</Current><DateUtc dt:dt=""string"">2014-05-30T22:19:31Z</DateUtc></FrequencyChange></FrequencyChanges></Clock>\n",60.03,1,-1996816544,0,,-999999,8,16187,t,56829,73016,5/30/2014,15:19:31,,2,Session2,SessionsList,0,,-999999,10,708823,t,78315,787138,704691,2,1,2,4,,1259679,,,4,1,4,,,,Cued2,MiniBlocks1,,,,,1,1,b,-999999,18,1277154,b,668,1277822,White,Congruent,b,Green,0,,0,5,1270140,,0,0,,,,1,1,1,,,,,,,Pictures\green.bmp,6000,4000,Pictures\black.bmp,,,,,,,,,,,,,StimulusPr,Pictures\right.bmp,CuedStim2,Right
POP_2,27025,1,"<?xml version=""1.0""?>\n<Clock xmlns:dt=""urn:schemas-microsoft-com:datatypes""><Description dt:dt=""string"">E-Prime Primary Realtime Clock</Description><StartTime><Timestamp dt:dt=""int"">0</Timestamp><DateUtc dt:dt=""string"">2014-05-30T22:19:31Z</DateUtc></StartTime><FrequencyChanges><FrequencyChange><Frequency dt:dt=""r8"">2793040000</Frequency><Timestamp dt:dt=""r8"">522067888560433</Timestamp><Current dt:dt=""r8"">0</Current><DateUtc dt:dt=""string"">2014-05-30T22:19:31Z</DateUtc></FrequencyChange></FrequencyChanges></Clock>\n",60.03,1,-1996816544,0,,-999999,8,16187,t,56829,73016,5/30/2014,15:19:31,,2,Session2,SessionsList,0,,-999999,10,708823,t,78315,787138,704691,2,1,2,4,,1259679,,,4,1,4,,,,Cued2,MiniBlocks1,,,,,2,1,b,-999999,11,1293146,b,456,1293602,White,Congruent,b,Green,0,,0,16,1283151,,0,0,,,,2,1,2,,,,,,,Pictures\green.bmp,9000,10000,Pictures\black.bmp,,,,,,,,,,,,,StimulusPr,Pictures\right.bmp,CuedStim2,Right
POP_2,27025,1,"<?xml version=""1.0""?>\n<Clock xmlns:dt=""urn:schemas-microsoft-com:datatypes""><Description dt:dt=""string"">E-Prime Primary Realtime Clock</Description><StartTime><Timestamp dt:dt=""int"">0</Timestamp><DateUtc dt:dt=""string"">2014-05-30T22:19:31Z</DateUtc></StartTime><FrequencyChanges><FrequencyChange><Frequency dt:dt=""r8"">2793040000</Frequency><Timestamp dt:dt=""r8"">522067888560433</Timestamp><Current dt:dt=""r8"">0</Current><DateUtc dt:dt=""string"">2014-05-30T22:19:31Z</DateUtc></FrequencyChange></FrequencyChanges></Clock>\n",60.03,1,-1996816544,0,,-999999,8,16187,t,56829,73016,5/30/2014,15:19:31,,2,Session2,SessionsList,0,,-999999,10,708823,t,78315,787138,704691,2,1,2,4,,1259679,,,4,1,4,,,,Cued2,MiniBlocks1,,,,,3,1,r,-999999,3,1309138,r,982,1310120,White,Incongruent,r,Red,0,,0,5,1305140,,0,0,,,,3,1,3,,,,,,,Pictures\red.bmp,3000,2000,Pictures\black.bmp,,,,,,,,,,,,,StimulusPr,Pictures\right.bmp,CuedStim2,Right
POP_2,27025,1,"<?xml version=""1.0""?>\n<Clock xmlns:dt=""urn:schemas-microsoft-com:datatypes""><Description dt:dt=""string"">E-Prime Primary Realtime Clock</Description><StartTime><Timestamp dt:dt=""int"">0</Timestamp><DateUtc dt:dt=""string"">2014-05-30T22:19:31Z</DateUtc></StartTime><FrequencyChanges><FrequencyChange><Frequency dt:dt=""r8"">2793040000</Frequency><Timestamp dt:dt=""r8"">522067888560433</Timestamp><Current dt:dt=""r8"">0</Current><DateUtc dt:dt=""string"">2014-05-30T22:19:31Z</DateUtc></FrequencyChange></FrequencyChanges></Clock>\n",60.03,1,-1996816544,0,,-999999,8,16187,t,56829,73016,5/30/2014,15:19:31,,2,Session2,SessionsList,0,,-999999,10,708823,t,78315,787138,704691,2,1,2,4,,1259679,,,4,1,4,,,,Cued2,MiniBlocks1,,,,,4,1,r,-999999,12,1321131,r,774,1321905,White,Congruent,r,Green,0,,0,17,1314152,,0,0,,,,4,1,4,,,,,,,Pictures\green.bmp,6000,16000,Pictures\left.bmp,,,,,,,,,,,,,StimulusPr,Pictures\black.bmp,CuedStim2,Left
POP_2,27025,1,"<?xml version=""1.0""?>\n<Clock xmlns:dt=""urn:schemas-microsoft-com:datatypes""><Description dt:dt=""string"">E-Prime Primary Realtime Clock</Description><StartTime><Timestamp dt:dt=""int"">0</Timestamp><DateUtc dt:dt=""string"">2014-05-30T22:19:31Z</DateUtc></StartTime><FrequencyChanges><FrequencyChange><Frequency dt:dt=""r8"">2793040000</Frequency><Timestamp dt:dt=""r8"">522067888560433</Timestamp><Current dt:dt=""r8"">0</Current><DateUtc dt:dt=""string"">2014-05-30T22:19:31Z</DateUtc></FrequencyChange></FrequencyChanges></Clock>\n",60.03,1,-1996816544,0,,-999999,8,16187,t,56829,73016,5/30/2014,15:19:31,,2,Session2,SessionsList,0,,-999999,10,708823,t,78315,787138,704691,2,1,2,4,,1259679,,,4,1,4,,,,Cued2,MiniBlocks1,,,,,5,1,b,-999999,19,1343154,b,1814,1344968,White,Congruent,b,Green,0,,0,4,1339139,,0,0,,,,5,1,5,,,,,,,Pictures\green.bmp,3000,2000,Pictures\black.bmp,,,,,,,,,,,,,StimulusPr,Pictures\right.bmp,CuedStim2,Right
POP_2,27025,1,"<?xml version=""1.0""?>\n<Clock xmlns:dt=""urn:schemas-microsoft-com:datatypes""><Description dt:dt=""string"">E-Prime Primary Realtime Clock</Description><StartTime><Timestamp dt:dt=""int"">0</Timestamp><DateUtc dt:dt=""string"">2014-05-30T22:19:31Z</DateUtc></StartTime><FrequencyChanges><FrequencyChange><Frequency dt:dt=""r8"">2793040000</Frequency><Timestamp dt:dt=""r8"">522067888560433</Timestamp><Current dt:dt=""r8"">0</Current><DateUtc dt:dt=""string"">2014-05-30T22:19:31Z</DateUtc></FrequencyChange></FrequencyChanges></Clock>\n",60.03,1,-1996816544,0,,-999999,8,16187,t,56829,73016,5/30/2014,15:19:31,,2,Session2,SessionsList,0,,-999999,10,708823,t,78315,787138,704691,2,1,2,4,,1259679,,,4,1,4,,,,Cued2,MiniBlocks1,,,,,6,1,r,-999999,14,1352149,r,673,1352822,White,Congruent,r,Green,0,,0,16,1348151,,0,0,,,,6,1,6,,,,,,,Pictures\green.bmp,3000,2000,Pictures\left.bmp,,,,,,,,,,,,,StimulusPr,Pictures\black.bmp,CuedStim2,Left
POP_2,27025,1,"<?xml version=""1.0""?>\n<Clock xmlns:dt=""urn:schemas-microsoft-com:datatypes""><Description dt:dt=""string"">E-Prime Primary Realtime Clock</Description><StartTime><Timestamp dt:dt=""int"">0</Timestamp><DateUtc dt:dt=""string"">2014-05-30T22:19:31Z</DateUtc></StartTime><FrequencyChanges><FrequencyChange><Frequency dt:dt=""r8"">2793040000</Frequency><Timestamp dt:dt=""r8"">522067888560433</Timestamp><Current dt:dt=""r8"">0</Current><DateUtc dt:dt=""string"">2014-05-30T22:19:31Z</DateUtc></FrequencyChange></FrequencyChanges></Clock>\n",60.03,1,-1996816544,0,,-999999,8,16187,t,56829,73016,5/30/2014,15:19:31,,2,Session2,SessionsList,0,,-999999,10,708823,t,78315,787138,704691,2,1,2,4,,1259679,,,4,1,4,,,,Cued2,MiniBlocks1,,,,,7,1,b,-999999,9,1363144,b,806,1363950,White,Incongruent,b,Red,0,,0,12,1356147,,0,0,,,,7,1,7,,,,,,,Pictures\red.bmp,6000,4000,Pictures\left.bmp,,,,,,,,,,,,,StimulusPr,Pictures\black.bmp,CuedStim2,Left
POP_2,27025,1,"<?xml version=""1.0""?>\n<Clock xmlns:dt=""urn:schemas-microsoft-com:datatypes""><Description dt:dt=""string"">E-Prime Primary Realtime Clock</Description><StartTime><Timestamp dt:dt=""int"">0</Timestamp><DateUtc dt:dt=""string"">2014-05-30T22:19:31Z</DateUtc></StartTime><FrequencyChanges><FrequencyChange><Frequency dt:dt=""r8"">2793040000</Frequency><Timestamp dt:dt=""r8"">522067888560433</Timestamp><Current dt:dt=""r8"">0</Current><DateUtc dt:dt=""string"">2014-05-30T22:19:31Z</DateUtc></FrequencyChange></FrequencyChanges></Clock>\n",60.03,1,-1996816544,0,,-999999,8,16187,t,56829,73016,5/30/2014,15:19:31,,2,Session2,SessionsList,0,,-999999,10,708823,t,78315,787138,704691,2,1,2,4,,1259679,,,4,1,4,,,,Cued2,MiniBlocks1,,,,,8,1,b,-999999,3,1374138,b,864,1375002,White,Congruent,b,Green,0,,0,8,1369141,,0,0,,,,8,1,8,,,,,,,Pictures\green.bmp,4000,4000,Pictures\black.bmp,,,,,,,,,,,,,StimulusPr,Pictures\right.bmp,CuedStim2,Right
POP_2,27025,1,"<?xml version=""1.0""?>\n<Clock xmlns:dt=""urn:schemas-microsoft-com:datatypes""><Description dt:dt=""string"">E-Prime Primary Realtime Clock</Description><StartTime><Timestamp dt:dt=""int"">0</Timestamp><DateUtc dt:dt=""string"">2014-05-30T22:19:31Z</DateUtc></StartTime><FrequencyChanges><FrequencyChange><Frequency dt:dt=""r8"">2793040000</Frequency><Timestamp dt:dt=""r8"">522067888560433</Timestamp><Current dt:dt=""r8"">0</Current><DateUtc dt:dt=""string"">2014-05-30T22:19:31Z</DateUtc></FrequencyChange></FrequencyChanges></Clock>\n",60.03,1,-1996816544,0,,-999999,8,16187,t,56829,73016,5/30/2014,15:19:31,,2,Session2,SessionsList,0,,-999999,10,708823,t,78315,787138,704691,2,1,2,4,,1259679,,,4,1,4,,,,Cued2,MiniBlocks1,,,,,9,0,b,-999999,12,1390147,r,1294,1391441,White,Incongruent,b,Red,0,,0,17,1380152,,0,0,,,,9,1,9,,,,,,,Pictures\red.bmp,9000,10000,Pictures\left.bmp,,,,,,,,,,,,,StimulusPr,Pictures\black.bmp,CuedStim2,Left
POP_2,27025,1,"<?xml version=""1.0""?>\n<Clock xmlns:dt=""urn:schemas-microsoft-com:datatypes""><Description dt:dt=""string"">E-Prime Primary Realtime Clock</Description><StartTime><Timestamp dt:dt=""int"">0</Timestamp><DateUtc dt:dt=""string"">2014-05-30T22:19:31Z</DateUtc></StartTime><FrequencyChanges><FrequencyChange><Frequency dt:dt=""r8"">2793040000</Frequency><Timestamp dt:dt=""r8"">522067888560433</Timestamp><Current dt:dt=""r8"">0</Current><DateUtc dt:dt=""string"">2014-05-30T22:19:31Z</DateUtc></FrequencyChange></FrequencyChanges></Clock>\n",60.03,1,-1996816544,0,,-999999,8,16187,t,56829,73016,5/30/2014,15:19:31,,2,Session2,SessionsList,0,,-999999,10,708823,t,78315,787138,704691,2,1,2,4,,1259679,,,4,1,4,,,,Cued2,MiniBlocks1,,,,,10,1,r,-999999,17,1413152,r,819,1413971,White,Congruent,r,Green,0,,0,5,1403140,,0,0,,,,10,1,10,,,,,,,Pictures\green.bmp,9000,10000,Pictures\left.bmp,,,,,,,,,,,,,StimulusPr,Pictures\black.bmp,CuedStim2,Left
