ExperimentName,Subject,Session,Clock.Information,Display.RefreshRate,Group,RandomSeed,Session1Onset.ACC,Session1Onset.CRESP,Session1Onset.DurationError,Session1Onset.OnsetDelay,Session1Onset.OnsetTime,Session1Onset.RESP,Session1Onset.RT,Session1Onset.RTTime,SessionDate,SessionTime,SessionTimeUtc,Block,Procedure[Block],Running[Block],Session2Onset.ACC,Session2Onset.CRESP,Session2Onset.DurationError,Session2Onset.OnsetDelay,Session2Onset.OnsetTime,Session2Onset.RESP,Session2Onset.RT,Session2Onset.RTTime,SessionBreak.OnsetTime,SessionsList,SessionsList.Cycle,SessionsList.Sample,Trial,CuedPrompt1.OnsetTime,CuedPrompt2.OnsetTime,CuedPrompt3.OnsetTime,CuedPrompt4.OnsetTime,MiniBlocks1,MiniBlocks1.Cycle,MiniBlocks1.Sample,MiniBlocks2,MiniBlocks2.Cycle,MiniBlocks2.Sample,Procedure[Trial],Running[Trial],UncuedPrompt1.OnsetTime,UncuedPrompt2.OnsetTime,UncuedPrompt3.OnsetTime,UncuedPrompt4.OnsetTime,SubTrial,Arrow1.ACC,Arrow1.CRESP,Arrow1.DurationError,Arrow1.OnsetDelay,Arrow1.OnsetTime,Arrow1.RESP,Arrow1.RT,Arrow1.RTTime,ArrowColor,Congruence,CorrectResp,Cue,Cue.ACC,Cue.CRESP,Cue.DurationError,Cue.OnsetDelay,Cue.OnsetTime,Cue.RESP,Cue.RT,Cue.RTTime,CuedStim1,CuedStim1.Cycle,CuedStim1.Sample,CuedStim2,CuedStim2.Cycle,CuedStim2.Sample,CuedStim3,CuedStim3.Cycle,CuedStim3.Sample,CuedStim4,CuedStim4.Cycle,CuedStim4.Sample,CueImage,JitterCue,JitterTrial,LeftImage,NonCuedStim1,NonCuedStim1.Cycle,NonCuedStim1.Sample,NonCuedStim2,NonCuedStim2.Cycle,NonCuedStim2.Sample,NonCuedStim3,NonCuedStim3.Cycle,NonCuedStim3.Sample,NonCuedStim4,NonCuedStim4.Cycle,NonCuedStim4.Sample,Procedure[SubTrial],RightImage,Running[SubTrial],Stimulus
POP_2,27008,1,"<?xml version=""1.0""?>\n<Clock xmlns:dt=""urn:schemas-microsoft-com:datatypes""><Description dt:dt=""string"">E-Prime Primary Realtime Clock</Description><StartTime><Timestamp dt:dt=""int"">0</Timestamp><DateUtc dt:dt=""string"">2014-04-29T21:18:07Z</DateUtc></StartTime><FrequencyChanges><FrequencyChange><Frequency dt:dt=""r8"">2793020000</Frequency><Timestamp dt:dt=""r8"">39858090287924</Timestamp><Current dt:dt=""r8"">0</Current><DateUtc dt:dt=""string"">2014-04-29T21:18:07Z</DateUtc></FrequencyChange></FrequencyChanges></Clock>\n",60.037,1,1326768520,0,,-999999,11,32593,t,36301,68894,4/29/2014,14:18:07,9:18:07 PM,1,Session1,SessionsList,,,,,,,,,,1,1,1,1,,,,,,,,1,1,1,NonCued3,MiniBlocks2,,,68925,,1,1,b,-999999,175,89081,b,454,89535,Green,Congruent,b,White,0,,0,59,78953,,0,0,,,,,,,,,,,,,Pictures\white.bmp,9000,10000,Pictures\black.bmp,,,,,,,1,1,1,,,,StimulusPr,Pictures\GreenRight.bmp,NonCuedStim3,Right
POP_2,27008,1,"<?xml version=""1.0""?>\n<Clock xmlns:dt=""urn:schemas-microsoft-com:datatypes""><Description dt:dt=""string"">E-Prime Primary Realtime Clock</Description><StartTime><Timestamp dt:dt=""int"">0</Timestamp><DateUtc dt:dt=""string"">2014-04-29T21:18:07Z</DateUtc></StartTime><FrequencyChanges><FrequencyChange><Frequency dt:dt=""r8"">2793020000</Frequency><Timestamp dt:dt=""r8"">39858090287924</Timestamp><Current dt:dt=""r8"">0</Current><DateUtc dt:dt=""string"">2014-04-29T21:18:07Z</DateUtc></FrequencyChange></FrequencyChanges></Clock>\n",60.037,1,1326768520,0,,-999999,11,32593,t,36301,68894,4/29/2014,14:18:07,9:18:07 PM,1,Session1,SessionsList,,,,,,,,,,1,1,1,1,,,,,,,,1,1,1,NonCued3,MiniBlocks2,,,68925,,2,1,r,-999999,79,110987,r,548,111535,Red,Incongruent,r,White,0,,0,17,100925,,0,0,,,,,,,,,,,,,Pictures\white.bmp,9000,10000,Pictures\black.bmp,,,,,,,2,1,2,,,,StimulusPr,Pictures\RedRight.bmp,NonCuedStim3,Right
POP_2,27008,1,"<?xml version=""1.0""?>\n<Clock xmlns:dt=""urn:schemas-microsoft-com:datatypes""><Description dt:dt=""string"">E-Prime Primary Realtime Clock</Description><StartTime><Timestamp dt:dt=""int"">0</Timestamp><DateUtc dt:dt=""string"">2014-04-29T21:18:07Z</DateUtc></StartTime><FrequencyChanges><FrequencyChange><Frequency dt:dt=""r8"">2793020000</Frequency><Timestamp dt:dt=""r8"">39858090287924</Timestamp><Current dt:dt=""r8"">0</Current><DateUtc dt:dt=""string"">2014-04-29T21:18:07Z</DateUtc></FrequencyChange></FrequencyChanges></Clock>\n",60.037,1,1326768520,0,,-999999,11,32593,t,36301,68894,4/29/2014,14:18:07,9:18:07 PM,1,Session1,SessionsList,,,,,,,,,,1,1,1,1,,,,,,,,1,1,1,NonCued3,MiniBlocks2,,,68925,,3,1,r,-999999,71,127979,r,415,128394,Green,Congruent,r,White,0,,0,9,122914,,0,0,,,,,,,,,,,,,Pictures\white.bmp,4000,4000,Pictures\GreenLeft.bmp,,,,,,,3,1,3,,,,StimulusPr,Pictures\black.bmp,NonCuedStim3,Left
POP_2,27008,1,"<?xml version=""1.0""?>\n<Clock xmlns:dt=""urn:schemas-microsoft-com:datatypes""><Description dt:dt=""string"">E-Prime Primary Realtime Clock</Description><StartTime><Timestamp dt:dt=""int"">0</Timestamp><DateUtc dt:dt=""string"">2014-04-29T21:18:07Z</DateUtc></StartTime><FrequencyChanges><FrequencyChange><Frequency dt:dt=""r8"">2793020000</Frequency><Timestamp dt:dt=""r8"">39858090287924</Timestamp><Current dt:dt=""r8"">0</Current><DateUtc dt:dt=""string"">2014-04-29T21:18:07Z</DateUtc></FrequencyChange></FrequencyChanges></Clock>\n",60.037,1,1326768520,0,,-999999,11,32593,t,36301,68894,4/29/2014,14:18:07,9:18:07 PM,1,Session1,SessionsList,,,,,,,,,,1,1,1,1,,,,,,,,1,1,1,NonCued3,MiniBlocks2,,,68925,,4,1,b,-999999,66,140973,b,546,141519,Red,Incongruent,b,White,0,,0,1,133909,,0,0,,,,,,,,,,,,,Pictures\white.bmp,6000,4000,Pictures\RedLeft.bmp,,,,,,,4,1,4,,,,StimulusPr,Pictures\black.bmp,NonCuedStim3,Left
POP_2,27008,1,"<?xml version=""1.0""?>\n<Clock xmlns:dt=""urn:schemas-microsoft-com:datatypes""><Description dt:dt=""string"">E-Prime Primary Realtime Clock</Description><StartTime><Timestamp dt:dt=""int"">0</Timestamp><DateUtc dt:dt=""string"">2014-04-29T21:18:07Z</DateUtc></StartTime><FrequencyChanges><FrequencyChange><Frequency dt:dt=""r8"">2793020000</Frequency><Timestamp dt:dt=""r8"">39858090287924</Timestamp><Current dt:dt=""r8"">0</Current><DateUtc dt:dt=""string"">2014-04-29T21:18:07Z</DateUtc></FrequencyChange></FrequencyChanges></Clock>\n",60.037,1,1326768520,0,,-999999,11,32593,t,36301,68894,4/29/2014,14:18:07,9:18:07 PM,1,Session1,SessionsList,,,,,,,,,,1,1,1,1,,,,,,,,1,1,1,NonCued3,MiniBlocks2,,,68925,,5,1,b,-999999,10,150917,b,555,151472,Green,Congruent,b,White,0,,0,14,146903,,0,0,,,,,,,,,,,,,Pictures\white.bmp,3000,2000,Pictures\black.bmp,,,,,,,5,1,5,,,,StimulusPr,Pictures\GreenRight.bmp,NonCuedStim3,Right
POP_2,27008,1,"<?xml version=""1.0""?>\n<Clock xmlns:dt=""urn:schemas-microsoft-com:datatypes""><Description dt:dt=""string"">E-Prime Primary Realtime Clock</Description><StartTime><Timestamp dt:dt=""int"">0</Timestamp><DateUtc dt:dt=""string"">2014-04-29T21:18:07Z</DateUtc></StartTime><FrequencyChanges><FrequencyChange><Frequency dt:dt=""r8"">2793020000</Frequency><Timestamp dt:dt=""r8"">39858090287924</Timestamp><Current dt:dt=""r8"">0</Current><DateUtc dt:dt=""string"">2014-04-29T21:18:07Z</DateUtc></FrequencyChange></FrequencyChanges></Clock>\n",60.037,1,1326768520,0,,-999999,11,32593,t,36301,68894,4/29/2014,14:18:07,9:18:07 PM,1,Session1,SessionsList,,,,,,,,,,1,1,1,1,,,,,,,,1,1,1,NonCued3,MiniBlocks2,,,68925,,6,1,r,-999999,6,158913,r,463,159376,Green,Congruent,r,White,0,,0,8,154915,,0,0,,,,,,,,,,,,,Pictures\white.bmp,3000,2000,Pictures\GreenLeft.bmp,,,,,,,6,1,6,,,,StimulusPr,Pictures\black.bmp,NonCuedStim3,Left
POP_2,27008,1,"<?xml version=""1.0""?>\n<Clock xmlns:dt=""urn:schemas-microsoft-com:datatypes""><Description dt:dt=""string"">E-Prime Primary Realtime Clock</Description><StartTime><Timestamp dt:dt=""int"">0</Timestamp><DateUtc dt:dt=""string"">2014-04-29T21:18:07Z</DateUtc></StartTime><FrequencyChanges><FrequencyChange><Frequency dt:dt=""r8"">2793020000</Frequency><Timestamp dt:dt=""r8"">39858090287924</Timestamp><Current dt:dt=""r8"">0</Current><DateUtc dt:dt=""string"">2014-04-29T21:18:07Z</DateUtc></FrequencyChange></FrequencyChanges></Clock>\n",60.037,1,1326768520,0,,-999999,11,32593,t,36301,68894,4/29/2014,14:18:07,9:18:07 PM,1,Session1,SessionsList,,,,,,,,,,1,1,1,1,,,,,,,,1,1,1,NonCued3,MiniBlocks2,,,68925,,7,1,b,-999999,17,169924,b,342,170266,Green,Congruent,b,White,0,,0,3,162911,,0,0,,,,,,,,,,,,,Pictures\white.bmp,6000,16000,Pictures\black.bmp,,,,,,,7,1,7,,,,StimulusPr,Pictures\GreenRight.bmp,NonCuedStim3,Right
POP_2,27008,1,"<?xml version=""1.0""?>\n<Clock xmlns:dt=""urn:schemas-microsoft-com:datatypes""><Description dt:dt=""string"">E-Prime Primary Realtime Clock</Description><StartTime><Timestamp dt:dt=""int"">0</Timestamp><DateUtc dt:dt=""string"">2014-04-29T21:18:07Z</DateUtc></StartTime><FrequencyChanges><FrequencyChange><Frequency dt:dt=""r8"">2793020000</Frequency><Timestamp dt:dt=""r8"">39858090287924</Timestamp><Current dt:dt=""r8"">0</Current><DateUtc dt:dt=""string"">2014-04-29T21:18:07Z</DateUtc></FrequencyChange></FrequencyChanges></Clock>\n",60.037,1,1326768520,0,,-999999,11,32593,t,36301,68894,4/29/2014,14:18:07,9:18:07 PM,1,Session1,SessionsList,,,,,,,,,,1,1,1,1,,,,,,,,1,1,1,NonCued3,MiniBlocks2,,,68925,,8,1,r,-999999,8,191914,r,574,192488,Red,Incongruent,r,White,0,,0,8,187916,,0,0,,,,,,,,,,,,,Pictures\white.bmp,3000,2000,Pictures\black.bmp,,,,,,,8,1,8,,,,StimulusPr,Pictures\RedRight.bmp,NonCuedStim3,Right
POP_2,27008,1,"<?xml version=""1.0""?>\n<Clock xmlns:dt=""urn:schemas-microsoft-com:datatypes""><Description dt:dt=""string"">E-Prime Primary Realtime Clock</Description><StartTime><Timestamp dt:dt=""int"">0</Timestamp><DateUtc dt:dt=""string"">2014-04-29T21:18:07Z</DateUtc></StartTime><FrequencyChanges><FrequencyChange><Frequency dt:dt=""r8"">2793020000</Frequency><Timestamp dt:dt=""r8"">39858090287924</Timestamp><Current dt:dt=""r8"">0</Current><DateUtc dt:dt=""string"">2014-04-29T21:18:07Z</DateUtc></FrequencyChange></FrequencyChanges></Clock>\n",60.037,1,1326768520,0,,-999999,11,32593,t,36301,68894,4/29/2014,14:18:07,9:18:07 PM,1,Session1,SessionsList,,,,,,,,,,1,1,1,1,,,,,,,,1,1,1,NonCued3,MiniBlocks2,,,68925,,9,1,r,-999999,16,205907,r,378,206285,Green,Congruent,r,White,0,,0,4,195895,,0,0,,,,,,,,,,,,,Pictures\white.bmp,9000,10000,Pictures\GreenLeft.bmp,,,,,,,9,1,9,,,,StimulusPr,Pictures\black.bmp,NonCuedStim3,Left
POP_2,27008,1,"<?xml version=""1.0""?>\n<Clock xmlns:dt=""urn:schemas-microsoft-com:datatypes""><Description dt:dt=""string"">E-Prime Primary Realtime Clock</Description><StartTime><Timestamp dt:dt=""int"">0</Timestamp><DateUtc dt:dt=""string"">2014-04-29T21:18:07Z</DateUtc></StartTime><FrequencyChanges><FrequencyChange><Frequency dt:dt=""r8"">2793020000</Frequency><Timestamp dt:dt=""r8"">39858090287924</Timestamp><Current dt:dt=""r8"">0</Current><DateUtc dt:dt=""string"">2014-04-29T21:18:07Z</DateUtc></FrequencyChange></FrequencyChanges></Clock>\n",60.037,1,1326768520,0,,-999999,11,32593,t,36301,68894,4/29/2014,14:18:07,9:18:07 PM,1,Session1,SessionsList,,,,,,,,,,1,1,1,1,,,,,,,,1,1,1,NonCued3,MiniBlocks2,,,68925,,10,1,r,-999999,6,224914,r,449,225363,Green,Congruent,r,White,0,,0,6,217901,,0,0,,,,,,,,,,,,,Pictures\white.bmp,6000,4000,Pictures\GreenLeft.bmp,,,,,,,10,1,10,,,,StimulusPr,Pictures\black.bmp,NonCuedStim3,Left
POP_2,27008,1,"<?xml version=""1.0""?>\n<Clock xmlns:dt=""urn:schemas-microsoft-com:datatypes""><Description dt:dt=""string"">E-Prime Primary Realtime Clock</Description><StartTime><Timestamp dt:dt=""int"">0</Timestamp><DateUtc dt:dt=""string"">2014-04-29T21:18:07Z</DateUtc></StartTime><FrequencyChanges><FrequencyChange><Frequency dt:dt=""r8"">2793020000</Frequency><Timestamp dt:dt=""r8"">39858090287924</Timestamp><Current dt:dt=""r8"">0</Current><DateUtc dt:dt=""string"">2014-04-29T21:18:07Z</DateUtc></FrequencyChange></FrequencyChanges></Clock>\n",60.037,1,1326768520,0,,-999999,11,32593,t,36301,68894,4/29/2014,14:18:07,9:18:07 PM,1,Session1,SessionsList,,,,,,,,,,1,1,1,2,,,229378,,,,,2,1,2,Cued3,MiniBlocks2,,,,,1,1,b,-999999,64,242972,b,344,243316,White,Congruent,b,Green,0,,0,67,238957,,0,0,,,,,,,1,1,1,,,,Pictures\green.bmp,3000,2000,Pictures\black.bmp,,,,,,,,,,,,,StimulusPr,Pictures\right.bmp,CuedStim3,Right
POP_2,27008,1,"<?xml version=""1.0""?>\n<Clock xmlns:dt=""urn:schemas-microsoft-com:datatypes""><Description dt:dt=""string"">E-Prime Primary Realtime Clock</Description><StartTime><Timestamp dt:dt=""int"">0</Timestamp><DateUtc dt:dt=""string"">2014-04-29T21:18:07Z</DateUtc></StartTime><FrequencyChanges><FrequencyChange><Frequency dt:dt=""r8"">2793020000</Frequency><Timestamp dt:dt=""r8"">39858090287924</Timestamp><Current dt:dt=""r8"">0</Current><DateUtc dt:dt=""string"">2014-04-29T21:18:07Z</DateUtc></FrequencyChange></FrequencyChanges></Clock>\n",60.037,1,1326768520,0,,-999999,11,32593,t,36301,68894,4/29/2014,14:18:07,9:18:07 PM,1,Session1,SessionsList,,,,,,,,,,1,1,1,2,,,229378,,,,,2,1,2,Cued3,MiniBlocks2,,,,,2,1,b,-999999,7,250901,b,353,251254,White,Congruent,b,Green,0,,0,12,246920,,0,0,,,,,,,2,1,2,,,,Pictures\green.bmp,3000,10000,Pictures\black.bmp,,,,,,,,,,,,,StimulusPr,Pictures\right.bmp,CuedStim3,Right
POP_2,27008,1,"<?xml version=""1.0""?>\n<Clock xmlns:dt=""urn:schemas-microsoft-com:datatypes""><Description dt:dt=""string"">E-Prime Primary Realtime Clock</Description><StartTime><Timestamp dt:dt=""int"">0</Timestamp><DateUtc dt:dt=""string"">2014-04-29T21:18:07Z</DateUtc></StartTime><FrequencyChanges><FrequencyChange><Frequency dt:dt=""r8"">2793020000</Frequency><Timestamp dt:dt=""r8"">39858090287924</Timestamp><Current dt:dt=""r8"">0</Current><DateUtc dt:dt=""string"">2014-04-29T21:18:07Z</DateUtc></FrequencyChange></FrequencyChanges></Clock>\n",60.037,1,1326768520,0,,-999999,11,32593,t,36301,68894,4/29/2014,14:18:07,9:18:07 PM,1,Session1,SessionsList,,,,,,,,,,1,1,1,2,,,229378,,,,,2,1,2,Cued3,MiniBlocks2,,,,,3,1,r,-999999,49,272957,r,312,273269,White,Congruent,r,Green,0,,0,4,262912,,0,0,,,,,,,3,1,3,,,,Pictures\green.bmp,9000,2000,Pictures\left.bmp,,,,,,,,,,,,,StimulusPr,Pictures\black.bmp,CuedStim3,Left
POP_2,27008,1,"<?xml version=""1.0""?>\n<Clock xmlns:dt=""urn:schemas-microsoft-com:datatypes""><Description dt:dt=""string"">E-Prime Primary Realtime Clock</Description><StartTime><Timestamp dt:dt=""int"">0</Timestamp><DateUtc dt:dt=""string"">2014-04-29T21:18:07Z</DateUtc></StartTime><FrequencyChanges><FrequencyChange><Frequency dt:dt=""r8"">2793020000</Frequency><Timestamp dt:dt=""r8"">39858090287924</Timestamp><Current dt:dt=""r8"">0</Current><DateUtc dt:dt=""string"">2014-04-29T21:18:07Z</DateUtc></FrequencyChange></FrequencyChanges></Clock>\n",60.037,1,1326768520,0,,-999999,11,32593,t,36301,68894,4/29/2014,14:18:07,9:18:07 PM,1,Session1,SessionsList,,,,,,,,,,1,1,1,2,,,229378,,,,,2,1,2,Cued3,MiniBlocks2,,,,,4,1,r,-999999,10,281919,r,319,282238,White,Congruent,r,Green,0,,0,11,276905,,0,0,,,,,,,4,1,4,,,,Pictures\green.bmp,4000,16000,Pictures\left.bmp,,,,,,,,,,,,,StimulusPr,Pictures\black.bmp,CuedStim3,Left
POP_2,27008,1,"<?xml version=""1.0""?>\n<Clock xmlns:dt=""urn:schemas-microsoft-com:datatypes""><Description dt:dt=""string"">E-Prime Primary Realtime Clock</Description><StartTime><Timestamp dt:dt=""int"">0</Timestamp><DateUtc dt:dt=""string"">2014-04-29T21:18:07Z</DateUtc></StartTime><FrequencyChanges><FrequencyChange><Frequency dt:dt=""r8"">2793020000</Frequency><Timestamp dt:dt=""r8"">39858090287924</Timestamp><Current dt:dt=""r8"">0</Current><DateUtc dt:dt=""string"">2014-04-29T21:18:07Z</DateUtc></FrequencyChange></FrequencyChanges></Clock>\n",60.037,1,1326768520,0,,-999999,11,32593,t,36301,68894,4/29/2014,14:18:07,9:18:07 PM,1,Session1,SessionsList,,,,,,,,,,1,1,1,2,,,229378,,,,,2,1,2,Cued3,MiniBlocks2,,,,,5,1,r,-999999,17,303925,r,391,304316,White,Incongruent,r,Red,0,,0,53,299961,,0,0,,,,,,,5,1,5,,,,Pictures\red.bmp,3000,4000,Pictures\black.bmp,,,,,,,,,,,,,StimulusPr,Pictures\right.bmp,CuedStim3,Right
POP_2,27008,1,"<?xml version=""1.0""?>\n<Clock xmlns:dt=""urn:schemas-microsoft-com:datatypes""><Description dt:dt=""string"">E-Prime Primary Realtime Clock</Description><StartTime><Timestamp dt:dt=""int"">0</Timestamp><DateUtc dt:dt=""string"">2014-04-29T21:18:07Z</DateUtc></StartTime><FrequencyChanges><FrequencyChange><Frequency dt:dt=""r8"">2793020000</Frequency><Timestamp dt:dt=""r8"">39858090287924</Timestamp><Current dt:dt=""r8"">0</Current><DateUtc dt:dt=""string"">2014-04-29T21:18:07Z</DateUtc></FrequencyChange></FrequencyChanges></Clock>\n",60.037,1,1326768520,0,,-999999,11,32593,t,36301,68894,4/29/2014,14:18:07,9:18:07 PM,1,Session1,SessionsList,,,,,,,,,,1,1,1,2,,,229378,,,,,2,1,2,Cued3,MiniBlocks2,,,,,6,1,b,-999999,10,316918,b,320,317238,White,Congruent,b,Green,0,,0,14,309922,,0,0,,,,,,,6,1,6,,,,Pictures\green.bmp,6000,4000,Pictures\black.bmp,,,,,,,,,,,,,StimulusPr,Pictures\right.bmp,CuedStim3,Right
POP_2,27008,1,"<?xml version=""1.0""?>\n<Clock xmlns:dt=""urn:schemas-microsoft-com:datatypes""><Description dt:dt=""string"">E-Prime Primary Realtime Clock</Description><StartTime><Timestamp dt:dt=""int"">0</Timestamp><DateUtc dt:dt=""string"">2014-04-29T21:18:07Z</DateUtc></StartTime><FrequencyChanges><FrequencyChange><Frequency dt:dt=""r8"">2793020000</Frequency><Timestamp dt:dt=""r8"">39858090287924</Timestamp><Current dt:dt=""r8"">0</Current><DateUtc dt:dt=""string"">2014-04-29T21:18:07Z</DateUtc></FrequencyChange></FrequencyChanges></Clock>\n",60.037,1,1326768520,0,,-999999,11,32593,t,36301,68894,4/29/2014,14:18:07,9:18:07 PM,1,Session1,SessionsList,,,,,,,,,,1,1,1,2,,,229378,,,,,2,1,2,Cued3,MiniBlocks2,,,,,7,1,r,-999999,5,327913,r,325,328238,White,Congruent,r,Green,0,,0,4,322899,,0,0,,,,,,,7,1,7,,,,Pictures\green.bmp,4000,16000,Pictures\left.bmp,,,,,,,,,,,,,StimulusPr,Pictures\black.bmp,CuedStim3,Left
POP_2,27008,1,"<?xml version=""1.0""?>\n<Clock xmlns:dt=""urn:schemas-microsoft-com:datatypes""><Description dt:dt=""string"">E-Prime Primary Realtime Clock</Description><StartTime><Timestamp dt:dt=""int"">0</Timestamp><DateUtc dt:dt=""string"">2014-04-29T21:18:07Z</DateUtc></StartTime><FrequencyChanges><FrequencyChange><Frequency dt:dt=""r8"">2793020000</Frequency><Timestamp dt:dt=""r8"">39858090287924</Timestamp><Current dt:dt=""r8"">0</Current><DateUtc dt:dt=""string"">2014-04-29T21:18:07Z</DateUtc></FrequencyChange></FrequencyChanges></Clock>\n",60.037,1,1326768520,0,,-999999,11,32593,t,36301,68894,4/29/2014,14:18:07,9:18:07 PM,1,Session1,SessionsList,,,,,,,,,,1,1,1,2,,,229378,,,,,2,1,2,Cued3,MiniBlocks2,,,,,8,0,b,-999999,10,349919,r,569,350488,White,Incongruent,b,Red,0,,0,9,345904,,0,0,,,,,,,8,1,8,,,,Pictures\red.bmp,3000,2000,Pictures\left.bmp,,,,,,,,,,,,,StimulusPr,Pictures\black.bmp,CuedStim3,Left
POP_2,27008,1,"<?xml version=""1.0""?>\n<Clock xmlns:dt=""urn:schemas-microsoft-com:datatypes""><Description dt:dt=""string"">E-Prime Primary Realtime Clock</Description><StartTime><Timestamp dt:dt=""int"">0</Timestamp><DateUtc dt:dt=""string"">2014-04-29T21:18:07Z</DateUtc></StartTime><FrequencyChanges><FrequencyChange><Frequency dt:dt=""r8"">2793020000</Frequency><Timestamp dt:dt=""r8"">39858090287924</Timestamp><Current dt:dt=""r8"">0</Current><DateUtc dt:dt=""string"">2014-04-29T21:18:07Z</DateUtc></FrequencyChange></FrequencyChanges></Clock>\n",60.037,1,1326768520,0,,-999999,11,32593,t,36301,68894,4/29/2014,14:18:07,9:18:07 PM,1,Session1,SessionsList,,,,,,,,,,1,1,1,2,,,229378,,,,,2,1,2,Cued3,MiniBlocks2,,,,,9,1,r,-999999,6,357915,r,323,358238,White,Congruent,r,Green,0,,0,5,353900,,0,0,,,,,,,9,1,9,,,,Pictures\green.bmp,3000,2000,Pictures\left.bmp,,,,,,,,,,,,,StimulusPr,Pictures\black.bmp,CuedStim3,Left
POP_2,27008,1,"<?xml version=""1.0""?>\n<Clock xmlns:dt=""urn:schemas-microsoft-com:datatypes""><Description dt:dt=""string"">E-Prime Primary Realtime Clock</Description><StartTime><Timestamp dt:dt=""int"">0</Timestamp><DateUtc dt:dt=""string"">2014-04-29T21:18:07Z</DateUtc></StartTime><FrequencyChanges><FrequencyChange><Frequency dt:dt=""r8"">2793020000</Frequency><Timestamp dt:dt=""r8"">39858090287924</Timestamp><Current dt:dt=""r8"">0</Current><DateUtc dt:dt=""string"">2014-04-29T21:18:07Z</DateUtc></FrequencyChange></FrequencyChanges></Clock>\n",60.037,1,1326768520,0,,-999999,11,32593,t,36301,68894,4/29/2014,14:18:07,9:18:07 PM,1,Session1,SessionsList,,,,,,,,,,1,1,1,2,,,229378,,,,,2,1,2,Cued3,MiniBlocks2,,,,,10,1,b,-999999,16,371908,b,362,372270,White,Congruent,b,Green,0,,0,4,361913,,0,0,,,,,,,10,1,10,,,,Pictures\green.bmp,9000,10000,Pictures\black.bmp,,,,,,,,,,,,,StimulusPr,Pictures\right.bmp,CuedStim3,Right
POP_2,27008,1,"<?xml version=""1.0""?>\n<Clock xmlns:dt=""urn:schemas-microsoft-com:datatypes""><Description dt:dt=""string"">E-Prime Primary Realtime Clock</Description><StartTime><Timestamp dt:dt=""int"">0</Timestamp><DateUtc dt:dt=""string"">2014-04-29T21:18:07Z</DateUtc></StartTime><FrequencyChanges><FrequencyChange><Frequency dt:dt=""r8"">2793020000</Frequency><Timestamp dt:dt=""r8"">39858090287924</Timestamp><Current dt:dt=""r8"">0</Current><DateUtc dt:dt=""string"">2014-04-29T21:18:07Z</DateUtc></FrequencyChange></FrequencyChanges></Clock>\n",60.037,1,1326768520,0,,-999999,11,32593,t,36301,68894,4/29/2014,14:18:07,9:18:07 PM,1,Session1,SessionsList,,,,,,,,,,1,1,1,3,,,,382286,,,,3,1,3,Cued4,MiniBlocks2,,,,,1,1,b,-999999,3,398911,b,406,399317,White,Congruent,b,Green,0,,0,12,391914,,0,0,,,,,,,,,,1,1,1,Pictures\green.bmp,6000,2000,Pictures\black.bmp,,,,,,,,,,,,,StimulusPr,Pictures\right.bmp,CuedStim4,Right
POP_2,27008,1,"<?xml version=""1.0""?>\n<Clock xmlns:dt=""urn:schemas-microsoft-com:datatypes""><Description dt:dt=""string"">E-Prime Primary Realtime Clock</Description><StartTime><Timestamp dt:dt=""int"">0</Timestamp><DateUtc dt:dt=""string"">2014-04-29T21:18:07Z</DateUtc></StartTime><FrequencyChanges><FrequencyChange><Frequency dt:dt=""r8"">2793020000</Frequency><Timestamp dt:dt=""r8"">39858090287924</Timestamp><Current dt:dt=""r8"">0</Current><DateUtc dt:dt=""string"">2014-04-29T21:18:07Z</DateUtc></FrequencyChange></FrequencyChanges></Clock>\n",60.037,1,1326768520,0,,-999999,11,32593,t,36301,68894,4/29/2014,14:18:07,9:18:07 PM,1,Session1,SessionsList,,,,,,,,,,1,1,1,3,,,,382286,,,,3,1,3,Cued4,MiniBlocks2,,,,,2,1,r,-999999,9,412904,r,444,413348,White,Incongruent,r,Red,0,,0,17,402909,,0,0,,,,,,,,,,2,1,2,Pictures\red.bmp,9000,2000,Pictures\black.bmp,,,,,,,,,,,,,StimulusPr,Pictures\right.bmp,CuedStim4,Right
POP_2,27008,1,"<?xml version=""1.0""?>\n<Clock xmlns:dt=""urn:schemas-microsoft-com:datatypes""><Description dt:dt=""string"">E-Prime Primary Realtime Clock</Description><StartTime><Timestamp dt:dt=""int"">0</Timestamp><DateUtc dt:dt=""string"">2014-04-29T21:18:07Z</DateUtc></StartTime><FrequencyChanges><FrequencyChange><Frequency dt:dt=""r8"">2793020000</Frequency><Timestamp dt:dt=""r8"">39858090287924</Timestamp><Current dt:dt=""r8"">0</Current><DateUtc dt:dt=""string"">2014-04-29T21:18:07Z</DateUtc></FrequencyChange></FrequencyChanges></Clock>\n",60.037,1,1326768520,0,,-999999,11,32593,t,36301,68894,4/29/2014,14:18:07,9:18:07 PM,1,Session1,SessionsList,,,,,,,,,,1,1,1,3,,,,382286,,,,3,1,3,Cued4,MiniBlocks2,,,,,3,1,b,-999999,5,420900,b,386,421286,White,Congruent,b,Green,0,,0,12,416902,,0,0,,,,,,,,,,3,1,3,Pictures\green.bmp,3000,4000,Pictures\black.bmp,,,,,,,,,,,,,StimulusPr,Pictures\right.bmp,CuedStim4,Right
POP_2,27008,1,"<?xml version=""1.0""?>\n<Clock xmlns:dt=""urn:schemas-microsoft-com:datatypes""><Description dt:dt=""string"">E-Prime Primary Realtime Clock</Description><StartTime><Timestamp dt:dt=""int"">0</Timestamp><DateUtc dt:dt=""string"">2014-04-29T21:18:07Z</DateUtc></StartTime><FrequencyChanges><FrequencyChange><Frequency dt:dt=""r8"">2793020000</Frequency><Timestamp dt:dt=""r8"">39858090287924</Timestamp><Current dt:dt=""r8"">0</Current><DateUtc dt:dt=""string"">2014-04-29T21:18:07Z</DateUtc></FrequencyChange></FrequencyChanges></Clock>\n",60.037,1,1326768520,0,,-999999,11,32593,t,36301,68894,4/29/2014,14:18:07,9:18:07 PM,1,Session1,SessionsList,,,,,,,,,,1,1,1,3,,,,382286,,,,3,1,3,Cued4,MiniBlocks2,,,,,4,1,r,-999999,3,430912,r,431,431343,White,Congruent,r,Green,0,,0,6,426897,,0,0,,,,,,,,,,4,1,4,Pictures\green.bmp,3000,4000,Pictures\left.bmp,,,,,,,,,,,,,StimulusPr,Pictures\black.bmp,CuedStim4,Left
POP_2,27008,1,"<?xml version=""1.0""?>\n<Clock xmlns:dt=""urn:schemas-microsoft-com:datatypes""><Description dt:dt=""string"">E-Prime Primary Realtime Clock</Description><StartTime><Timestamp dt:dt=""int"">0</Timestamp><DateUtc dt:dt=""string"">2014-04-29T21:18:07Z</DateUtc></StartTime><FrequencyChanges><FrequencyChange><Frequency dt:dt=""r8"">2793020000</Frequency><Timestamp dt:dt=""r8"">39858090287924</Timestamp><Current dt:dt=""r8"">0</Current><DateUtc dt:dt=""string"">2014-04-29T21:18:07Z</DateUtc></FrequencyChange></FrequencyChanges></Clock>\n",60.037,1,1326768520,0,,-999999,11,32593,t,36301,68894,4/29/2014,14:18:07,9:18:07 PM,1,Session1,SessionsList,,,,,,,,,,1,1,1,3,,,,382286,,,,3,1,3,Cued4,MiniBlocks2,,,,,5,1,b,-999999,14,441923,b,539,442462,White,Incongruent,b,Red,0,,0,14,436909,,0,0,,,,,,,,,,5,1,5,Pictures\red.bmp,4000,16000,Pictures\left.bmp,,,,,,,,,,,,,StimulusPr,Pictures\black.bmp,CuedStim4,Left
POP_2,27008,1,"<?xml version=""1.0""?>\n<Clock xmlns:dt=""urn:schemas-microsoft-com:datatypes""><Description dt:dt=""string"">E-Prime Primary Realtime Clock</Description><StartTime><Timestamp dt:dt=""int"">0</Timestamp><DateUtc dt:dt=""string"">2014-04-29T21:18:07Z</DateUtc></StartTime><FrequencyChanges><FrequencyChange><Frequency dt:dt=""r8"">2793020000</Frequency><Timestamp dt:dt=""r8"">39858090287924</Timestamp><Current dt:dt=""r8"">0</Current><DateUtc dt:dt=""string"">2014-04-29T21:18:07Z</DateUtc></FrequencyChange></FrequencyChanges></Clock>\n",60.037,1,1326768520,0,,-999999,11,32593,t,36301,68894,4/29/2014,14:18:07,9:18:07 PM,1,Session1,SessionsList,,,,,,,,,,1,1,1,3,,,,382286,,,,3,1,3,Cued4,MiniBlocks2,,,,,6,1,b,-999999,3,463912,b,905,464817,White,Congruent,b,Green,0,,0,5,459914,,0,0,,,,,,,,,,6,1,6,Pictures\green.bmp,3000,2000,Pictures\black.bmp,,,,,,,,,,,,,StimulusPr,Pictures\right.bmp,CuedStim4,Right
POP_2,27008,1,"<?xml version=""1.0""?>\n<Clock xmlns:dt=""urn:schemas-microsoft-com:datatypes""><Description dt:dt=""string"">E-Prime Primary Realtime Clock</Description><StartTime><Timestamp dt:dt=""int"">0</Timestamp><DateUtc dt:dt=""string"">2014-04-29T21:18:07Z</DateUtc></StartTime><FrequencyChanges><FrequencyChange><Frequency dt:dt=""r8"">2793020000</Frequency><Timestamp dt:dt=""r8"">39858090287924</Timestamp><Current dt:dt=""r8"">0</Current><DateUtc dt:dt=""string"">2014-04-29T21:18:07Z</DateUtc></FrequencyChange></FrequencyChanges></Clock>\n",60.037,1,1326768520,0,,-999999,11,32593,t,36301,68894,4/29/2014,14:18:07,9:18:07 PM,1,Session1,SessionsList,,,,,,,,,,1,1,1,3,,,,382286,,,,3,1,3,Cued4,MiniBlocks2,,,,,7,1,b,-999999,11,477905,b,365,478270,White,Congruent,b,Green,0,,0,18,467927,,0,0,,,,,,,,,,7,1,7,Pictures\green.bmp,9000,10000,Pictures\black.bmp,,,,,,,,,,,,,StimulusPr,Pictures\right.bmp,CuedStim4,Right
POP_2,27008,1,"<?xml version=""1.0""?>\n<Clock xmlns:dt=""urn:schemas-microsoft-com:datatypes""><Description dt:dt=""string"">E-Prime Primary Realtime Clock</Description><StartTime><Timestamp dt:dt=""int"">0</Timestamp><DateUtc dt:dt=""string"">2014-04-29T21:18:07Z</DateUtc></StartTime><FrequencyChanges><FrequencyChange><Frequency dt:dt=""r8"">2793020000</Frequency><Timestamp dt:dt=""r8"">39858090287924</Timestamp><Current dt:dt=""r8"">0</Current><DateUtc dt:dt=""string"">2014-04-29T21:18:07Z</DateUtc></FrequencyChange></FrequencyChanges></Clock>\n",60.037,1,1326768520,0,,-999999,11,32593,t,36301,68894,4/29/2014,14:18:07,9:18:07 PM,1,Session1,SessionsList,,,,,,,,,,1,1,1,3,,,,382286,,,,3,1,3,Cued4,MiniBlocks2,,,,,8,1,b,-999999,3,496912,b,455,497367,White,Incongruent,b,Red,0,,0,7,489916,,0,0,,,,,,,,,,8,1,8,Pictures\red.bmp,6000,10000,Pictures\left.bmp,,,,,,,,,,,,,StimulusPr,Pictures\black.bmp,CuedStim4,Left
POP_2,27008,1,"<?xml version=""1.0""?>\n<Clock xmlns:dt=""urn:schemas-microsoft-com:datatypes""><Description dt:dt=""string"">E-Prime Primary Realtime Clock</Description><StartTime><Timestamp dt:dt=""int"">0</Timestamp><DateUtc dt:dt=""string"">2014-04-29T21:18:07Z</DateUtc></StartTime><FrequencyChanges><FrequencyChange><Frequency dt:dt=""r8"">2793020000</Frequency><Timestamp dt:dt=""r8"">39858090287924</Timestamp><Current dt:dt=""r8"">0</Current><DateUtc dt:dt=""string"">2014-04-29T21:18:07Z</DateUtc></FrequencyChange></FrequencyChanges></Clock>\n",60.037,1,1326768520,0,,-999999,11,32593,t,36301,68894,4/29/2014,14:18:07,9:18:07 PM,1,Session1,SessionsList,,,,,,,,,,1,1,1,3,,,,382286,,,,3,1,3,Cued4,MiniBlocks2,,,,,9,1,r,-999999,18,515920,r,366,516286,White,Congruent,r,Green,0,,0,14,508923,,0,0,,,,,,,,,,9,1,9,Pictures\green.bmp,6000,16000,Pictures\left.bmp,,,,,,,,,,,,,StimulusPr,Pictures\black.bmp,CuedStim4,Left
POP_2,27008,1,"<?xml version=""1.0""?>\n<Clock xmlns:dt=""urn:schemas-microsoft-com:datatypes""><Description dt:dt=""string"">E-Prime Primary Realtime Clock</Description><StartTime><Timestamp dt:dt=""int"">0</Timestamp><DateUtc dt:dt=""string"">2014-04-29T21:18:07Z</DateUtc></StartTime><FrequencyChanges><FrequencyChange><Frequency dt:dt=""r8"">2793020000</Frequency><Timestamp dt:dt=""r8"">39858090287924</Timestamp><Current dt:dt=""r8"">0</Current><DateUtc dt:dt=""string"">2014-04-29T21:18:07Z</DateUtc></FrequencyChange></FrequencyChanges></Clock>\n",60.037,1,1326768520,0,,-999999,11,32593,t,36301,68894,4/29/2014,14:18:07,9:18:07 PM,1,Session1,SessionsList,,,,,,,,,,1,1,1,3,,,,382286,,,,3,1,3,Cued4,MiniBlocks2,,,,,10,1,r,-999999,16,538925,r,736,539661,White,Congruent,r,Green,0,,0,16,533911,,0,0,,,,,,,,,,10,1,10,Pictures\green.bmp,4000,2000,Pictures\left.bmp,,,,,,,,,,,,,StimulusPr,Pictures\black.bmp,CuedStim4,Left
POP_2,27008,1,"<?xml version=""1.0""?>\n<Clock xmlns:dt=""urn:schemas-microsoft-com:datatypes""><Description dt:dt=""string"">E-Prime Primary Realtime Clock</Description><StartTime><Timestamp dt:dt=""int"">0</Timestamp><DateUtc dt:dt=""string"">2014-04-29T21:18:07Z</DateUtc></StartTime><FrequencyChanges><FrequencyChange><Frequency dt:dt=""r8"">2793020000</Frequency><Timestamp dt:dt=""r8"">39858090287924</Timestamp><Current dt:dt=""r8"">0</Current><DateUtc dt:dt=""string"">2014-04-29T21:18:07Z</DateUtc></FrequencyChange></FrequencyChanges></Clock>\n",60.037,1,1326768520,0,,-999999,11,32593,t,36301,68894,4/29/2014,14:18:07,9:18:07 PM,1,Session1,SessionsList,,,,,,,,,,1,1,1,4,,,,,,,,4,1,4,NonCued4,MiniBlocks2,,,,541690,1,1,r,-999999,7,555916,r,370,556286,Green,Congruent,r,White,0,,0,8,551918,,0,0,,,,,,,,,,,,,Pictures\white.bmp,3000,2000,Pictures\GreenLeft.bmp,,,,,,,,,,1,1,1,StimulusPr,Pictures\black.bmp,NonCuedStim4,Left
POP_2,27008,1,"<?xml version=""1.0""?>\n<Clock xmlns:dt=""urn:schemas-microsoft-com:datatypes""><Description dt:dt=""string"">E-Prime Primary Realtime Clock</Description><StartTime><Timestamp dt:dt=""int"">0</Timestamp><DateUtc dt:dt=""string"">2014-04-29T21:18:07Z</DateUtc></StartTime><FrequencyChanges><FrequencyChange><Frequency dt:dt=""r8"">2793020000</Frequency><Timestamp dt:dt=""r8"">39858090287924</Timestamp><Current dt:dt=""r8"">0</Current><DateUtc dt:dt=""string"">2014-04-29T21:18:07Z</DateUtc></FrequencyChange></FrequencyChanges></Clock>\n",60.037,1,1326768520,0,,-999999,11,32593,t,36301,68894,4/29/2014,14:18:07,9:18:07 PM,1,Session1,SessionsList,,,,,,,,,,1,1,1,4,,,,,,,,4,1,4,NonCued4,MiniBlocks2,,,,541690,2,1,r,-999999,3,564912,r,467,565379,Green,Congruent,r,White,0,,0,5,559914,,0,0,,,,,,,,,,,,,Pictures\white.bmp,4000,2000,Pictures\GreenLeft.bmp,,,,,,,,,,2,1,2,StimulusPr,Pictures\black.bmp,NonCuedStim4,Left
POP_2,27008,1,"<?xml version=""1.0""?>\n<Clock xmlns:dt=""urn:schemas-microsoft-com:datatypes""><Description dt:dt=""string"">E-Prime Primary Realtime Clock</Description><StartTime><Timestamp dt:dt=""int"">0</Timestamp><DateUtc dt:dt=""string"">2014-04-29T21:18:07Z</DateUtc></StartTime><FrequencyChanges><FrequencyChange><Frequency dt:dt=""r8"">2793020000</Frequency><Timestamp dt:dt=""r8"">39858090287924</Timestamp><Current dt:dt=""r8"">0</Current><DateUtc dt:dt=""string"">2014-04-29T21:18:07Z</DateUtc></FrequencyChange></FrequencyChanges></Clock>\n",60.037,1,1326768520,0,,-999999,11,32593,t,36301,68894,4/29/2014,14:18:07,9:18:07 PM,1,Session1,SessionsList,,,,,,,,,,1,1,1,4,,,,,,,,4,1,4,NonCued4,MiniBlocks2,,,,541690,3,1,r,-999999,15,573924,r,612,574536,Red,Incongruent,r,White,0,,0,18,568927,,0,0,,,,,,,,,,,,,Pictures\white.bmp,4000,2000,Pictures\black.bmp,,,,,,,,,,3,1,3,StimulusPr,Pictures\RedRight.bmp,NonCuedStim4,Right
POP_2,27008,1,"<?xml version=""1.0""?>\n<Clock xmlns:dt=""urn:schemas-microsoft-com:datatypes""><Description dt:dt=""string"">E-Prime Primary Realtime Clock</Description><StartTime><Timestamp dt:dt=""int"">0</Timestamp><DateUtc dt:dt=""string"">2014-04-29T21:18:07Z</DateUtc></StartTime><FrequencyChanges><FrequencyChange><Frequency dt:dt=""r8"">2793020000</Frequency><Timestamp dt:dt=""r8"">39858090287924</Timestamp><Current dt:dt=""r8"">0</Current><DateUtc dt:dt=""string"">2014-04-29T21:18:07Z</DateUtc></FrequencyChange></FrequencyChanges></Clock>\n",60.037,1,1326768520,0,,-999999,11,32593,t,36301,68894,4/29/2014,14:18:07,9:18:07 PM,1,Session1,SessionsList,,,,,,,,,,1,1,1,4,,,,,,,,4,1,4,NonCued4,MiniBlocks2,,,,541690,4,1,b,-999999,12,581904,b,616,582520,Green,Congruent,b,White,0,,0,3,577906,,0,0,,,,,,,,,,,,,Pictures\white.bmp,3000,16000,Pictures\black.bmp,,,,,,,,,,4,1,4,StimulusPr,Pictures\GreenRight.bmp,NonCuedStim4,Right
POP_2,27008,1,"<?xml version=""1.0""?>\n<Clock xmlns:dt=""urn:schemas-microsoft-com:datatypes""><Description dt:dt=""string"">E-Prime Primary Realtime Clock</Description><StartTime><Timestamp dt:dt=""int"">0</Timestamp><DateUtc dt:dt=""string"">2014-04-29T21:18:07Z</DateUtc></StartTime><FrequencyChanges><FrequencyChange><Frequency dt:dt=""r8"">2793020000</Frequency><Timestamp dt:dt=""r8"">39858090287924</Timestamp><Current dt:dt=""r8"">0</Current><DateUtc dt:dt=""string"">2014-04-29T21:18:07Z</DateUtc></FrequencyChange></FrequencyChanges></Clock>\n",60.037,1,1326768520,0,,-999999,11,32593,t,36301,68894,4/29/2014,14:18:07,9:18:07 PM,1,Session1,SessionsList,,,,,,,,,,1,1,1,4,,,,,,,,4,1,4,NonCued4,MiniBlocks2,,,,541690,5,1,r,-999999,13,609923,r,441,610364,Green,Congruent,r,White,0,,0,2,599911,,0,0,,,,,,,,,,,,,Pictures\white.bmp,9000,10000,Pictures\GreenLeft.bmp,,,,,,,,,,5,1,5,StimulusPr,Pictures\black.bmp,NonCuedStim4,Left
POP_2,27008,1,"<?xml version=""1.0""?>\n<Clock xmlns:dt=""urn:schemas-microsoft-com:datatypes""><Description dt:dt=""string"">E-Prime Primary Realtime Clock</Description><StartTime><Timestamp dt:dt=""int"">0</Timestamp><DateUtc dt:dt=""string"">2014-04-29T21:18:07Z</DateUtc></StartTime><FrequencyChanges><FrequencyChange><Frequency dt:dt=""r8"">2793020000</Frequency><Timestamp dt:dt=""r8"">39858090287924</Timestamp><Current dt:dt=""r8"">0</Current><DateUtc dt:dt=""string"">2014-04-29T21:18:07Z</DateUtc></FrequencyChange></FrequencyChanges></Clock>\n",60.037,1,1326768520,0,,-999999,11,32593,t,36301,68894,4/29/2014,14:18:07,9:18:07 PM,1,Session1,SessionsList,,,,,,,,,,1,1,1,4,,,,,,,,4,1,4,NonCued4,MiniBlocks2,,,,541690,6,1,b,-999999,5,625915,b,512,626427,Green,Congruent,b,White,0,,0,7,621917,,0,0,,,,,,,,,,,,,Pictures\white.bmp,3000,16000,Pictures\black.bmp,,,,,,,,,,6,1,6,StimulusPr,Pictures\GreenRight.bmp,NonCuedStim4,Right
POP_2,27008,1,"<?xml version=""1.0""?>\n<Clock xmlns:dt=""urn:schemas-microsoft-com:datatypes""><Description dt:dt=""string"">E-Prime Primary Realtime Clock</Description><StartTime><Timestamp dt:dt=""int"">0</Timestamp><DateUtc dt:dt=""string"">2014-04-29T21:18:07Z</DateUtc></StartTime><FrequencyChanges><FrequencyChange><Frequency dt:dt=""r8"">2793020000</Frequency><Timestamp dt:dt=""r8"">39858090287924</Timestamp><Current dt:dt=""r8"">0</Current><DateUtc dt:dt=""string"">2014-04-29T21:18:07Z</DateUtc></FrequencyChange></FrequencyChanges></Clock>\n",60.037,1,1326768520,0,,-999999,11,32593,t,36301,68894,4/29/2014,14:18:07,9:18:07 PM,1,Session1,SessionsList,,,,,,,,,,1,1,1,4,,,,,,,,4,1,4,NonCued4,MiniBlocks2,,,,541690,7,1,b,-999999,11,647921,b,584,648505,Red,Incongruent,b,White,0,,0,14,643906,,0,0,,,,,,,,,,,,,Pictures\white.bmp,3000,16000,Pictures\RedLeft.bmp,,,,,,,,,,7,1,7,StimulusPr,Pictures\black.bmp,NonCuedStim4,Left
POP_2,27008,1,"<?xml version=""1.0""?>\n<Clock xmlns:dt=""urn:schemas-microsoft-com:datatypes""><Description dt:dt=""string"">E-Prime Primary Realtime Clock</Description><StartTime><Timestamp dt:dt=""int"">0</Timestamp><DateUtc dt:dt=""string"">2014-04-29T21:18:07Z</DateUtc></StartTime><FrequencyChanges><FrequencyChange><Frequency dt:dt=""r8"">2793020000</Frequency><Timestamp dt:dt=""r8"">39858090287924</Timestamp><Current dt:dt=""r8"">0</Current><DateUtc dt:dt=""string"">2014-04-29T21:18:07Z</DateUtc></FrequencyChange></FrequencyChanges></Clock>\n",60.037,1,1326768520,0,,-999999,11,32593,t,36301,68894,4/29/2014,14:18:07,9:18:07 PM,1,Session1,SessionsList,,,,,,,,,,1,1,1,4,,,,,,,,4,1,4,NonCued4,MiniBlocks2,,,,541690,8,1,r,-999999,17,669927,r,468,670395,Green,Congruent,r,White,0,,0,2,665912,,0,0,,,,,,,,,,,,,Pictures\white.bmp,3000,2000,Pictures\GreenLeft.bmp,,,,,,,,,,8,1,8,StimulusPr,Pictures\black.bmp,NonCuedStim4,Left
POP_2,27008,1,"<?xml version=""1.0""?>\n<Clock xmlns:dt=""urn:schemas-microsoft-com:datatypes""><Description dt:dt=""string"">E-Prime Primary Realtime Clock</Description><StartTime><Timestamp dt:dt=""int"">0</Timestamp><DateUtc dt:dt=""string"">2014-04-29T21:18:07Z</DateUtc></StartTime><FrequencyChanges><FrequencyChange><Frequency dt:dt=""r8"">2793020000</Frequency><Timestamp dt:dt=""r8"">39858090287924</Timestamp><Current dt:dt=""r8"">0</Current><DateUtc dt:dt=""string"">2014-04-29T21:18:07Z</DateUtc></FrequencyChange></FrequencyChanges></Clock>\n",60.037,1,1326768520,0,,-999999,11,32593,t,36301,68894,4/29/2014,14:18:07,9:18:07 PM,1,Session1,SessionsList,,,,,,,,,,1,1,1,4,,,,,,,,4,1,4,NonCued4,MiniBlocks2,,,,541690,9,1,b,-999999,14,680921,b,396,681317,Green,Congruent,b,White,0,,0,16,673908,,0,0,,,,,,,,,,,,,Pictures\white.bmp,6000,2000,Pictures\black.bmp,,,,,,,,,,9,1,9,StimulusPr,Pictures\GreenRight.bmp,NonCuedStim4,Right
POP_2,27008,1,"<?xml version=""1.0""?>\n<Clock xmlns:dt=""urn:schemas-microsoft-com:datatypes""><Description dt:dt=""string"">E-Prime Primary Realtime Clock</Description><StartTime><Timestamp dt:dt=""int"">0</Timestamp><DateUtc dt:dt=""string"">2014-04-29T21:18:07Z</DateUtc></StartTime><FrequencyChanges><FrequencyChange><Frequency dt:dt=""r8"">2793020000</Frequency><Timestamp dt:dt=""r8"">39858090287924</Timestamp><Current dt:dt=""r8"">0</Current><DateUtc dt:dt=""string"">2014-04-29T21:18:07Z</DateUtc></FrequencyChange></FrequencyChanges></Clock>\n",60.037,1,1326768520,0,,-999999,11,32593,t,36301,68894,4/29/2014,14:18:07,9:18:07 PM,1,Session1,SessionsList,,,,,,,,,,1,1,1,4,,,,,,,,4,1,4,NonCued4,MiniBlocks2,,,,541690,10,1,b,-999999,5,689900,b,408,690308,Green,Congruent,b,White,0,,0,10,684919,,0,0,,,,,,,,,,,,,Pictures\white.bmp,4000,4000,Pictures\black.bmp,,,,,,,,,,10,1,10,StimulusPr,Pictures\GreenRight.bmp,NonCuedStim4,Right
POP_2,27008,1,"<?xml version=""1.0""?>\n<Clock xmlns:dt=""urn:schemas-microsoft-com:datatypes""><Description dt:dt=""string"">E-Prime Primary Realtime Clock</Description><StartTime><Timestamp dt:dt=""int"">0</Timestamp><DateUtc dt:dt=""string"">2014-04-29T21:18:07Z</DateUtc></StartTime><FrequencyChanges><FrequencyChange><Frequency dt:dt=""r8"">2793020000</Frequency><Timestamp dt:dt=""r8"">39858090287924</Timestamp><Current dt:dt=""r8"">0</Current><DateUtc dt:dt=""string"">2014-04-29T21:18:07Z</DateUtc></FrequencyChange></FrequencyChanges></Clock>\n",60.037,1,1326768520,0,,-999999,11,32593,t,36301,68894,4/29/2014,14:18:07,9:18:07 PM,2,Session2,SessionsList,0,,-999999,3,714055,t,39661,753716,694331,2,1,2,1,753718,,,,1,1,1,,,,Cued1,MiniBlocks1,,,,,1,1,r,-999999,15,767728,r,339,768067,White,Congruent,r,Green,0,,0,8,762714,,0,0,1,1,1,,,,,,,,,,Pictures\green.bmp,4000,4000,Pictures\left.bmp,,,,,,,,,,,,,StimulusPr,Pictures\black.bmp,CuedStim1,Left
POP_2,27008,1,"<?xml version=""1.0""?>\n<Clock xmlns:dt=""urn:schemas-microsoft-com:datatypes""><Description dt:dt=""string"">E-Prime Primary Realtime Clock</Description><StartTime><Timestamp dt:dt=""int"">0</Timestamp><DateUtc dt:dt=""string"">2014-04-29T21:18:07Z</DateUtc></StartTime><FrequencyChanges><FrequencyChange><Frequency dt:dt=""r8"">2793020000</Frequency><Timestamp dt:dt=""r8"">39858090287924</Timestamp><Current dt:dt=""r8"">0</Current><DateUtc dt:dt=""string"">2014-04-29T21:18:07Z</DateUtc></FrequencyChange></FrequencyChanges></Clock>\n",60.037,1,1326768520,0,,-999999,11,32593,t,36301,68894,4/29/2014,14:18:07,9:18:07 PM,2,Session2,SessionsList,0,,-999999,3,714055,t,39661,753716,694331,2,1,2,1,753718,,,,1,1,1,,,,Cued1,MiniBlocks1,,,,,2,1,b,-999999,9,780722,b,642,781364,White,Congruent,b,Green,0,,0,6,773725,,0,0,2,1,2,,,,,,,,,,Pictures\green.bmp,6000,2000,Pictures\black.bmp,,,,,,,,,,,,,StimulusPr,Pictures\right.bmp,CuedStim1,Right
POP_2,27008,1,"<?xml version=""1.0""?>\n<Clock xmlns:dt=""urn:schemas-microsoft-com:datatypes""><Description dt:dt=""string"">E-Prime Primary Realtime Clock</Description><StartTime><Timestamp dt:dt=""int"">0</Timestamp><DateUtc dt:dt=""string"">2014-04-29T21:18:07Z</DateUtc></StartTime><FrequencyChanges><FrequencyChange><Frequency dt:dt=""r8"">2793020000</Frequency><Timestamp dt:dt=""r8"">39858090287924</Timestamp><Current dt:dt=""r8"">0</Current><DateUtc dt:dt=""string"">2014-04-29T21:18:07Z</DateUtc></FrequencyChange></FrequencyChanges></Clock>\n",60.037,1,1326768520,0,,-999999,11,32593,t,36301,68894,4/29/2014,14:18:07,9:18:07 PM,2,Session2,SessionsList,0,,-999999,3,714055,t,39661,753716,694331,2,1,2,1,753718,,,,1,1,1,,,,Cued1,MiniBlocks1,,,,,3,1,b,-999999,15,788734,b,428,789162,White,Congruent,b,Green,0,,0,17,784736,,0,0,3,1,3,,,,,,,,,,Pictures\green.bmp,3000,2000,Pictures\black.bmp,,,,,,,,,,,,,StimulusPr,Pictures\right.bmp,CuedStim1,Right
POP_2,27008,1,"<?xml version=""1.0""?>\n<Clock xmlns:dt=""urn:schemas-microsoft-com:datatypes""><Description dt:dt=""string"">E-Prime Primary Realtime Clock</Description><StartTime><Timestamp dt:dt=""int"">0</Timestamp><DateUtc dt:dt=""string"">2014-04-29T21:18:07Z</DateUtc></StartTime><FrequencyChanges><FrequencyChange><Frequency dt:dt=""r8"">2793020000</Frequency><Timestamp dt:dt=""r8"">39858090287924</Timestamp><Current dt:dt=""r8"">0</Current><DateUtc dt:dt=""string"">2014-04-29T21:18:07Z</DateUtc></FrequencyChange></FrequencyChanges></Clock>\n",60.037,1,1326768520,0,,-999999,11,32593,t,36301,68894,4/29/2014,14:18:07,9:18:07 PM,2,Session2,SessionsList,0,,-999999,3,714055,t,39661,753716,694331,2,1,2,1,753718,,,,1,1,1,,,,Cued1,MiniBlocks1,,,,,4,0,b,-999999,4,796714,r,416,797130,White,Incongruent,b,Red,0,,0,13,792732,,0,0,4,1,4,,,,,,,,,,Pictures\red.bmp,3000,16000,Pictures\left.bmp,,,,,,,,,,,,,StimulusPr,Pictures\black.bmp,CuedStim1,Left
POP_2,27008,1,"<?xml version=""1.0""?>\n<Clock xmlns:dt=""urn:schemas-microsoft-com:datatypes""><Description dt:dt=""string"">E-Prime Primary Realtime Clock</Description><StartTime><Timestamp dt:dt=""int"">0</Timestamp><DateUtc dt:dt=""string"">2014-04-29T21:18:07Z</DateUtc></StartTime><FrequencyChanges><FrequencyChange><Frequency dt:dt=""r8"">2793020000</Frequency><Timestamp dt:dt=""r8"">39858090287924</Timestamp><Current dt:dt=""r8"">0</Current><DateUtc dt:dt=""string"">2014-04-29T21:18:07Z</DateUtc></FrequencyChange></FrequencyChanges></Clock>\n",60.037,1,1326768520,0,,-999999,11,32593,t,36301,68894,4/29/2014,14:18:07,9:18:07 PM,2,Session2,SessionsList,0,,-999999,3,714055,t,39661,753716,694331,2,1,2,1,753718,,,,1,1,1,,,,Cued1,MiniBlocks1,,,,,5,1,r,-999999,17,818736,r,363,819099,White,Congruent,r,Green,0,,0,2,814721,,0,0,5,1,5,,,,,,,,,,Pictures\green.bmp,3000,16000,Pictures\left.bmp,,,,,,,,,,,,,StimulusPr,Pictures\black.bmp,CuedStim1,Left
POP_2,27008,1,"<?xml version=""1.0""?>\n<Clock xmlns:dt=""urn:schemas-microsoft-com:datatypes""><Description dt:dt=""string"">E-Prime Primary Realtime Clock</Description><StartTime><Timestamp dt:dt=""int"">0</Timestamp><DateUtc dt:dt=""string"">2014-04-29T21:18:07Z</DateUtc></StartTime><FrequencyChanges><FrequencyChange><Frequency dt:dt=""r8"">2793020000</Frequency><Timestamp dt:dt=""r8"">39858090287924</Timestamp><Current dt:dt=""r8"">0</Current><DateUtc dt:dt=""string"">2014-04-29T21:18:07Z</DateUtc></FrequencyChange></FrequencyChanges></Clock>\n",60.037,1,1326768520,0,,-999999,11,32593,t,36301,68894,4/29/2014,14:18:07,9:18:07 PM,2,Session2,SessionsList,0,,-999999,3,714055,t,39661,753716,694331,2,1,2,1,753718,,,,1,1,1,,,,Cued1,MiniBlocks1,,,,,6,1,r,-999999,3,846722,r,380,847102,White,Congruent,r,Green,0,,0,9,836727,,0,0,6,1,6,,,,,,,,,,Pictures\green.bmp,9000,10000,Pictures\left.bmp,,,,,,,,,,,,,StimulusPr,Pictures\black.bmp,CuedStim1,Left
POP_2,27008,1,"<?xml version=""1.0""?>\n<Clock xmlns:dt=""urn:schemas-microsoft-com:datatypes""><Description dt:dt=""string"">E-Prime Primary Realtime Clock</Description><StartTime><Timestamp dt:dt=""int"">0</Timestamp><DateUtc dt:dt=""string"">2014-04-29T21:18:07Z</DateUtc></StartTime><FrequencyChanges><FrequencyChange><Frequency dt:dt=""r8"">2793020000</Frequency><Timestamp dt:dt=""r8"">39858090287924</Timestamp><Current dt:dt=""r8"">0</Current><DateUtc dt:dt=""string"">2014-04-29T21:18:07Z</DateUtc></FrequencyChange></FrequencyChanges></Clock>\n",60.037,1,1326768520,0,,-999999,11,32593,t,36301,68894,4/29/2014,14:18:07,9:18:07 PM,2,Session2,SessionsList,0,,-999999,3,714055,t,39661,753716,694331,2,1,2,1,753718,,,,1,1,1,,,,Cued1,MiniBlocks1,,,,,7,1,b,-999999,12,862731,b,587,863318,White,Congruent,b,Green,0,,0,14,858733,,0,0,7,1,7,,,,,,,,,,Pictures\green.bmp,3000,16000,Pictures\black.bmp,,,,,,,,,,,,,StimulusPr,Pictures\right.bmp,CuedStim1,Right
POP_2,27008,1,"<?xml version=""1.0""?>\n<Clock xmlns:dt=""urn:schemas-microsoft-com:datatypes""><Description dt:dt=""string"">E-Prime Primary Realtime Clock</Description><StartTime><Timestamp dt:dt=""int"">0</Timestamp><DateUtc dt:dt=""string"">2014-04-29T21:18:07Z</DateUtc></StartTime><FrequencyChanges><FrequencyChange><Frequency dt:dt=""r8"">2793020000</Frequency><Timestamp dt:dt=""r8"">39858090287924</Timestamp><Current dt:dt=""r8"">0</Current><DateUtc dt:dt=""string"">2014-04-29T21:18:07Z</DateUtc></FrequencyChange></FrequencyChanges></Clock>\n",60.037,1,1326768520,0,,-999999,11,32593,t,36301,68894,4/29/2014,14:18:07,9:18:07 PM,2,Session2,SessionsList,0,,-999999,3,714055,t,39661,753716,694331,2,1,2,1,753718,,,,1,1,1,,,,Cued1,MiniBlocks1,,,,,8,1,r,-999999,17,885736,r,412,886148,White,Incongruent,r,Red,0,,0,17,880722,,0,0,8,1,8,,,,,,,,,,Pictures\red.bmp,4000,2000,Pictures\black.bmp,,,,,,,,,,,,,StimulusPr,Pictures\right.bmp,CuedStim1,Right
POP_2,27008,1,"<?xml version=""1.0""?>\n<Clock xmlns:dt=""urn:schemas-microsoft-com:datatypes""><Description dt:dt=""string"">E-Prime Primary Realtime Clock</Description><StartTime><Timestamp dt:dt=""int"">0</Timestamp><DateUtc dt:dt=""string"">2014-04-29T21:18:07Z</DateUtc></StartTime><FrequencyChanges><FrequencyChange><Frequency dt:dt=""r8"">2793020000</Frequency><Timestamp dt:dt=""r8"">39858090287924</Timestamp><Current dt:dt=""r8"">0</Current><DateUtc dt:dt=""string"">2014-04-29T21:18:07Z</DateUtc></FrequencyChange></FrequencyChanges></Clock>\n",60.037,1,1326768520,0,,-999999,11,32593,t,36301,68894,4/29/2014,14:18:07,9:18:07 PM,2,Session2,SessionsList,0,,-999999,3,714055,t,39661,753716,694331,2,1,2,1,753718,,,,1,1,1,,,,Cued1,MiniBlocks1,,,,,9,1,b,-999999,13,894732,b,342,895074,White,Congruent,b,Green,0,,0,15,889734,,0,0,9,1,9,,,,,,,,,,Pictures\green.bmp,4000,2000,Pictures\black.bmp,,,,,,,,,,,,,StimulusPr,Pictures\right.bmp,CuedStim1,Right
POP_2,27008,1,"<?xml version=""1.0""?>\n<Clock xmlns:dt=""urn:schemas-microsoft-com:datatypes""><Description dt:dt=""string"">E-Prime Primary Realtime Clock</Description><StartTime><Timestamp dt:dt=""int"">0</Timestamp><DateUtc dt:dt=""string"">2014-04-29T21:18:07Z</DateUtc></StartTime><FrequencyChanges><FrequencyChange><Frequency dt:dt=""r8"">2793020000</Frequency><Timestamp dt:dt=""r8"">39858090287924</Timestamp><Current dt:dt=""r8"">0</Current><DateUtc dt:dt=""string"">2014-04-29T21:18:07Z</DateUtc></FrequencyChange></FrequencyChanges></Clock>\n",60.037,1,1326768520,0,,-999999,11,32593,t,36301,68894,4/29/2014,14:18:07,9:18:07 PM,2,Session2,SessionsList,0,,-999999,3,714055,t,39661,753716,694331,2,1,2,1,753718,,,,1,1,1,,,,Cued1,MiniBlocks1,,,,,10,1,r,-999999,9,902728,r,418,903146,White,Congruent,r,Green,0,,0,11,898730,,0,0,10,1,10,,,,,,,,,,Pictures\green.bmp,3000,2000,Pictures\left.bmp,,,,,,,,,,,,,StimulusPr,Pictures\black.bmp,CuedStim1,Left
POP_2,27008,1,"<?xml version=""1.0""?>\n<Clock xmlns:dt=""urn:schemas-microsoft-com:datatypes""><Description dt:dt=""string"">E-Prime Primary Realtime Clock</Description><StartTime><Timestamp dt:dt=""int"">0</Timestamp><DateUtc dt:dt=""string"">2014-04-29T21:18:07Z</DateUtc></StartTime><FrequencyChanges><FrequencyChange><Frequency dt:dt=""r8"">2793020000</Frequency><Timestamp dt:dt=""r8"">39858090287924</Timestamp><Current dt:dt=""r8"">0</Current><DateUtc dt:dt=""string"">2014-04-29T21:18:07Z</DateUtc></FrequencyChange></FrequencyChanges></Clock>\n",60.037,1,1326768520,0,,-999999,11,32593,t,36301,68894,4/29/2014,14:18:07,9:18:07 PM,2,Session2,SessionsList,0,,-999999,3,714055,t,39661,753716,694331,2,1,2,2,,,,,2,1,2,,,,NonCued1,MiniBlocks1,905177,,,,1,1,r,-999999,17,919736,r,660,920396,Green,Congruent,r,White,0,,0,3,914722,,0,0,,,,,,,,,,,,,Pictures\white.bmp,4000,2000,Pictures\GreenLeft.bmp,1,1,1,,,,,,,,,,StimulusPr,Pictures\black.bmp,NonCuedStim1,Left
POP_2,27008,1,"<?xml version=""1.0""?>\n<Clock xmlns:dt=""urn:schemas-microsoft-com:datatypes""><Description dt:dt=""string"">E-Prime Primary Realtime Clock</Description><StartTime><Timestamp dt:dt=""int"">0</Timestamp><DateUtc dt:dt=""string"">2014-04-29T21:18:07Z</DateUtc></StartTime><FrequencyChanges><FrequencyChange><Frequency dt:dt=""r8"">2793020000</Frequency><Timestamp dt:dt=""r8"">39858090287924</Timestamp><Current dt:dt=""r8"">0</Current><DateUtc dt:dt=""string"">2014-04-29T21:18:07Z</DateUtc></FrequencyChange></FrequencyChanges></Clock>\n",60.037,1,1326768520,0,,-999999,11,32593,t,36301,68894,4/29/2014,14:18:07,9:18:07 PM,2,Session2,SessionsList,0,,-999999,3,714055,t,39661,753716,694331,2,1,2,2,,,,,2,1,2,,,,NonCued1,MiniBlocks1,905177,,,,2,1,b,-999999,6,930714,b,323,931037,Green,Congruent,b,White,0,,0,15,923734,,0,0,,,,,,,,,,,,,Pictures\white.bmp,6000,16000,Pictures\black.bmp,2,1,2,,,,,,,,,,StimulusPr,Pictures\GreenRight.bmp,NonCuedStim1,Right
POP_2,27008,1,"<?xml version=""1.0""?>\n<Clock xmlns:dt=""urn:schemas-microsoft-com:datatypes""><Description dt:dt=""string"">E-Prime Primary Realtime Clock</Description><StartTime><Timestamp dt:dt=""int"">0</Timestamp><DateUtc dt:dt=""string"">2014-04-29T21:18:07Z</DateUtc></StartTime><FrequencyChanges><FrequencyChange><Frequency dt:dt=""r8"">2793020000</Frequency><Timestamp dt:dt=""r8"">39858090287924</Timestamp><Current dt:dt=""r8"">0</Current><DateUtc dt:dt=""string"">2014-04-29T21:18:07Z</DateUtc></FrequencyChange></FrequencyChanges></Clock>\n",60.037,1,1326768520,0,,-999999,11,32593,t,36301,68894,4/29/2014,14:18:07,9:18:07 PM,2,Session2,SessionsList,0,,-999999,3,714055,t,39661,753716,694331,2,1,2,2,,,,,2,1,2,,,,NonCued1,MiniBlocks1,905177,,,,3,1,r,-999999,15,955735,r,708,956443,Red,Incongruent,r,White,0,,0,8,948722,,0,0,,,,,,,,,,,,,Pictures\white.bmp,6000,10000,Pictures\black.bmp,3,1,3,,,,,,,,,,StimulusPr,Pictures\RedRight.bmp,NonCuedStim1,Right
POP_2,27008,1,"<?xml version=""1.0""?>\n<Clock xmlns:dt=""urn:schemas-microsoft-com:datatypes""><Description dt:dt=""string"">E-Prime Primary Realtime Clock</Description><StartTime><Timestamp dt:dt=""int"">0</Timestamp><DateUtc dt:dt=""string"">2014-04-29T21:18:07Z</DateUtc></StartTime><FrequencyChanges><FrequencyChange><Frequency dt:dt=""r8"">2793020000</Frequency><Timestamp dt:dt=""r8"">39858090287924</Timestamp><Current dt:dt=""r8"">0</Current><DateUtc dt:dt=""string"">2014-04-29T21:18:07Z</DateUtc></FrequencyChange></FrequencyChanges></Clock>\n",60.037,1,1326768520,0,,-999999,11,32593,t,36301,68894,4/29/2014,14:18:07,9:18:07 PM,2,Session2,SessionsList,0,,-999999,3,714055,t,39661,753716,694331,2,1,2,2,,,,,2,1,2,,,,NonCued1,MiniBlocks1,905177,,,,4,1,r,-999999,5,977707,r,330,978037,Green,Congruent,r,White,0,,0,9,967729,,0,0,,,,,,,,,,,,,Pictures\white.bmp,9000,10000,Pictures\GreenLeft.bmp,4,1,4,,,,,,,,,,StimulusPr,Pictures\black.bmp,NonCuedStim1,Left
POP_2,27008,1,"<?xml version=""1.0""?>\n<Clock xmlns:dt=""urn:schemas-microsoft-com:datatypes""><Description dt:dt=""string"">E-Prime Primary Realtime Clock</Description><StartTime><Timestamp dt:dt=""int"">0</Timestamp><DateUtc dt:dt=""string"">2014-04-29T21:18:07Z</DateUtc></StartTime><FrequencyChanges><FrequencyChange><Frequency dt:dt=""r8"">2793020000</Frequency><Timestamp dt:dt=""r8"">39858090287924</Timestamp><Current dt:dt=""r8"">0</Current><DateUtc dt:dt=""string"">2014-04-29T21:18:07Z</DateUtc></FrequencyChange></FrequencyChanges></Clock>\n",60.037,1,1326768520,0,,-999999,11,32593,t,36301,68894,4/29/2014,14:18:07,9:18:07 PM,2,Session2,SessionsList,0,,-999999,3,714055,t,39661,753716,694331,2,1,2,2,,,,,2,1,2,,,,NonCued1,MiniBlocks1,905177,,,,5,1,b,-999999,18,993733,b,506,994239,Green,Congruent,b,White,0,,0,16,989735,,0,0,,,,,,,,,,,,,Pictures\white.bmp,3000,2000,Pictures\black.bmp,5,1,5,,,,,,,,,,StimulusPr,Pictures\GreenRight.bmp,NonCuedStim1,Right
POP_2,27008,1,"<?xml version=""1.0""?>\n<Clock xmlns:dt=""urn:schemas-microsoft-com:datatypes""><Description dt:dt=""string"">E-Prime Primary Realtime Clock</Description><StartTime><Timestamp dt:dt=""int"">0</Timestamp><DateUtc dt:dt=""string"">2014-04-29T21:18:07Z</DateUtc></StartTime><FrequencyChanges><FrequencyChange><Frequency dt:dt=""r8"">2793020000</Frequency><Timestamp dt:dt=""r8"">39858090287924</Timestamp><Current dt:dt=""r8"">0</Current><DateUtc dt:dt=""string"">2014-04-29T21:18:07Z</DateUtc></FrequencyChange></FrequencyChanges></Clock>\n",60.037,1,1326768520,0,,-999999,11,32593,t,36301,68894,4/29/2014,14:18:07,9:18:07 PM,2,Session2,SessionsList,0,,-999999,3,714055,t,39661,753716,694331,2,1,2,2,,,,,2,1,2,,,,NonCued1,MiniBlocks1,905177,,,,6,1,b,-999999,9,1002728,b,684,1003412,Red,Incongruent,b,White,0,,0,12,997731,,0,0,,,,,,,,,,,,,Pictures\white.bmp,4000,16000,Pictures\RedLeft.bmp,6,1,6,,,,,,,,,,StimulusPr,Pictures\black.bmp,NonCuedStim1,Left
POP_2,27008,1,"<?xml version=""1.0""?>\n<Clock xmlns:dt=""urn:schemas-microsoft-com:datatypes""><Description dt:dt=""string"">E-Prime Primary Realtime Clock</Description><StartTime><Timestamp dt:dt=""int"">0</Timestamp><DateUtc dt:dt=""string"">2014-04-29T21:18:07Z</DateUtc></StartTime><FrequencyChanges><FrequencyChange><Frequency dt:dt=""r8"">2793020000</Frequency><Timestamp dt:dt=""r8"">39858090287924</Timestamp><Current dt:dt=""r8"">0</Current><DateUtc dt:dt=""string"">2014-04-29T21:18:07Z</DateUtc></FrequencyChange></FrequencyChanges></Clock>\n",60.037,1,1326768520,0,,-999999,11,32593,t,36301,68894,4/29/2014,14:18:07,9:18:07 PM,2,Session2,SessionsList,0,,-999999,3,714055,t,39661,753716,694331,2,1,2,2,,,,,2,1,2,,,,NonCued1,MiniBlocks1,905177,,,,7,1,b,-999999,14,1024734,b,365,1025099,Green,Congruent,b,White,0,,0,16,1020736,,0,0,,,,,,,,,,,,,Pictures\white.bmp,3000,4000,Pictures\black.bmp,7,1,7,,,,,,,,,,StimulusPr,Pictures\GreenRight.bmp,NonCuedStim1,Right
POP_2,27008,1,"<?xml version=""1.0""?>\n<Clock xmlns:dt=""urn:schemas-microsoft-com:datatypes""><Description dt:dt=""string"">E-Prime Primary Realtime Clock</Description><StartTime><Timestamp dt:dt=""int"">0</Timestamp><DateUtc dt:dt=""string"">2014-04-29T21:18:07Z</DateUtc></StartTime><FrequencyChanges><FrequencyChange><Frequency dt:dt=""r8"">2793020000</Frequency><Timestamp dt:dt=""r8"">39858090287924</Timestamp><Current dt:dt=""r8"">0</Current><DateUtc dt:dt=""string"">2014-04-29T21:18:07Z</DateUtc></FrequencyChange></FrequencyChanges></Clock>\n",60.037,1,1326768520,0,,-999999,11,32593,t,36301,68894,4/29/2014,14:18:07,9:18:07 PM,2,Session2,SessionsList,0,,-999999,3,714055,t,39661,753716,694331,2,1,2,2,,,,,2,1,2,,,,NonCued1,MiniBlocks1,905177,,,,8,1,b,-999999,9,1034729,b,308,1035037,Green,Congruent,b,White,0,,0,11,1030731,,0,0,,,,,,,,,,,,,Pictures\white.bmp,3000,4000,Pictures\black.bmp,8,1,8,,,,,,,,,,StimulusPr,Pictures\GreenRight.bmp,NonCuedStim1,Right
POP_2,27008,1,"<?xml version=""1.0""?>\n<Clock xmlns:dt=""urn:schemas-microsoft-com:datatypes""><Description dt:dt=""string"">E-Prime Primary Realtime Clock</Description><StartTime><Timestamp dt:dt=""int"">0</Timestamp><DateUtc dt:dt=""string"">2014-04-29T21:18:07Z</DateUtc></StartTime><FrequencyChanges><FrequencyChange><Frequency dt:dt=""r8"">2793020000</Frequency><Timestamp dt:dt=""r8"">39858090287924</Timestamp><Current dt:dt=""r8"">0</Current><DateUtc dt:dt=""string"">2014-04-29T21:18:07Z</DateUtc></FrequencyChange></FrequencyChanges></Clock>\n",60.037,1,1326768520,0,,-999999,11,32593,t,36301,68894,4/29/2014,14:18:07,9:18:07 PM,2,Session2,SessionsList,0,,-999999,3,714055,t,39661,753716,694331,2,1,2,2,,,,,2,1,2,,,,NonCued1,MiniBlocks1,905177,,,,9,1,b,-999999,18,1050738,b,518,1051256,Red,Incongruent,b,White,0,,0,6,1040726,,0,0,,,,,,,,,,,,,Pictures\white.bmp,9000,2000,Pictures\RedLeft.bmp,9,1,9,,,,,,,,,,StimulusPr,Pictures\black.bmp,NonCuedStim1,Left
POP_2,27008,1,"<?xml version=""1.0""?>\n<Clock xmlns:dt=""urn:schemas-microsoft-com:datatypes""><Description dt:dt=""string"">E-Prime Primary Realtime Clock</Description><StartTime><Timestamp dt:dt=""int"">0</Timestamp><DateUtc dt:dt=""string"">2014-04-29T21:18:07Z</DateUtc></StartTime><FrequencyChanges><FrequencyChange><Frequency dt:dt=""r8"">2793020000</Frequency><Timestamp dt:dt=""r8"">39858090287924</Timestamp><Current dt:dt=""r8"">0</Current><DateUtc dt:dt=""string"">2014-04-29T21:18:07Z</DateUtc></FrequencyChange></FrequencyChanges></Clock>\n",60.037,1,1326768520,0,,-999999,11,32593,t,36301,68894,4/29/2014,14:18:07,9:18:07 PM,2,Session2,SessionsList,0,,-999999,3,714055,t,39661,753716,694331,2,1,2,2,,,,,2,1,2,,,,NonCued1,MiniBlocks1,905177,,,,10,1,r,-999999,12,1061732,r,371,1062103,Green,Congruent,r,White,0,,0,16,1054736,,0,0,,,,,,,,,,,,,Pictures\white.bmp,6000,2000,Pictures\GreenLeft.bmp,10,1,10,,,,,,,,,,StimulusPr,Pictures\black.bmp,NonCuedStim1,Left
POP_2,27008,1,"<?xml version=""1.0""?>\n<Clock xmlns:dt=""urn:schemas-microsoft-com:datatypes""><Description dt:dt=""string"">E-Prime Primary Realtime Clock</Description><StartTime><Timestamp dt:dt=""int"">0</Timestamp><DateUtc dt:dt=""string"">2014-04-29T21:18:07Z</DateUtc></StartTime><FrequencyChanges><FrequencyChange><Frequency dt:dt=""r8"">2793020000</Frequency><Timestamp dt:dt=""r8"">39858090287924</Timestamp><Current dt:dt=""r8"">0</Current><DateUtc dt:dt=""string"">2014-04-29T21:18:07Z</DateUtc></FrequencyChange></FrequencyChanges></Clock>\n",60.037,1,1326768520,0,,-999999,11,32593,t,36301,68894,4/29/2014,14:18:07,9:18:07 PM,2,Session2,SessionsList,0,,-999999,3,714055,t,39661,753716,694331,2,1,2,3,,,,,3,1,3,,,,NonCued2,MiniBlocks1,,1064131,,,1,1,b,-999999,18,1083738,b,455,1084193,Green,Congruent,b,White,0,,0,6,1073726,,0,0,,,,,,,,,,,,,Pictures\white.bmp,9000,10000,Pictures\black.bmp,,,,1,1,1,,,,,,,StimulusPr,Pictures\GreenRight.bmp,NonCuedStim2,Right
POP_2,27008,1,"<?xml version=""1.0""?>\n<Clock xmlns:dt=""urn:schemas-microsoft-com:datatypes""><Description dt:dt=""string"">E-Prime Primary Realtime Clock</Description><StartTime><Timestamp dt:dt=""int"">0</Timestamp><DateUtc dt:dt=""string"">2014-04-29T21:18:07Z</DateUtc></StartTime><FrequencyChanges><FrequencyChange><Frequency dt:dt=""r8"">2793020000</Frequency><Timestamp dt:dt=""r8"">39858090287924</Timestamp><Current dt:dt=""r8"">0</Current><DateUtc dt:dt=""string"">2014-04-29T21:18:07Z</DateUtc></FrequencyChange></FrequencyChanges></Clock>\n",60.037,1,1326768520,0,,-999999,11,32593,t,36301,68894,4/29/2014,14:18:07,9:18:07 PM,2,Session2,SessionsList,0,,-999999,3,714055,t,39661,753716,694331,2,1,2,3,,,,,3,1,3,,,,NonCued2,MiniBlocks1,,1064131,,,2,1,r,-999999,10,1099730,r,432,1100162,Green,Congruent,r,White,0,,0,12,1095732,,0,0,,,,,,,,,,,,,Pictures\white.bmp,3000,2000,Pictures\GreenLeft.bmp,,,,2,1,2,,,,,,,StimulusPr,Pictures\black.bmp,NonCuedStim2,Left
POP_2,27008,1,"<?xml version=""1.0""?>\n<Clock xmlns:dt=""urn:schemas-microsoft-com:datatypes""><Description dt:dt=""string"">E-Prime Primary Realtime Clock</Description><StartTime><Timestamp dt:dt=""int"">0</Timestamp><DateUtc dt:dt=""string"">2014-04-29T21:18:07Z</DateUtc></StartTime><FrequencyChanges><FrequencyChange><Frequency dt:dt=""r8"">2793020000</Frequency><Timestamp dt:dt=""r8"">39858090287924</Timestamp><Current dt:dt=""r8"">0</Current><DateUtc dt:dt=""string"">2014-04-29T21:18:07Z</DateUtc></FrequencyChange></FrequencyChanges></Clock>\n",60.037,1,1326768520,0,,-999999,11,32593,t,36301,68894,4/29/2014,14:18:07,9:18:07 PM,2,Session2,SessionsList,0,,-999999,3,714055,t,39661,753716,694331,2,1,2,3,,,,,3,1,3,,,,NonCued2,MiniBlocks1,,1064131,,,3,1,r,-999999,5,1107726,r,561,1108287,Red,Incongruent,r,White,0,,0,7,1103728,,0,0,,,,,,,,,,,,,Pictures\white.bmp,3000,2000,Pictures\black.bmp,,,,3,1,3,,,,,,,StimulusPr,Pictures\RedRight.bmp,NonCuedStim2,Right
POP_2,27008,1,"<?xml version=""1.0""?>\n<Clock xmlns:dt=""urn:schemas-microsoft-com:datatypes""><Description dt:dt=""string"">E-Prime Primary Realtime Clock</Description><StartTime><Timestamp dt:dt=""int"">0</Timestamp><DateUtc dt:dt=""string"">2014-04-29T21:18:07Z</DateUtc></StartTime><FrequencyChanges><FrequencyChange><Frequency dt:dt=""r8"">2793020000</Frequency><Timestamp dt:dt=""r8"">39858090287924</Timestamp><Current dt:dt=""r8"">0</Current><DateUtc dt:dt=""string"">2014-04-29T21:18:07Z</DateUtc></FrequencyChange></FrequencyChanges></Clock>\n",60.037,1,1326768520,0,,-999999,11,32593,t,36301,68894,4/29/2014,14:18:07,9:18:07 PM,2,Session2,SessionsList,0,,-999999,3,714055,t,39661,753716,694331,2,1,2,3,,,,,3,1,3,,,,NonCued2,MiniBlocks1,,1064131,,,4,1,r,-999999,14,1116722,r,487,1117209,Green,Congruent,r,White,0,,0,3,1111724,,0,0,,,,,,,,,,,,,Pictures\white.bmp,4000,16000,Pictures\GreenLeft.bmp,,,,4,1,4,,,,,,,StimulusPr,Pictures\black.bmp,NonCuedStim2,Left
POP_2,27008,1,"<?xml version=""1.0""?>\n<Clock xmlns:dt=""urn:schemas-microsoft-com:datatypes""><Description dt:dt=""string"">E-Prime Primary Realtime Clock</Description><StartTime><Timestamp dt:dt=""int"">0</Timestamp><DateUtc dt:dt=""string"">2014-04-29T21:18:07Z</DateUtc></StartTime><FrequencyChanges><FrequencyChange><Frequency dt:dt=""r8"">2793020000</Frequency><Timestamp dt:dt=""r8"">39858090287924</Timestamp><Current dt:dt=""r8"">0</Current><DateUtc dt:dt=""string"">2014-04-29T21:18:07Z</DateUtc></FrequencyChange></FrequencyChanges></Clock>\n",60.037,1,1326768520,0,,-999999,11,32593,t,36301,68894,4/29/2014,14:18:07,9:18:07 PM,2,Session2,SessionsList,0,,-999999,3,714055,t,39661,753716,694331,2,1,2,3,,,,,3,1,3,,,,NonCued2,MiniBlocks1,,1064131,,,5,1,r,-999999,6,1141726,r,530,1142256,Green,Congruent,r,White,0,,0,10,1134730,,0,0,,,,,,,,,,,,,Pictures\white.bmp,6000,4000,Pictures\GreenLeft.bmp,,,,5,1,5,,,,,,,StimulusPr,Pictures\black.bmp,NonCuedStim2,Left
POP_2,27008,1,"<?xml version=""1.0""?>\n<Clock xmlns:dt=""urn:schemas-microsoft-com:datatypes""><Description dt:dt=""string"">E-Prime Primary Realtime Clock</Description><StartTime><Timestamp dt:dt=""int"">0</Timestamp><DateUtc dt:dt=""string"">2014-04-29T21:18:07Z</DateUtc></StartTime><FrequencyChanges><FrequencyChange><Frequency dt:dt=""r8"">2793020000</Frequency><Timestamp dt:dt=""r8"">39858090287924</Timestamp><Current dt:dt=""r8"">0</Current><DateUtc dt:dt=""string"">2014-04-29T21:18:07Z</DateUtc></FrequencyChange></FrequencyChanges></Clock>\n",60.037,1,1326768520,0,,-999999,11,32593,t,36301,68894,4/29/2014,14:18:07,9:18:07 PM,2,Session2,SessionsList,0,,-999999,3,714055,t,39661,753716,694331,2,1,2,3,,,,,3,1,3,,,,NonCued2,MiniBlocks1,,1064131,,,6,1,b,-999999,18,1151738,b,502,1152240,Red,Incongruent,b,White,0,,0,2,1147707,,0,0,,,,,,,,,,,,,Pictures\white.bmp,3000,4000,Pictures\RedLeft.bmp,,,,6,1,6,,,,,,,StimulusPr,Pictures\black.bmp,NonCuedStim2,Left
POP_2,27008,1,"<?xml version=""1.0""?>\n<Clock xmlns:dt=""urn:schemas-microsoft-com:datatypes""><Description dt:dt=""string"">E-Prime Primary Realtime Clock</Description><StartTime><Timestamp dt:dt=""int"">0</Timestamp><DateUtc dt:dt=""string"">2014-04-29T21:18:07Z</DateUtc></StartTime><FrequencyChanges><FrequencyChange><Frequency dt:dt=""r8"">2793020000</Frequency><Timestamp dt:dt=""r8"">39858090287924</Timestamp><Current dt:dt=""r8"">0</Current><DateUtc dt:dt=""string"">2014-04-29T21:18:07Z</DateUtc></FrequencyChange></FrequencyChanges></Clock>\n",60.037,1,1326768520,0,,-999999,11,32593,t,36301,68894,4/29/2014,14:18:07,9:18:07 PM,2,Session2,SessionsList,0,,-999999,3,714055,t,39661,753716,694331,2,1,2,3,,,,,3,1,3,,,,NonCued2,MiniBlocks1,,1064131,,,7,1,b,-999999,3,1162716,b,384,1163100,Green,Congruent,b,White,0,,0,15,1157735,,0,0,,,,,,,,,,,,,Pictures\white.bmp,4000,16000,Pictures\black.bmp,,,,7,1,7,,,,,,,StimulusPr,Pictures\GreenRight.bmp,NonCuedStim2,Right
POP_2,27008,1,"<?xml version=""1.0""?>\n<Clock xmlns:dt=""urn:schemas-microsoft-com:datatypes""><Description dt:dt=""string"">E-Prime Primary Realtime Clock</Description><StartTime><Timestamp dt:dt=""int"">0</Timestamp><DateUtc dt:dt=""string"">2014-04-29T21:18:07Z</DateUtc></StartTime><FrequencyChanges><FrequencyChange><Frequency dt:dt=""r8"">2793020000</Frequency><Timestamp dt:dt=""r8"">39858090287924</Timestamp><Current dt:dt=""r8"">0</Current><DateUtc dt:dt=""string"">2014-04-29T21:18:07Z</DateUtc></FrequencyChange></FrequencyChanges></Clock>\n",60.037,1,1326768520,0,,-999999,11,32593,t,36301,68894,4/29/2014,14:18:07,9:18:07 PM,2,Session2,SessionsList,0,,-999999,3,714055,t,39661,753716,694331,2,1,2,3,,,,,3,1,3,,,,NonCued2,MiniBlocks1,,1064131,,,8,1,r,-999999,15,1190735,r,500,1191235,Green,Congruent,r,White,0,,0,3,1180723,,0,0,,,,,,,,,,,,,Pictures\white.bmp,9000,2000,Pictures\GreenLeft.bmp,,,,8,1,8,,,,,,,StimulusPr,Pictures\black.bmp,NonCuedStim2,Left
POP_2,27008,1,"<?xml version=""1.0""?>\n<Clock xmlns:dt=""urn:schemas-microsoft-com:datatypes""><Description dt:dt=""string"">E-Prime Primary Realtime Clock</Description><StartTime><Timestamp dt:dt=""int"">0</Timestamp><DateUtc dt:dt=""string"">2014-04-29T21:18:07Z</DateUtc></StartTime><FrequencyChanges><FrequencyChange><Frequency dt:dt=""r8"">2793020000</Frequency><Timestamp dt:dt=""r8"">39858090287924</Timestamp><Current dt:dt=""r8"">0</Current><DateUtc dt:dt=""string"">2014-04-29T21:18:07Z</DateUtc></FrequencyChange></FrequencyChanges></Clock>\n",60.037,1,1326768520,0,,-999999,11,32593,t,36301,68894,4/29/2014,14:18:07,9:18:07 PM,2,Session2,SessionsList,0,,-999999,3,714055,t,39661,753716,694331,2,1,2,3,,,,,3,1,3,,,,NonCued2,MiniBlocks1,,1064131,,,9,1,b,-999999,10,1198731,b,369,1199100,Green,Congruent,b,White,0,,0,12,1194733,,0,0,,,,,,,,,,,,,Pictures\white.bmp,3000,10000,Pictures\black.bmp,,,,9,1,9,,,,,,,StimulusPr,Pictures\GreenRight.bmp,NonCuedStim2,Right
POP_2,27008,1,"<?xml version=""1.0""?>\n<Clock xmlns:dt=""urn:schemas-microsoft-com:datatypes""><Description dt:dt=""string"">E-Prime Primary Realtime Clock</Description><StartTime><Timestamp dt:dt=""int"">0</Timestamp><DateUtc dt:dt=""string"">2014-04-29T21:18:07Z</DateUtc></StartTime><FrequencyChanges><FrequencyChange><Frequency dt:dt=""r8"">2793020000</Frequency><Timestamp dt:dt=""r8"">39858090287924</Timestamp><Current dt:dt=""r8"">0</Current><DateUtc dt:dt=""string"">2014-04-29T21:18:07Z</DateUtc></FrequencyChange></FrequencyChanges></Clock>\n",60.037,1,1326768520,0,,-999999,11,32593,t,36301,68894,4/29/2014,14:18:07,9:18:07 PM,2,Session2,SessionsList,0,,-999999,3,714055,t,39661,753716,694331,2,1,2,3,,,,,3,1,3,,,,NonCued2,MiniBlocks1,,1064131,,,10,1,b,-999999,2,1214723,b,502,1215225,Green,Congruent,b,White,0,,0,4,1210725,,0,0,,,,,,,,,,,,,Pictures\white.bmp,3000,2000,Pictures\black.bmp,,,,10,1,10,,,,,,,StimulusPr,Pictures\GreenRight.bmp,NonCuedStim2,Right
POP_2,27008,1,"<?xml version=""1.0""?>\n<Clock xmlns:dt=""urn:schemas-microsoft-com:datatypes""><Description dt:dt=""string"">E-Prime Primary Realtime Clock</Description><StartTime><Timestamp dt:dt=""int"">0</Timestamp><DateUtc dt:dt=""string"">2014-04-29T21:18:07Z</DateUtc></StartTime><FrequencyChanges><FrequencyChange><Frequency dt:dt=""r8"">2793020000</Frequency><Timestamp dt:dt=""r8"">39858090287924</Timestamp><Current dt:dt=""r8"">0</Current><DateUtc dt:dt=""string"">2014-04-29T21:18:07Z</DateUtc></FrequencyChange></FrequencyChanges></Clock>\n",60.037,1,1326768520,0,,-999999,11,32593,t,36301,68894,4/29/2014,14:18:07,9:18:07 PM,2,Session2,SessionsList,0,,-999999,3,714055,t,39661,753716,694331,2,1,2,4,,1217255,,,4,1,4,,,,Cued2,MiniBlocks1,,,,,1,0,b,-999999,9,1234730,r,964,1235694,White,Congruent,b,Green,0,,0,10,1227717,,0,0,,,,1,1,1,,,,,,,Pictures\green.bmp,6000,4000,Pictures\black.bmp,,,,,,,,,,,,,StimulusPr,Pictures\right.bmp,CuedStim2,Right
POP_2,27008,1,"<?xml version=""1.0""?>\n<Clock xmlns:dt=""urn:schemas-microsoft-com:datatypes""><Description dt:dt=""string"">E-Prime Primary Realtime Clock</Description><StartTime><Timestamp dt:dt=""int"">0</Timestamp><DateUtc dt:dt=""string"">2014-04-29T21:18:07Z</DateUtc></StartTime><FrequencyChanges><FrequencyChange><Frequency dt:dt=""r8"">2793020000</Frequency><Timestamp dt:dt=""r8"">39858090287924</Timestamp><Current dt:dt=""r8"">0</Current><DateUtc dt:dt=""string"">2014-04-29T21:18:07Z</DateUtc></FrequencyChange></FrequencyChanges></Clock>\n",60.037,1,1326768520,0,,-999999,11,32593,t,36301,68894,4/29/2014,14:18:07,9:18:07 PM,2,Session2,SessionsList,0,,-999999,3,714055,t,39661,753716,694331,2,1,2,4,,1217255,,,4,1,4,,,,Cued2,MiniBlocks1,,,,,2,1,b,-999999,13,1250722,b,371,1251093,White,Congruent,b,Green,0,,0,6,1240727,,0,0,,,,2,1,2,,,,,,,Pictures\green.bmp,9000,10000,Pictures\black.bmp,,,,,,,,,,,,,StimulusPr,Pictures\right.bmp,CuedStim2,Right
POP_2,27008,1,"<?xml version=""1.0""?>\n<Clock xmlns:dt=""urn:schemas-microsoft-com:datatypes""><Description dt:dt=""string"">E-Prime Primary Realtime Clock</Description><StartTime><Timestamp dt:dt=""int"">0</Timestamp><DateUtc dt:dt=""string"">2014-04-29T21:18:07Z</DateUtc></StartTime><FrequencyChanges><FrequencyChange><Frequency dt:dt=""r8"">2793020000</Frequency><Timestamp dt:dt=""r8"">39858090287924</Timestamp><Current dt:dt=""r8"">0</Current><DateUtc dt:dt=""string"">2014-04-29T21:18:07Z</DateUtc></FrequencyChange></FrequencyChanges></Clock>\n",60.037,1,1326768520,0,,-999999,11,32593,t,36301,68894,4/29/2014,14:18:07,9:18:07 PM,2,Session2,SessionsList,0,,-999999,3,714055,t,39661,753716,694331,2,1,2,4,,1217255,,,4,1,4,,,,Cued2,MiniBlocks1,,,,,3,1,r,-999999,11,1266731,r,588,1267319,White,Incongruent,r,Red,0,,0,13,1262733,,0,0,,,,3,1,3,,,,,,,Pictures\red.bmp,3000,2000,Pictures\black.bmp,,,,,,,,,,,,,StimulusPr,Pictures\right.bmp,CuedStim2,Right
POP_2,27008,1,"<?xml version=""1.0""?>\n<Clock xmlns:dt=""urn:schemas-microsoft-com:datatypes""><Description dt:dt=""string"">E-Prime Primary Realtime Clock</Description><StartTime><Timestamp dt:dt=""int"">0</Timestamp><DateUtc dt:dt=""string"">2014-04-29T21:18:07Z</DateUtc></StartTime><FrequencyChanges><FrequencyChange><Frequency dt:dt=""r8"">2793020000</Frequency><Timestamp dt:dt=""r8"">39858090287924</Timestamp><Current dt:dt=""r8"">0</Current><DateUtc dt:dt=""string"">2014-04-29T21:18:07Z</DateUtc></FrequencyChange></FrequencyChanges></Clock>\n",60.037,1,1326768520,0,,-999999,11,32593,t,36301,68894,4/29/2014,14:18:07,9:18:07 PM,2,Session2,SessionsList,0,,-999999,3,714055,t,39661,753716,694331,2,1,2,4,,1217255,,,4,1,4,,,,Cued2,MiniBlocks1,,,,,4,1,r,-999999,5,1277725,r,686,1278411,White,Congruent,r,Green,0,,0,5,1270712,,0,0,,,,4,1,4,,,,,,,Pictures\green.bmp,6000,16000,Pictures\left.bmp,,,,,,,,,,,,,StimulusPr,Pictures\black.bmp,CuedStim2,Left
POP_2,27008,1,"<?xml version=""1.0""?>\n<Clock xmlns:dt=""urn:schemas-microsoft-com:datatypes""><Description dt:dt=""string"">E-Prime Primary Realtime Clock</Description><StartTime><Timestamp dt:dt=""int"">0</Timestamp><DateUtc dt:dt=""string"">2014-04-29T21:18:07Z</DateUtc></StartTime><FrequencyChanges><FrequencyChange><Frequency dt:dt=""r8"">2793020000</Frequency><Timestamp dt:dt=""r8"">39858090287924</Timestamp><Current dt:dt=""r8"">0</Current><DateUtc dt:dt=""string"">2014-04-29T21:18:07Z</DateUtc></FrequencyChange></FrequencyChanges></Clock>\n",60.037,1,1326768520,0,,-999999,11,32593,t,36301,68894,4/29/2014,14:18:07,9:18:07 PM,2,Session2,SessionsList,0,,-999999,3,714055,t,39661,753716,694331,2,1,2,4,,1217255,,,4,1,4,,,,Cued2,MiniBlocks1,,,,,5,1,b,-999999,10,1299731,b,510,1300241,White,Congruent,b,Green,0,,0,12,1295733,,0,0,,,,5,1,5,,,,,,,Pictures\green.bmp,3000,2000,Pictures\black.bmp,,,,,,,,,,,,,StimulusPr,Pictures\right.bmp,CuedStim2,Right
POP_2,27008,1,"<?xml version=""1.0""?>\n<Clock xmlns:dt=""urn:schemas-microsoft-com:datatypes""><Description dt:dt=""string"">E-Prime Primary Realtime Clock</Description><StartTime><Timestamp dt:dt=""int"">0</Timestamp><DateUtc dt:dt=""string"">2014-04-29T21:18:07Z</DateUtc></StartTime><FrequencyChanges><FrequencyChange><Frequency dt:dt=""r8"">2793020000</Frequency><Timestamp dt:dt=""r8"">39858090287924</Timestamp><Current dt:dt=""r8"">0</Current><DateUtc dt:dt=""string"">2014-04-29T21:18:07Z</DateUtc></FrequencyChange></FrequencyChanges></Clock>\n",60.037,1,1326768520,0,,-999999,11,32593,t,36301,68894,4/29/2014,14:18:07,9:18:07 PM,2,Session2,SessionsList,0,,-999999,3,714055,t,39661,753716,694331,2,1,2,4,,1217255,,,4,1,4,,,,Cued2,MiniBlocks1,,,,,6,1,r,-999999,6,1307727,r,529,1308256,White,Congruent,r,Green,0,,0,10,1303712,,0,0,,,,6,1,6,,,,,,,Pictures\green.bmp,3000,2000,Pictures\left.bmp,,,,,,,,,,,,,StimulusPr,Pictures\black.bmp,CuedStim2,Left
POP_2,27008,1,"<?xml version=""1.0""?>\n<Clock xmlns:dt=""urn:schemas-microsoft-com:datatypes""><Description dt:dt=""string"">E-Prime Primary Realtime Clock</Description><StartTime><Timestamp dt:dt=""int"">0</Timestamp><DateUtc dt:dt=""string"">2014-04-29T21:18:07Z</DateUtc></StartTime><FrequencyChanges><FrequencyChange><Frequency dt:dt=""r8"">2793020000</Frequency><Timestamp dt:dt=""r8"">39858090287924</Timestamp><Current dt:dt=""r8"">0</Current><DateUtc dt:dt=""string"">2014-04-29T21:18:07Z</DateUtc></FrequencyChange></FrequencyChanges></Clock>\n",60.037,1,1326768520,0,,-999999,11,32593,t,36301,68894,4/29/2014,14:18:07,9:18:07 PM,2,Session2,SessionsList,0,,-999999,3,714055,t,39661,753716,694331,2,1,2,4,,1217255,,,4,1,4,,,,Cued2,MiniBlocks1,,,,,7,1,b,-999999,17,1318738,b,503,1319241,White,Incongruent,b,Red,0,,0,4,1311725,,0,0,,,,7,1,7,,,,,,,Pictures\red.bmp,6000,4000,Pictures\left.bmp,,,,,,,,,,,,,StimulusPr,Pictures\black.bmp,CuedStim2,Left
POP_2,27008,1,"<?xml version=""1.0""?>\n<Clock xmlns:dt=""urn:schemas-microsoft-com:datatypes""><Description dt:dt=""string"">E-Prime Primary Realtime Clock</Description><StartTime><Timestamp dt:dt=""int"">0</Timestamp><DateUtc dt:dt=""string"">2014-04-29T21:18:07Z</DateUtc></StartTime><FrequencyChanges><FrequencyChange><Frequency dt:dt=""r8"">2793020000</Frequency><Timestamp dt:dt=""r8"">39858090287924</Timestamp><Current dt:dt=""r8"">0</Current><DateUtc dt:dt=""string"">2014-04-29T21:18:07Z</DateUtc></FrequencyChange></FrequencyChanges></Clock>\n",60.037,1,1326768520,0,,-999999,11,32593,t,36301,68894,4/29/2014,14:18:07,9:18:07 PM,2,Session2,SessionsList,0,,-999999,3,714055,t,39661,753716,694331,2,1,2,4,,1217255,,,4,1,4,,,,Cued2,MiniBlocks1,,,,,8,1,b,-999999,19,1329733,b,398,1330131,White,Congruent,b,Green,0,,0,3,1324719,,0,0,,,,8,1,8,,,,,,,Pictures\green.bmp,4000,4000,Pictures\black.bmp,,,,,,,,,,,,,StimulusPr,Pictures\right.bmp,CuedStim2,Right
POP_2,27008,1,"<?xml version=""1.0""?>\n<Clock xmlns:dt=""urn:schemas-microsoft-com:datatypes""><Description dt:dt=""string"">E-Prime Primary Realtime Clock</Description><StartTime><Timestamp dt:dt=""int"">0</Timestamp><DateUtc dt:dt=""string"">2014-04-29T21:18:07Z</DateUtc></StartTime><FrequencyChanges><FrequencyChange><Frequency dt:dt=""r8"">2793020000</Frequency><Timestamp dt:dt=""r8"">39858090287924</Timestamp><Current dt:dt=""r8"">0</Current><DateUtc dt:dt=""string"">2014-04-29T21:18:07Z</DateUtc></FrequencyChange></FrequencyChanges></Clock>\n",60.037,1,1326768520,0,,-999999,11,32593,t,36301,68894,4/29/2014,14:18:07,9:18:07 PM,2,Session2,SessionsList,0,,-999999,3,714055,t,39661,753716,694331,2,1,2,4,,1217255,,,4,1,4,,,,Cued2,MiniBlocks1,,,,,9,1,b,-999999,14,1345725,b,531,1346256,White,Incongruent,b,Red,0,,0,17,1335730,,0,0,,,,9,1,9,,,,,,,Pictures\red.bmp,9000,10000,Pictures\left.bmp,,,,,,,,,,,,,StimulusPr,Pictures\black.bmp,CuedStim2,Left
POP_2,27008,1,"<?xml version=""1.0""?>\n<Clock xmlns:dt=""urn:schemas-microsoft-com:datatypes""><Description dt:dt=""string"">E-Prime Primary Realtime Clock</Description><StartTime><Timestamp dt:dt=""int"">0</Timestamp><DateUtc dt:dt=""string"">2014-04-29T21:18:07Z</DateUtc></StartTime><FrequencyChanges><FrequencyChange><Frequency dt:dt=""r8"">2793020000</Frequency><Timestamp dt:dt=""r8"">39858090287924</Timestamp><Current dt:dt=""r8"">0</Current><DateUtc dt:dt=""string"">2014-04-29T21:18:07Z</DateUtc></FrequencyChange></FrequencyChanges></Clock>\n",60.037,1,1326768520,0,,-999999,11,32593,t,36301,68894,4/29/2014,14:18:07,9:18:07 PM,2,Session2,SessionsList,0,,-999999,3,714055,t,39661,753716,694331,2,1,2,4,,1217255,,,4,1,4,,,,Cued2,MiniBlocks1,,,,,10,1,r,-999999,8,1367714,r,511,1368225,White,Congruent,r,Green,0,,0,17,1357719,,0,0,,,,10,1,10,,,,,,,Pictures\green.bmp,9000,10000,Pictures\left.bmp,,,,,,,,,,,,,StimulusPr,Pictures\black.bmp,CuedStim2,Left
