ExperimentName,Subject,Session,Clock.Information,Display.RefreshRate,Group,RandomSeed,Session1Onset.ACC,Session1Onset.CRESP,Session1Onset.DurationError,Session1Onset.OnsetDelay,Session1Onset.OnsetTime,Session1Onset.RESP,Session1Onset.RT,Session1Onset.RTTime,SessionDate,SessionTime,SessionTimeUtc,Block,Procedure[Block],Running[Block],Session2Onset.ACC,Session2Onset.CRESP,Session2Onset.DurationError,Session2Onset.OnsetDelay,Session2Onset.OnsetTime,Session2Onset.RESP,Session2Onset.RT,Session2Onset.RTTime,SessionBreak.OnsetTime,SessionsList,SessionsList.Cycle,SessionsList.Sample,Trial,CuedPrompt1.OnsetTime,CuedPrompt2.OnsetTime,CuedPrompt3.OnsetTime,CuedPrompt4.OnsetTime,MiniBlocks1,MiniBlocks1.Cycle,MiniBlocks1.Sample,MiniBlocks2,MiniBlocks2.Cycle,MiniBlocks2.Sample,Procedure[Trial],Running[Trial],UncuedPrompt1.OnsetTime,UncuedPrompt2.OnsetTime,UncuedPrompt3.OnsetTime,UncuedPrompt4.OnsetTime,SubTrial,Arrow1.ACC,Arrow1.CRESP,Arrow1.DurationError,Arrow1.OnsetDelay,Arrow1.OnsetTime,Arrow1.RESP,Arrow1.RT,Arrow1.RTTime,ArrowColor,Congruence,CorrectResp,Cue,Cue.ACC,Cue.CRESP,Cue.DurationError,Cue.OnsetDelay,Cue.OnsetTime,Cue.RESP,Cue.RT,Cue.RTTime,CuedStim1,CuedStim1.Cycle,CuedStim1.Sample,CuedStim2,CuedStim2.Cycle,CuedStim2.Sample,CuedStim3,CuedStim3.Cycle,CuedStim3.Sample,CuedStim4,CuedStim4.Cycle,CuedStim4.Sample,CueImage,JitterCue,JitterTrial,LeftImage,NonCuedStim1,NonCuedStim1.Cycle,NonCuedStim1.Sample,NonCuedStim2,NonCuedStim2.Cycle,NonCuedStim2.Sample,NonCuedStim3,NonCuedStim3.Cycle,NonCuedStim3.Sample,NonCuedStim4,NonCuedStim4.Cycle,NonCuedStim4.Sample,Procedure[SubTrial],RightImage,Running[SubTrial],Stimulus
POP_2,27012,1,"<?xml version=""1.0""?>\n<Clock xmlns:dt=""urn:schemas-microsoft-com:datatypes""><Description dt:dt=""string"">E-Prime Primary Realtime Clock</Description><StartTime><Timestamp dt:dt=""int"">0</Timestamp><DateUtc dt:dt=""string"">2014-05-05T20:52:16Z</DateUtc></StartTime><FrequencyChanges><FrequencyChange><Frequency dt:dt=""r8"">2793020000</Frequency><Timestamp dt:dt=""r8"">830526527940917</Timestamp><Current dt:dt=""r8"">0</Current><DateUtc dt:dt=""string"">2014-05-05T20:52:16Z</DateUtc></FrequencyChange></FrequencyChanges></Clock>\n",60.03,1,324408130,0,,-999999,12,12322,t,72070,84392,5/5/2014,13:52:16,8:52:16 PM,1,Session1,SessionsList,,,,,,,,,,1,1,1,1,84403,,,,1,1,1,,,,Cued1,MiniBlocks1,,,,,1,1,r,-999999,18,98413,r,414,98827,White,Congruent,r,Green,0,,0,4,93399,,0,0,1,1,1,,,,,,,,,,Pictures\green.bmp,4000,4000,Pictures\left.bmp,,,,,,,,,,,,,StimulusPr,Pictures\black.bmp,CuedStim1,Left
POP_2,27012,1,"<?xml version=""1.0""?>\n<Clock xmlns:dt=""urn:schemas-microsoft-com:datatypes""><Description dt:dt=""string"">E-Prime Primary Realtime Clock</Description><StartTime><Timestamp dt:dt=""int"">0</Timestamp><DateUtc dt:dt=""string"">2014-05-05T20:52:16Z</DateUtc></StartTime><FrequencyChanges><FrequencyChange><Frequency dt:dt=""r8"">2793020000</Frequency><Timestamp dt:dt=""r8"">830526527940917</Timestamp><Current dt:dt=""r8"">0</Current><DateUtc dt:dt=""string"">2014-05-05T20:52:16Z</DateUtc></FrequencyChange></FrequencyChanges></Clock>\n",60.03,1,324408130,0,,-999999,12,12322,t,72070,84392,5/5/2014,13:52:16,8:52:16 PM,1,Session1,SessionsList,,,,,,,,,,1,1,1,1,84403,,,,1,1,1,,,,Cued1,MiniBlocks1,,,,,2,1,b,-999999,11,111406,b,348,111754,White,Congruent,b,Green,0,,0,11,104393,,0,0,2,1,2,,,,,,,,,,Pictures\green.bmp,6000,2000,Pictures\black.bmp,,,,,,,,,,,,,StimulusPr,Pictures\right.bmp,CuedStim1,Right
POP_2,27012,1,"<?xml version=""1.0""?>\n<Clock xmlns:dt=""urn:schemas-microsoft-com:datatypes""><Description dt:dt=""string"">E-Prime Primary Realtime Clock</Description><StartTime><Timestamp dt:dt=""int"">0</Timestamp><DateUtc dt:dt=""string"">2014-05-05T20:52:16Z</DateUtc></StartTime><FrequencyChanges><FrequencyChange><Frequency dt:dt=""r8"">2793020000</Frequency><Timestamp dt:dt=""r8"">830526527940917</Timestamp><Current dt:dt=""r8"">0</Current><DateUtc dt:dt=""string"">2014-05-05T20:52:16Z</DateUtc></FrequencyChange></FrequencyChanges></Clock>\n",60.03,1,324408130,0,,-999999,12,12322,t,72070,84392,5/5/2014,13:52:16,8:52:16 PM,1,Session1,SessionsList,,,,,,,,,,1,1,1,1,84403,,,,1,1,1,,,,Cued1,MiniBlocks1,,,,,3,1,b,-999999,7,119402,b,326,119728,White,Congruent,b,Green,0,,0,9,115404,,0,0,3,1,3,,,,,,,,,,Pictures\green.bmp,3000,2000,Pictures\black.bmp,,,,,,,,,,,,,StimulusPr,Pictures\right.bmp,CuedStim1,Right
POP_2,27012,1,"<?xml version=""1.0""?>\n<Clock xmlns:dt=""urn:schemas-microsoft-com:datatypes""><Description dt:dt=""string"">E-Prime Primary Realtime Clock</Description><StartTime><Timestamp dt:dt=""int"">0</Timestamp><DateUtc dt:dt=""string"">2014-05-05T20:52:16Z</DateUtc></StartTime><FrequencyChanges><FrequencyChange><Frequency dt:dt=""r8"">2793020000</Frequency><Timestamp dt:dt=""r8"">830526527940917</Timestamp><Current dt:dt=""r8"">0</Current><DateUtc dt:dt=""string"">2014-05-05T20:52:16Z</DateUtc></FrequencyChange></FrequencyChanges></Clock>\n",60.03,1,324408130,0,,-999999,12,12322,t,72070,84392,5/5/2014,13:52:16,8:52:16 PM,1,Session1,SessionsList,,,,,,,,,,1,1,1,1,84403,,,,1,1,1,,,,Cued1,MiniBlocks1,,,,,4,0,b,-999999,5,127398,r,376,127774,White,Incongruent,b,Red,0,,0,5,123400,,0,0,4,1,4,,,,,,,,,,Pictures\red.bmp,3000,16000,Pictures\left.bmp,,,,,,,,,,,,,StimulusPr,Pictures\black.bmp,CuedStim1,Left
POP_2,27012,1,"<?xml version=""1.0""?>\n<Clock xmlns:dt=""urn:schemas-microsoft-com:datatypes""><Description dt:dt=""string"">E-Prime Primary Realtime Clock</Description><StartTime><Timestamp dt:dt=""int"">0</Timestamp><DateUtc dt:dt=""string"">2014-05-05T20:52:16Z</DateUtc></StartTime><FrequencyChanges><FrequencyChange><Frequency dt:dt=""r8"">2793020000</Frequency><Timestamp dt:dt=""r8"">830526527940917</Timestamp><Current dt:dt=""r8"">0</Current><DateUtc dt:dt=""string"">2014-05-05T20:52:16Z</DateUtc></FrequencyChange></FrequencyChanges></Clock>\n",60.03,1,324408130,0,,-999999,12,12322,t,72070,84392,5/5/2014,13:52:16,8:52:16 PM,1,Session1,SessionsList,,,,,,,,,,1,1,1,1,84403,,,,1,1,1,,,,Cued1,MiniBlocks1,,,,,5,1,r,-999999,8,149404,r,308,149712,White,Congruent,r,Green,0,,0,9,145390,,0,0,5,1,5,,,,,,,,,,Pictures\green.bmp,3000,16000,Pictures\left.bmp,,,,,,,,,,,,,StimulusPr,Pictures\black.bmp,CuedStim1,Left
POP_2,27012,1,"<?xml version=""1.0""?>\n<Clock xmlns:dt=""urn:schemas-microsoft-com:datatypes""><Description dt:dt=""string"">E-Prime Primary Realtime Clock</Description><StartTime><Timestamp dt:dt=""int"">0</Timestamp><DateUtc dt:dt=""string"">2014-05-05T20:52:16Z</DateUtc></StartTime><FrequencyChanges><FrequencyChange><Frequency dt:dt=""r8"">2793020000</Frequency><Timestamp dt:dt=""r8"">830526527940917</Timestamp><Current dt:dt=""r8"">0</Current><DateUtc dt:dt=""string"">2014-05-05T20:52:16Z</DateUtc></FrequencyChange></FrequencyChanges></Clock>\n",60.03,1,324408130,0,,-999999,12,12322,t,72070,84392,5/5/2014,13:52:16,8:52:16 PM,1,Session1,SessionsList,,,,,,,,,,1,1,1,1,84403,,,,1,1,1,,,,Cued1,MiniBlocks1,,,,,6,1,r,-999999,11,177407,r,415,177822,White,Congruent,r,Green,0,,0,16,167412,,0,0,6,1,6,,,,,,,,,,Pictures\green.bmp,9000,10000,Pictures\left.bmp,,,,,,,,,,,,,StimulusPr,Pictures\black.bmp,CuedStim1,Left
POP_2,27012,1,"<?xml version=""1.0""?>\n<Clock xmlns:dt=""urn:schemas-microsoft-com:datatypes""><Description dt:dt=""string"">E-Prime Primary Realtime Clock</Description><StartTime><Timestamp dt:dt=""int"">0</Timestamp><DateUtc dt:dt=""string"">2014-05-05T20:52:16Z</DateUtc></StartTime><FrequencyChanges><FrequencyChange><Frequency dt:dt=""r8"">2793020000</Frequency><Timestamp dt:dt=""r8"">830526527940917</Timestamp><Current dt:dt=""r8"">0</Current><DateUtc dt:dt=""string"">2014-05-05T20:52:16Z</DateUtc></FrequencyChange></FrequencyChanges></Clock>\n",60.03,1,324408130,0,,-999999,12,12322,t,72070,84392,5/5/2014,13:52:16,8:52:16 PM,1,Session1,SessionsList,,,,,,,,,,1,1,1,1,84403,,,,1,1,1,,,,Cued1,MiniBlocks1,,,,,7,1,b,-999999,4,193399,b,312,193711,White,Congruent,b,Green,0,,0,5,189401,,0,0,7,1,7,,,,,,,,,,Pictures\green.bmp,3000,16000,Pictures\black.bmp,,,,,,,,,,,,,StimulusPr,Pictures\right.bmp,CuedStim1,Right
POP_2,27012,1,"<?xml version=""1.0""?>\n<Clock xmlns:dt=""urn:schemas-microsoft-com:datatypes""><Description dt:dt=""string"">E-Prime Primary Realtime Clock</Description><StartTime><Timestamp dt:dt=""int"">0</Timestamp><DateUtc dt:dt=""string"">2014-05-05T20:52:16Z</DateUtc></StartTime><FrequencyChanges><FrequencyChange><Frequency dt:dt=""r8"">2793020000</Frequency><Timestamp dt:dt=""r8"">830526527940917</Timestamp><Current dt:dt=""r8"">0</Current><DateUtc dt:dt=""string"">2014-05-05T20:52:16Z</DateUtc></FrequencyChange></FrequencyChanges></Clock>\n",60.03,1,324408130,0,,-999999,12,12322,t,72070,84392,5/5/2014,13:52:16,8:52:16 PM,1,Session1,SessionsList,,,,,,,,,,1,1,1,1,84403,,,,1,1,1,,,,Cued1,MiniBlocks1,,,,,8,1,r,-999999,6,216388,r,457,216845,White,Incongruent,r,Red,0,,0,12,211407,,0,0,8,1,8,,,,,,,,,,Pictures\red.bmp,4000,2000,Pictures\black.bmp,,,,,,,,,,,,,StimulusPr,Pictures\right.bmp,CuedStim1,Right
POP_2,27012,1,"<?xml version=""1.0""?>\n<Clock xmlns:dt=""urn:schemas-microsoft-com:datatypes""><Description dt:dt=""string"">E-Prime Primary Realtime Clock</Description><StartTime><Timestamp dt:dt=""int"">0</Timestamp><DateUtc dt:dt=""string"">2014-05-05T20:52:16Z</DateUtc></StartTime><FrequencyChanges><FrequencyChange><Frequency dt:dt=""r8"">2793020000</Frequency><Timestamp dt:dt=""r8"">830526527940917</Timestamp><Current dt:dt=""r8"">0</Current><DateUtc dt:dt=""string"">2014-05-05T20:52:16Z</DateUtc></FrequencyChange></FrequencyChanges></Clock>\n",60.03,1,324408130,0,,-999999,12,12322,t,72070,84392,5/5/2014,13:52:16,8:52:16 PM,1,Session1,SessionsList,,,,,,,,,,1,1,1,1,84403,,,,1,1,1,,,,Cued1,MiniBlocks1,,,,,9,1,b,-999999,18,225400,b,334,225734,White,Congruent,b,Green,0,,0,7,220402,,0,0,9,1,9,,,,,,,,,,Pictures\green.bmp,4000,2000,Pictures\black.bmp,,,,,,,,,,,,,StimulusPr,Pictures\right.bmp,CuedStim1,Right
POP_2,27012,1,"<?xml version=""1.0""?>\n<Clock xmlns:dt=""urn:schemas-microsoft-com:datatypes""><Description dt:dt=""string"">E-Prime Primary Realtime Clock</Description><StartTime><Timestamp dt:dt=""int"">0</Timestamp><DateUtc dt:dt=""string"">2014-05-05T20:52:16Z</DateUtc></StartTime><FrequencyChanges><FrequencyChange><Frequency dt:dt=""r8"">2793020000</Frequency><Timestamp dt:dt=""r8"">830526527940917</Timestamp><Current dt:dt=""r8"">0</Current><DateUtc dt:dt=""string"">2014-05-05T20:52:16Z</DateUtc></FrequencyChange></FrequencyChanges></Clock>\n",60.03,1,324408130,0,,-999999,12,12322,t,72070,84392,5/5/2014,13:52:16,8:52:16 PM,1,Session1,SessionsList,,,,,,,,,,1,1,1,1,84403,,,,1,1,1,,,,Cued1,MiniBlocks1,,,,,10,1,r,-999999,17,233413,r,512,233925,White,Congruent,r,Green,0,,0,17,229398,,0,0,10,1,10,,,,,,,,,,Pictures\green.bmp,3000,2000,Pictures\left.bmp,,,,,,,,,,,,,StimulusPr,Pictures\black.bmp,CuedStim1,Left
POP_2,27012,1,"<?xml version=""1.0""?>\n<Clock xmlns:dt=""urn:schemas-microsoft-com:datatypes""><Description dt:dt=""string"">E-Prime Primary Realtime Clock</Description><StartTime><Timestamp dt:dt=""int"">0</Timestamp><DateUtc dt:dt=""string"">2014-05-05T20:52:16Z</DateUtc></StartTime><FrequencyChanges><FrequencyChange><Frequency dt:dt=""r8"">2793020000</Frequency><Timestamp dt:dt=""r8"">830526527940917</Timestamp><Current dt:dt=""r8"">0</Current><DateUtc dt:dt=""string"">2014-05-05T20:52:16Z</DateUtc></FrequencyChange></FrequencyChanges></Clock>\n",60.03,1,324408130,0,,-999999,12,12322,t,72070,84392,5/5/2014,13:52:16,8:52:16 PM,1,Session1,SessionsList,,,,,,,,,,1,1,1,2,,,,,2,1,2,,,,NonCued1,MiniBlocks1,235945,,,,1,0,r,-999999,7,251404,b,438,251842,Green,Congruent,r,White,0,,0,10,246406,,0,0,,,,,,,,,,,,,Pictures\white.bmp,4000,2000,Pictures\GreenLeft.bmp,1,1,1,,,,,,,,,,StimulusPr,Pictures\black.bmp,NonCuedStim1,Left
POP_2,27012,1,"<?xml version=""1.0""?>\n<Clock xmlns:dt=""urn:schemas-microsoft-com:datatypes""><Description dt:dt=""string"">E-Prime Primary Realtime Clock</Description><StartTime><Timestamp dt:dt=""int"">0</Timestamp><DateUtc dt:dt=""string"">2014-05-05T20:52:16Z</DateUtc></StartTime><FrequencyChanges><FrequencyChange><Frequency dt:dt=""r8"">2793020000</Frequency><Timestamp dt:dt=""r8"">830526527940917</Timestamp><Current dt:dt=""r8"">0</Current><DateUtc dt:dt=""string"">2014-05-05T20:52:16Z</DateUtc></FrequencyChange></FrequencyChanges></Clock>\n",60.03,1,324408130,0,,-999999,12,12322,t,72070,84392,5/5/2014,13:52:16,8:52:16 PM,1,Session1,SessionsList,,,,,,,,,,1,1,1,2,,,,,2,1,2,,,,NonCued1,MiniBlocks1,235945,,,,2,1,b,-999999,11,262398,b,526,262924,Green,Congruent,b,White,0,,0,5,255402,,0,0,,,,,,,,,,,,,Pictures\white.bmp,6000,16000,Pictures\black.bmp,2,1,2,,,,,,,,,,StimulusPr,Pictures\GreenRight.bmp,NonCuedStim1,Right
POP_2,27012,1,"<?xml version=""1.0""?>\n<Clock xmlns:dt=""urn:schemas-microsoft-com:datatypes""><Description dt:dt=""string"">E-Prime Primary Realtime Clock</Description><StartTime><Timestamp dt:dt=""int"">0</Timestamp><DateUtc dt:dt=""string"">2014-05-05T20:52:16Z</DateUtc></StartTime><FrequencyChanges><FrequencyChange><Frequency dt:dt=""r8"">2793020000</Frequency><Timestamp dt:dt=""r8"">830526527940917</Timestamp><Current dt:dt=""r8"">0</Current><DateUtc dt:dt=""string"">2014-05-05T20:52:16Z</DateUtc></FrequencyChange></FrequencyChanges></Clock>\n",60.03,1,324408130,0,,-999999,12,12322,t,72070,84392,5/5/2014,13:52:16,8:52:16 PM,1,Session1,SessionsList,,,,,,,,,,1,1,1,2,,,,,2,1,2,,,,NonCued1,MiniBlocks1,235945,,,,3,0,r,-999999,5,287402,b,438,287840,Red,Incongruent,r,White,0,,0,2,280389,,0,0,,,,,,,,,,,,,Pictures\white.bmp,6000,10000,Pictures\black.bmp,3,1,3,,,,,,,,,,StimulusPr,Pictures\RedRight.bmp,NonCuedStim1,Right
POP_2,27012,1,"<?xml version=""1.0""?>\n<Clock xmlns:dt=""urn:schemas-microsoft-com:datatypes""><Description dt:dt=""string"">E-Prime Primary Realtime Clock</Description><StartTime><Timestamp dt:dt=""int"">0</Timestamp><DateUtc dt:dt=""string"">2014-05-05T20:52:16Z</DateUtc></StartTime><FrequencyChanges><FrequencyChange><Frequency dt:dt=""r8"">2793020000</Frequency><Timestamp dt:dt=""r8"">830526527940917</Timestamp><Current dt:dt=""r8"">0</Current><DateUtc dt:dt=""string"">2014-05-05T20:52:16Z</DateUtc></FrequencyChange></FrequencyChanges></Clock>\n",60.03,1,324408130,0,,-999999,12,12322,t,72070,84392,5/5/2014,13:52:16,8:52:16 PM,1,Session1,SessionsList,,,,,,,,,,1,1,1,2,,,,,2,1,2,,,,NonCued1,MiniBlocks1,235945,,,,4,1,r,-999999,13,309408,r,422,309830,Green,Congruent,r,White,0,,0,17,299413,,0,0,,,,,,,,,,,,,Pictures\white.bmp,9000,10000,Pictures\GreenLeft.bmp,4,1,4,,,,,,,,,,StimulusPr,Pictures\black.bmp,NonCuedStim1,Left
POP_2,27012,1,"<?xml version=""1.0""?>\n<Clock xmlns:dt=""urn:schemas-microsoft-com:datatypes""><Description dt:dt=""string"">E-Prime Primary Realtime Clock</Description><StartTime><Timestamp dt:dt=""int"">0</Timestamp><DateUtc dt:dt=""string"">2014-05-05T20:52:16Z</DateUtc></StartTime><FrequencyChanges><FrequencyChange><Frequency dt:dt=""r8"">2793020000</Frequency><Timestamp dt:dt=""r8"">830526527940917</Timestamp><Current dt:dt=""r8"">0</Current><DateUtc dt:dt=""string"">2014-05-05T20:52:16Z</DateUtc></FrequencyChange></FrequencyChanges></Clock>\n",60.03,1,324408130,0,,-999999,12,12322,t,72070,84392,5/5/2014,13:52:16,8:52:16 PM,1,Session1,SessionsList,,,,,,,,,,1,1,1,2,,,,,2,1,2,,,,NonCued1,MiniBlocks1,235945,,,,5,0,b,-999999,3,325400,r,456,325856,Green,Congruent,b,White,0,,0,5,321402,,0,0,,,,,,,,,,,,,Pictures\white.bmp,3000,2000,Pictures\black.bmp,5,1,5,,,,,,,,,,StimulusPr,Pictures\GreenRight.bmp,NonCuedStim1,Right
POP_2,27012,1,"<?xml version=""1.0""?>\n<Clock xmlns:dt=""urn:schemas-microsoft-com:datatypes""><Description dt:dt=""string"">E-Prime Primary Realtime Clock</Description><StartTime><Timestamp dt:dt=""int"">0</Timestamp><DateUtc dt:dt=""string"">2014-05-05T20:52:16Z</DateUtc></StartTime><FrequencyChanges><FrequencyChange><Frequency dt:dt=""r8"">2793020000</Frequency><Timestamp dt:dt=""r8"">830526527940917</Timestamp><Current dt:dt=""r8"">0</Current><DateUtc dt:dt=""string"">2014-05-05T20:52:16Z</DateUtc></FrequencyChange></FrequencyChanges></Clock>\n",60.03,1,324408130,0,,-999999,12,12322,t,72070,84392,5/5/2014,13:52:16,8:52:16 PM,1,Session1,SessionsList,,,,,,,,,,1,1,1,2,,,,,2,1,2,,,,NonCued1,MiniBlocks1,235945,,,,6,0,b,-999999,15,334412,r,574,334986,Red,Incongruent,b,White,0,,0,17,329398,,0,0,,,,,,,,,,,,,Pictures\white.bmp,4000,16000,Pictures\RedLeft.bmp,6,1,6,,,,,,,,,,StimulusPr,Pictures\black.bmp,NonCuedStim1,Left
POP_2,27012,1,"<?xml version=""1.0""?>\n<Clock xmlns:dt=""urn:schemas-microsoft-com:datatypes""><Description dt:dt=""string"">E-Prime Primary Realtime Clock</Description><StartTime><Timestamp dt:dt=""int"">0</Timestamp><DateUtc dt:dt=""string"">2014-05-05T20:52:16Z</DateUtc></StartTime><FrequencyChanges><FrequencyChange><Frequency dt:dt=""r8"">2793020000</Frequency><Timestamp dt:dt=""r8"">830526527940917</Timestamp><Current dt:dt=""r8"">0</Current><DateUtc dt:dt=""string"">2014-05-05T20:52:16Z</DateUtc></FrequencyChange></FrequencyChanges></Clock>\n",60.03,1,324408130,0,,-999999,12,12322,t,72070,84392,5/5/2014,13:52:16,8:52:16 PM,1,Session1,SessionsList,,,,,,,,,,1,1,1,2,,,,,2,1,2,,,,NonCued1,MiniBlocks1,235945,,,,7,1,b,-999999,5,356402,b,339,356741,Green,Congruent,b,White,0,,0,12,352404,,0,0,,,,,,,,,,,,,Pictures\white.bmp,3000,4000,Pictures\black.bmp,7,1,7,,,,,,,,,,StimulusPr,Pictures\GreenRight.bmp,NonCuedStim1,Right
POP_2,27012,1,"<?xml version=""1.0""?>\n<Clock xmlns:dt=""urn:schemas-microsoft-com:datatypes""><Description dt:dt=""string"">E-Prime Primary Realtime Clock</Description><StartTime><Timestamp dt:dt=""int"">0</Timestamp><DateUtc dt:dt=""string"">2014-05-05T20:52:16Z</DateUtc></StartTime><FrequencyChanges><FrequencyChange><Frequency dt:dt=""r8"">2793020000</Frequency><Timestamp dt:dt=""r8"">830526527940917</Timestamp><Current dt:dt=""r8"">0</Current><DateUtc dt:dt=""string"">2014-05-05T20:52:16Z</DateUtc></FrequencyChange></FrequencyChanges></Clock>\n",60.03,1,324408130,0,,-999999,12,12322,t,72070,84392,5/5/2014,13:52:16,8:52:16 PM,1,Session1,SessionsList,,,,,,,,,,1,1,1,2,,,,,2,1,2,,,,NonCued1,MiniBlocks1,235945,,,,8,1,b,-999999,16,366413,b,442,366855,Green,Congruent,b,White,0,,0,2,362399,,0,0,,,,,,,,,,,,,Pictures\white.bmp,3000,4000,Pictures\black.bmp,8,1,8,,,,,,,,,,StimulusPr,Pictures\GreenRight.bmp,NonCuedStim1,Right
POP_2,27012,1,"<?xml version=""1.0""?>\n<Clock xmlns:dt=""urn:schemas-microsoft-com:datatypes""><Description dt:dt=""string"">E-Prime Primary Realtime Clock</Description><StartTime><Timestamp dt:dt=""int"">0</Timestamp><DateUtc dt:dt=""string"">2014-05-05T20:52:16Z</DateUtc></StartTime><FrequencyChanges><FrequencyChange><Frequency dt:dt=""r8"">2793020000</Frequency><Timestamp dt:dt=""r8"">830526527940917</Timestamp><Current dt:dt=""r8"">0</Current><DateUtc dt:dt=""string"">2014-05-05T20:52:16Z</DateUtc></FrequencyChange></FrequencyChanges></Clock>\n",60.03,1,324408130,0,,-999999,12,12322,t,72070,84392,5/5/2014,13:52:16,8:52:16 PM,1,Session1,SessionsList,,,,,,,,,,1,1,1,2,,,,,2,1,2,,,,NonCued1,MiniBlocks1,235945,,,,9,1,b,-999999,8,382405,b,421,382826,Red,Incongruent,b,White,0,,0,6,372394,,0,0,,,,,,,,,,,,,Pictures\white.bmp,9000,2000,Pictures\RedLeft.bmp,9,1,9,,,,,,,,,,StimulusPr,Pictures\black.bmp,NonCuedStim1,Left
POP_2,27012,1,"<?xml version=""1.0""?>\n<Clock xmlns:dt=""urn:schemas-microsoft-com:datatypes""><Description dt:dt=""string"">E-Prime Primary Realtime Clock</Description><StartTime><Timestamp dt:dt=""int"">0</Timestamp><DateUtc dt:dt=""string"">2014-05-05T20:52:16Z</DateUtc></StartTime><FrequencyChanges><FrequencyChange><Frequency dt:dt=""r8"">2793020000</Frequency><Timestamp dt:dt=""r8"">830526527940917</Timestamp><Current dt:dt=""r8"">0</Current><DateUtc dt:dt=""string"">2014-05-05T20:52:16Z</DateUtc></FrequencyChange></FrequencyChanges></Clock>\n",60.03,1,324408130,0,,-999999,12,12322,t,72070,84392,5/5/2014,13:52:16,8:52:16 PM,1,Session1,SessionsList,,,,,,,,,,1,1,1,2,,,,,2,1,2,,,,NonCued1,MiniBlocks1,235945,,,,10,1,r,-999999,3,393400,r,473,393873,Green,Congruent,r,White,0,,0,17,386403,,0,0,,,,,,,,,,,,,Pictures\white.bmp,6000,2000,Pictures\GreenLeft.bmp,10,1,10,,,,,,,,,,StimulusPr,Pictures\black.bmp,NonCuedStim1,Left
POP_2,27012,1,"<?xml version=""1.0""?>\n<Clock xmlns:dt=""urn:schemas-microsoft-com:datatypes""><Description dt:dt=""string"">E-Prime Primary Realtime Clock</Description><StartTime><Timestamp dt:dt=""int"">0</Timestamp><DateUtc dt:dt=""string"">2014-05-05T20:52:16Z</DateUtc></StartTime><FrequencyChanges><FrequencyChange><Frequency dt:dt=""r8"">2793020000</Frequency><Timestamp dt:dt=""r8"">830526527940917</Timestamp><Current dt:dt=""r8"">0</Current><DateUtc dt:dt=""string"">2014-05-05T20:52:16Z</DateUtc></FrequencyChange></FrequencyChanges></Clock>\n",60.03,1,324408130,0,,-999999,12,12322,t,72070,84392,5/5/2014,13:52:16,8:52:16 PM,1,Session1,SessionsList,,,,,,,,,,1,1,1,3,,,,,3,1,3,,,,NonCued2,MiniBlocks1,,395899,,,1,1,b,-999999,8,416405,b,358,416763,Green,Congruent,b,White,0,,0,13,406410,,0,0,,,,,,,,,,,,,Pictures\white.bmp,9000,10000,Pictures\black.bmp,,,,1,1,1,,,,,,,StimulusPr,Pictures\GreenRight.bmp,NonCuedStim2,Right
POP_2,27012,1,"<?xml version=""1.0""?>\n<Clock xmlns:dt=""urn:schemas-microsoft-com:datatypes""><Description dt:dt=""string"">E-Prime Primary Realtime Clock</Description><StartTime><Timestamp dt:dt=""int"">0</Timestamp><DateUtc dt:dt=""string"">2014-05-05T20:52:16Z</DateUtc></StartTime><FrequencyChanges><FrequencyChange><Frequency dt:dt=""r8"">2793020000</Frequency><Timestamp dt:dt=""r8"">830526527940917</Timestamp><Current dt:dt=""r8"">0</Current><DateUtc dt:dt=""string"">2014-05-05T20:52:16Z</DateUtc></FrequencyChange></FrequencyChanges></Clock>\n",60.03,1,324408130,0,,-999999,12,12322,t,72070,84392,5/5/2014,13:52:16,8:52:16 PM,1,Session1,SessionsList,,,,,,,,,,1,1,1,3,,,,,3,1,3,,,,NonCued2,MiniBlocks1,,395899,,,2,1,r,-999999,17,432414,r,457,432871,Green,Congruent,r,White,0,,0,2,428383,,0,0,,,,,,,,,,,,,Pictures\white.bmp,3000,2000,Pictures\GreenLeft.bmp,,,,2,1,2,,,,,,,StimulusPr,Pictures\black.bmp,NonCuedStim2,Left
POP_2,27012,1,"<?xml version=""1.0""?>\n<Clock xmlns:dt=""urn:schemas-microsoft-com:datatypes""><Description dt:dt=""string"">E-Prime Primary Realtime Clock</Description><StartTime><Timestamp dt:dt=""int"">0</Timestamp><DateUtc dt:dt=""string"">2014-05-05T20:52:16Z</DateUtc></StartTime><FrequencyChanges><FrequencyChange><Frequency dt:dt=""r8"">2793020000</Frequency><Timestamp dt:dt=""r8"">830526527940917</Timestamp><Current dt:dt=""r8"">0</Current><DateUtc dt:dt=""string"">2014-05-05T20:52:16Z</DateUtc></FrequencyChange></FrequencyChanges></Clock>\n",60.03,1,324408130,0,,-999999,12,12322,t,72070,84392,5/5/2014,13:52:16,8:52:16 PM,1,Session1,SessionsList,,,,,,,,,,1,1,1,3,,,,,3,1,3,,,,NonCued2,MiniBlocks1,,395899,,,3,1,r,-999999,13,440410,r,478,440888,Red,Incongruent,r,White,0,,0,15,436412,,0,0,,,,,,,,,,,,,Pictures\white.bmp,3000,2000,Pictures\black.bmp,,,,3,1,3,,,,,,,StimulusPr,Pictures\RedRight.bmp,NonCuedStim2,Right
POP_2,27012,1,"<?xml version=""1.0""?>\n<Clock xmlns:dt=""urn:schemas-microsoft-com:datatypes""><Description dt:dt=""string"">E-Prime Primary Realtime Clock</Description><StartTime><Timestamp dt:dt=""int"">0</Timestamp><DateUtc dt:dt=""string"">2014-05-05T20:52:16Z</DateUtc></StartTime><FrequencyChanges><FrequencyChange><Frequency dt:dt=""r8"">2793020000</Frequency><Timestamp dt:dt=""r8"">830526527940917</Timestamp><Current dt:dt=""r8"">0</Current><DateUtc dt:dt=""string"">2014-05-05T20:52:16Z</DateUtc></FrequencyChange></FrequencyChanges></Clock>\n",60.03,1,324408130,0,,-999999,12,12322,t,72070,84392,5/5/2014,13:52:16,8:52:16 PM,1,Session1,SessionsList,,,,,,,,,,1,1,1,3,,,,,3,1,3,,,,NonCued2,MiniBlocks1,,395899,,,4,1,r,-999999,8,449405,r,564,449969,Green,Congruent,r,White,0,,0,11,444408,,0,0,,,,,,,,,,,,,Pictures\white.bmp,4000,16000,Pictures\GreenLeft.bmp,,,,4,1,4,,,,,,,StimulusPr,Pictures\black.bmp,NonCuedStim2,Left
POP_2,27012,1,"<?xml version=""1.0""?>\n<Clock xmlns:dt=""urn:schemas-microsoft-com:datatypes""><Description dt:dt=""string"">E-Prime Primary Realtime Clock</Description><StartTime><Timestamp dt:dt=""int"">0</Timestamp><DateUtc dt:dt=""string"">2014-05-05T20:52:16Z</DateUtc></StartTime><FrequencyChanges><FrequencyChange><Frequency dt:dt=""r8"">2793020000</Frequency><Timestamp dt:dt=""r8"">830526527940917</Timestamp><Current dt:dt=""r8"">0</Current><DateUtc dt:dt=""string"">2014-05-05T20:52:16Z</DateUtc></FrequencyChange></FrequencyChanges></Clock>\n",60.03,1,324408130,0,,-999999,12,12322,t,72070,84392,5/5/2014,13:52:16,8:52:16 PM,1,Session1,SessionsList,,,,,,,,,,1,1,1,3,,,,,3,1,3,,,,NonCued2,MiniBlocks1,,395899,,,5,1,r,-999999,3,474393,r,399,474792,Green,Congruent,r,White,0,,0,16,467413,,0,0,,,,,,,,,,,,,Pictures\white.bmp,6000,4000,Pictures\GreenLeft.bmp,,,,5,1,5,,,,,,,StimulusPr,Pictures\black.bmp,NonCuedStim2,Left
POP_2,27012,1,"<?xml version=""1.0""?>\n<Clock xmlns:dt=""urn:schemas-microsoft-com:datatypes""><Description dt:dt=""string"">E-Prime Primary Realtime Clock</Description><StartTime><Timestamp dt:dt=""int"">0</Timestamp><DateUtc dt:dt=""string"">2014-05-05T20:52:16Z</DateUtc></StartTime><FrequencyChanges><FrequencyChange><Frequency dt:dt=""r8"">2793020000</Frequency><Timestamp dt:dt=""r8"">830526527940917</Timestamp><Current dt:dt=""r8"">0</Current><DateUtc dt:dt=""string"">2014-05-05T20:52:16Z</DateUtc></FrequencyChange></FrequencyChanges></Clock>\n",60.03,1,324408130,0,,-999999,12,12322,t,72070,84392,5/5/2014,13:52:16,8:52:16 PM,1,Session1,SessionsList,,,,,,,,,,1,1,1,3,,,,,3,1,3,,,,NonCued2,MiniBlocks1,,395899,,,6,1,b,-999999,5,484388,b,341,484729,Red,Incongruent,b,White,0,,0,10,480407,,0,0,,,,,,,,,,,,,Pictures\white.bmp,3000,4000,Pictures\RedLeft.bmp,,,,6,1,6,,,,,,,StimulusPr,Pictures\black.bmp,NonCuedStim2,Left
POP_2,27012,1,"<?xml version=""1.0""?>\n<Clock xmlns:dt=""urn:schemas-microsoft-com:datatypes""><Description dt:dt=""string"">E-Prime Primary Realtime Clock</Description><StartTime><Timestamp dt:dt=""int"">0</Timestamp><DateUtc dt:dt=""string"">2014-05-05T20:52:16Z</DateUtc></StartTime><FrequencyChanges><FrequencyChange><Frequency dt:dt=""r8"">2793020000</Frequency><Timestamp dt:dt=""r8"">830526527940917</Timestamp><Current dt:dt=""r8"">0</Current><DateUtc dt:dt=""string"">2014-05-05T20:52:16Z</DateUtc></FrequencyChange></FrequencyChanges></Clock>\n",60.03,1,324408130,0,,-999999,12,12322,t,72070,84392,5/5/2014,13:52:16,8:52:16 PM,1,Session1,SessionsList,,,,,,,,,,1,1,1,3,,,,,3,1,3,,,,NonCued2,MiniBlocks1,,395899,,,7,1,b,-999999,18,495416,b,282,495698,Green,Congruent,b,White,0,,0,6,490402,,0,0,,,,,,,,,,,,,Pictures\white.bmp,4000,16000,Pictures\black.bmp,,,,7,1,7,,,,,,,StimulusPr,Pictures\GreenRight.bmp,NonCuedStim2,Right
POP_2,27012,1,"<?xml version=""1.0""?>\n<Clock xmlns:dt=""urn:schemas-microsoft-com:datatypes""><Description dt:dt=""string"">E-Prime Primary Realtime Clock</Description><StartTime><Timestamp dt:dt=""int"">0</Timestamp><DateUtc dt:dt=""string"">2014-05-05T20:52:16Z</DateUtc></StartTime><FrequencyChanges><FrequencyChange><Frequency dt:dt=""r8"">2793020000</Frequency><Timestamp dt:dt=""r8"">830526527940917</Timestamp><Current dt:dt=""r8"">0</Current><DateUtc dt:dt=""string"">2014-05-05T20:52:16Z</DateUtc></FrequencyChange></FrequencyChanges></Clock>\n",60.03,1,324408130,0,,-999999,12,12322,t,72070,84392,5/5/2014,13:52:16,8:52:16 PM,1,Session1,SessionsList,,,,,,,,,,1,1,1,3,,,,,3,1,3,,,,NonCued2,MiniBlocks1,,395899,,,8,1,r,-999999,5,523402,r,313,523715,Green,Congruent,r,White,0,,0,10,513407,,0,0,,,,,,,,,,,,,Pictures\white.bmp,9000,2000,Pictures\GreenLeft.bmp,,,,8,1,8,,,,,,,StimulusPr,Pictures\black.bmp,NonCuedStim2,Left
POP_2,27012,1,"<?xml version=""1.0""?>\n<Clock xmlns:dt=""urn:schemas-microsoft-com:datatypes""><Description dt:dt=""string"">E-Prime Primary Realtime Clock</Description><StartTime><Timestamp dt:dt=""int"">0</Timestamp><DateUtc dt:dt=""string"">2014-05-05T20:52:16Z</DateUtc></StartTime><FrequencyChanges><FrequencyChange><Frequency dt:dt=""r8"">2793020000</Frequency><Timestamp dt:dt=""r8"">830526527940917</Timestamp><Current dt:dt=""r8"">0</Current><DateUtc dt:dt=""string"">2014-05-05T20:52:16Z</DateUtc></FrequencyChange></FrequencyChanges></Clock>\n",60.03,1,324408130,0,,-999999,12,12322,t,72070,84392,5/5/2014,13:52:16,8:52:16 PM,1,Session1,SessionsList,,,,,,,,,,1,1,1,3,,,,,3,1,3,,,,NonCued2,MiniBlocks1,,395899,,,9,1,b,-999999,18,531415,b,377,531792,Green,Congruent,b,White,0,,0,5,527400,,0,0,,,,,,,,,,,,,Pictures\white.bmp,3000,10000,Pictures\black.bmp,,,,9,1,9,,,,,,,StimulusPr,Pictures\GreenRight.bmp,NonCuedStim2,Right
POP_2,27012,1,"<?xml version=""1.0""?>\n<Clock xmlns:dt=""urn:schemas-microsoft-com:datatypes""><Description dt:dt=""string"">E-Prime Primary Realtime Clock</Description><StartTime><Timestamp dt:dt=""int"">0</Timestamp><DateUtc dt:dt=""string"">2014-05-05T20:52:16Z</DateUtc></StartTime><FrequencyChanges><FrequencyChange><Frequency dt:dt=""r8"">2793020000</Frequency><Timestamp dt:dt=""r8"">830526527940917</Timestamp><Current dt:dt=""r8"">0</Current><DateUtc dt:dt=""string"">2014-05-05T20:52:16Z</DateUtc></FrequencyChange></FrequencyChanges></Clock>\n",60.03,1,324408130,0,,-999999,12,12322,t,72070,84392,5/5/2014,13:52:16,8:52:16 PM,1,Session1,SessionsList,,,,,,,,,,1,1,1,3,,,,,3,1,3,,,,NonCued2,MiniBlocks1,,395899,,,10,1,b,-999999,10,547407,b,367,547774,Green,Congruent,b,White,0,,0,12,543409,,0,0,,,,,,,,,,,,,Pictures\white.bmp,3000,2000,Pictures\black.bmp,,,,10,1,10,,,,,,,StimulusPr,Pictures\GreenRight.bmp,NonCuedStim2,Right
POP_2,27012,1,"<?xml version=""1.0""?>\n<Clock xmlns:dt=""urn:schemas-microsoft-com:datatypes""><Description dt:dt=""string"">E-Prime Primary Realtime Clock</Description><StartTime><Timestamp dt:dt=""int"">0</Timestamp><DateUtc dt:dt=""string"">2014-05-05T20:52:16Z</DateUtc></StartTime><FrequencyChanges><FrequencyChange><Frequency dt:dt=""r8"">2793020000</Frequency><Timestamp dt:dt=""r8"">830526527940917</Timestamp><Current dt:dt=""r8"">0</Current><DateUtc dt:dt=""string"">2014-05-05T20:52:16Z</DateUtc></FrequencyChange></FrequencyChanges></Clock>\n",60.03,1,324408130,0,,-999999,12,12322,t,72070,84392,5/5/2014,13:52:16,8:52:16 PM,1,Session1,SessionsList,,,,,,,,,,1,1,1,4,,549806,,,4,1,4,,,,Cued2,MiniBlocks1,,,,,1,1,b,-999999,17,566414,b,330,566744,White,Congruent,b,Green,0,,0,4,559401,,0,0,,,,1,1,1,,,,,,,Pictures\green.bmp,6000,4000,Pictures\black.bmp,,,,,,,,,,,,,StimulusPr,Pictures\right.bmp,CuedStim2,Right
POP_2,27012,1,"<?xml version=""1.0""?>\n<Clock xmlns:dt=""urn:schemas-microsoft-com:datatypes""><Description dt:dt=""string"">E-Prime Primary Realtime Clock</Description><StartTime><Timestamp dt:dt=""int"">0</Timestamp><DateUtc dt:dt=""string"">2014-05-05T20:52:16Z</DateUtc></StartTime><FrequencyChanges><FrequencyChange><Frequency dt:dt=""r8"">2793020000</Frequency><Timestamp dt:dt=""r8"">830526527940917</Timestamp><Current dt:dt=""r8"">0</Current><DateUtc dt:dt=""string"">2014-05-05T20:52:16Z</DateUtc></FrequencyChange></FrequencyChanges></Clock>\n",60.03,1,324408130,0,,-999999,12,12322,t,72070,84392,5/5/2014,13:52:16,8:52:16 PM,1,Session1,SessionsList,,,,,,,,,,1,1,1,4,,549806,,,4,1,4,,,,Cued2,MiniBlocks1,,,,,2,1,b,-999999,8,582406,b,343,582749,White,Congruent,b,Green,0,,0,14,572411,,0,0,,,,2,1,2,,,,,,,Pictures\green.bmp,9000,10000,Pictures\black.bmp,,,,,,,,,,,,,StimulusPr,Pictures\right.bmp,CuedStim2,Right
POP_2,27012,1,"<?xml version=""1.0""?>\n<Clock xmlns:dt=""urn:schemas-microsoft-com:datatypes""><Description dt:dt=""string"">E-Prime Primary Realtime Clock</Description><StartTime><Timestamp dt:dt=""int"">0</Timestamp><DateUtc dt:dt=""string"">2014-05-05T20:52:16Z</DateUtc></StartTime><FrequencyChanges><FrequencyChange><Frequency dt:dt=""r8"">2793020000</Frequency><Timestamp dt:dt=""r8"">830526527940917</Timestamp><Current dt:dt=""r8"">0</Current><DateUtc dt:dt=""string"">2014-05-05T20:52:16Z</DateUtc></FrequencyChange></FrequencyChanges></Clock>\n",60.03,1,324408130,0,,-999999,12,12322,t,72070,84392,5/5/2014,13:52:16,8:52:16 PM,1,Session1,SessionsList,,,,,,,,,,1,1,1,4,,549806,,,4,1,4,,,,Cued2,MiniBlocks1,,,,,3,1,r,-999999,17,598415,r,502,598917,White,Incongruent,r,Red,0,,0,2,594400,,0,0,,,,3,1,3,,,,,,,Pictures\red.bmp,3000,2000,Pictures\black.bmp,,,,,,,,,,,,,StimulusPr,Pictures\right.bmp,CuedStim2,Right
POP_2,27012,1,"<?xml version=""1.0""?>\n<Clock xmlns:dt=""urn:schemas-microsoft-com:datatypes""><Description dt:dt=""string"">E-Prime Primary Realtime Clock</Description><StartTime><Timestamp dt:dt=""int"">0</Timestamp><DateUtc dt:dt=""string"">2014-05-05T20:52:16Z</DateUtc></StartTime><FrequencyChanges><FrequencyChange><Frequency dt:dt=""r8"">2793020000</Frequency><Timestamp dt:dt=""r8"">830526527940917</Timestamp><Current dt:dt=""r8"">0</Current><DateUtc dt:dt=""string"">2014-05-05T20:52:16Z</DateUtc></FrequencyChange></FrequencyChanges></Clock>\n",60.03,1,324408130,0,,-999999,12,12322,t,72070,84392,5/5/2014,13:52:16,8:52:16 PM,1,Session1,SessionsList,,,,,,,,,,1,1,1,4,,549806,,,4,1,4,,,,Cued2,MiniBlocks1,,,,,4,1,r,-999999,11,609393,r,360,609753,White,Congruent,r,Green,0,,0,15,602413,,0,0,,,,4,1,4,,,,,,,Pictures\green.bmp,6000,16000,Pictures\left.bmp,,,,,,,,,,,,,StimulusPr,Pictures\black.bmp,CuedStim2,Left
POP_2,27012,1,"<?xml version=""1.0""?>\n<Clock xmlns:dt=""urn:schemas-microsoft-com:datatypes""><Description dt:dt=""string"">E-Prime Primary Realtime Clock</Description><StartTime><Timestamp dt:dt=""int"">0</Timestamp><DateUtc dt:dt=""string"">2014-05-05T20:52:16Z</DateUtc></StartTime><FrequencyChanges><FrequencyChange><Frequency dt:dt=""r8"">2793020000</Frequency><Timestamp dt:dt=""r8"">830526527940917</Timestamp><Current dt:dt=""r8"">0</Current><DateUtc dt:dt=""string"">2014-05-05T20:52:16Z</DateUtc></FrequencyChange></FrequencyChanges></Clock>\n",60.03,1,324408130,0,,-999999,12,12322,t,72070,84392,5/5/2014,13:52:16,8:52:16 PM,1,Session1,SessionsList,,,,,,,,,,1,1,1,4,,549806,,,4,1,4,,,,Cued2,MiniBlocks1,,,,,5,1,b,-999999,18,631415,b,312,631727,White,Congruent,b,Green,0,,0,5,627401,,0,0,,,,5,1,5,,,,,,,Pictures\green.bmp,3000,2000,Pictures\black.bmp,,,,,,,,,,,,,StimulusPr,Pictures\right.bmp,CuedStim2,Right
POP_2,27012,1,"<?xml version=""1.0""?>\n<Clock xmlns:dt=""urn:schemas-microsoft-com:datatypes""><Description dt:dt=""string"">E-Prime Primary Realtime Clock</Description><StartTime><Timestamp dt:dt=""int"">0</Timestamp><DateUtc dt:dt=""string"">2014-05-05T20:52:16Z</DateUtc></StartTime><FrequencyChanges><FrequencyChange><Frequency dt:dt=""r8"">2793020000</Frequency><Timestamp dt:dt=""r8"">830526527940917</Timestamp><Current dt:dt=""r8"">0</Current><DateUtc dt:dt=""string"">2014-05-05T20:52:16Z</DateUtc></FrequencyChange></FrequencyChanges></Clock>\n",60.03,1,324408130,0,,-999999,12,12322,t,72070,84392,5/5/2014,13:52:16,8:52:16 PM,1,Session1,SessionsList,,,,,,,,,,1,1,1,4,,549806,,,4,1,4,,,,Cued2,MiniBlocks1,,,,,6,1,r,-999999,14,639411,r,476,639887,White,Congruent,r,Green,0,,0,15,635397,,0,0,,,,6,1,6,,,,,,,Pictures\green.bmp,3000,2000,Pictures\left.bmp,,,,,,,,,,,,,StimulusPr,Pictures\black.bmp,CuedStim2,Left
POP_2,27012,1,"<?xml version=""1.0""?>\n<Clock xmlns:dt=""urn:schemas-microsoft-com:datatypes""><Description dt:dt=""string"">E-Prime Primary Realtime Clock</Description><StartTime><Timestamp dt:dt=""int"">0</Timestamp><DateUtc dt:dt=""string"">2014-05-05T20:52:16Z</DateUtc></StartTime><FrequencyChanges><FrequencyChange><Frequency dt:dt=""r8"">2793020000</Frequency><Timestamp dt:dt=""r8"">830526527940917</Timestamp><Current dt:dt=""r8"">0</Current><DateUtc dt:dt=""string"">2014-05-05T20:52:16Z</DateUtc></FrequencyChange></FrequencyChanges></Clock>\n",60.03,1,324408130,0,,-999999,12,12322,t,72070,84392,5/5/2014,13:52:16,8:52:16 PM,1,Session1,SessionsList,,,,,,,,,,1,1,1,4,,549806,,,4,1,4,,,,Cued2,MiniBlocks1,,,,,7,1,b,-999999,5,650389,b,452,650841,White,Incongruent,b,Red,0,,0,9,643393,,0,0,,,,7,1,7,,,,,,,Pictures\red.bmp,6000,4000,Pictures\left.bmp,,,,,,,,,,,,,StimulusPr,Pictures\black.bmp,CuedStim2,Left
POP_2,27012,1,"<?xml version=""1.0""?>\n<Clock xmlns:dt=""urn:schemas-microsoft-com:datatypes""><Description dt:dt=""string"">E-Prime Primary Realtime Clock</Description><StartTime><Timestamp dt:dt=""int"">0</Timestamp><DateUtc dt:dt=""string"">2014-05-05T20:52:16Z</DateUtc></StartTime><FrequencyChanges><FrequencyChange><Frequency dt:dt=""r8"">2793020000</Frequency><Timestamp dt:dt=""r8"">830526527940917</Timestamp><Current dt:dt=""r8"">0</Current><DateUtc dt:dt=""string"">2014-05-05T20:52:16Z</DateUtc></FrequencyChange></FrequencyChanges></Clock>\n",60.03,1,324408130,0,,-999999,12,12322,t,72070,84392,5/5/2014,13:52:16,8:52:16 PM,1,Session1,SessionsList,,,,,,,,,,1,1,1,4,,549806,,,4,1,4,,,,Cued2,MiniBlocks1,,,,,8,1,b,-999999,6,661400,b,392,661792,White,Congruent,b,Green,0,,0,6,656403,,0,0,,,,8,1,8,,,,,,,Pictures\green.bmp,4000,4000,Pictures\black.bmp,,,,,,,,,,,,,StimulusPr,Pictures\right.bmp,CuedStim2,Right
POP_2,27012,1,"<?xml version=""1.0""?>\n<Clock xmlns:dt=""urn:schemas-microsoft-com:datatypes""><Description dt:dt=""string"">E-Prime Primary Realtime Clock</Description><StartTime><Timestamp dt:dt=""int"">0</Timestamp><DateUtc dt:dt=""string"">2014-05-05T20:52:16Z</DateUtc></StartTime><FrequencyChanges><FrequencyChange><Frequency dt:dt=""r8"">2793020000</Frequency><Timestamp dt:dt=""r8"">830526527940917</Timestamp><Current dt:dt=""r8"">0</Current><DateUtc dt:dt=""string"">2014-05-05T20:52:16Z</DateUtc></FrequencyChange></FrequencyChanges></Clock>\n",60.03,1,324408130,0,,-999999,12,12322,t,72070,84392,5/5/2014,13:52:16,8:52:16 PM,1,Session1,SessionsList,,,,,,,,,,1,1,1,4,,549806,,,4,1,4,,,,Cued2,MiniBlocks1,,,,,9,1,b,-999999,4,677392,b,362,677754,White,Incongruent,b,Red,0,,0,15,667397,,0,0,,,,9,1,9,,,,,,,Pictures\red.bmp,9000,10000,Pictures\left.bmp,,,,,,,,,,,,,StimulusPr,Pictures\black.bmp,CuedStim2,Left
POP_2,27012,1,"<?xml version=""1.0""?>\n<Clock xmlns:dt=""urn:schemas-microsoft-com:datatypes""><Description dt:dt=""string"">E-Prime Primary Realtime Clock</Description><StartTime><Timestamp dt:dt=""int"">0</Timestamp><DateUtc dt:dt=""string"">2014-05-05T20:52:16Z</DateUtc></StartTime><FrequencyChanges><FrequencyChange><Frequency dt:dt=""r8"">2793020000</Frequency><Timestamp dt:dt=""r8"">830526527940917</Timestamp><Current dt:dt=""r8"">0</Current><DateUtc dt:dt=""string"">2014-05-05T20:52:16Z</DateUtc></FrequencyChange></FrequencyChanges></Clock>\n",60.03,1,324408130,0,,-999999,12,12322,t,72070,84392,5/5/2014,13:52:16,8:52:16 PM,1,Session1,SessionsList,,,,,,,,,,1,1,1,4,,549806,,,4,1,4,,,,Cued2,MiniBlocks1,,,,,10,0,r,-999999,13,699398,b,502,699900,White,Congruent,r,Green,0,,0,4,689403,,0,0,,,,10,1,10,,,,,,,Pictures\green.bmp,9000,10000,Pictures\left.bmp,,,,,,,,,,,,,StimulusPr,Pictures\black.bmp,CuedStim2,Left
POP_2,27012,1,"<?xml version=""1.0""?>\n<Clock xmlns:dt=""urn:schemas-microsoft-com:datatypes""><Description dt:dt=""string"">E-Prime Primary Realtime Clock</Description><StartTime><Timestamp dt:dt=""int"">0</Timestamp><DateUtc dt:dt=""string"">2014-05-05T20:52:16Z</DateUtc></StartTime><FrequencyChanges><FrequencyChange><Frequency dt:dt=""r8"">2793020000</Frequency><Timestamp dt:dt=""r8"">830526527940917</Timestamp><Current dt:dt=""r8"">0</Current><DateUtc dt:dt=""string"">2014-05-05T20:52:16Z</DateUtc></FrequencyChange></FrequencyChanges></Clock>\n",60.03,1,324408130,0,,-999999,12,12322,t,72070,84392,5/5/2014,13:52:16,8:52:16 PM,2,Session2,SessionsList,0,,-999999,17,727268,t,37678,764946,709926,2,1,2,1,,,,,,,,1,1,1,NonCued3,MiniBlocks2,,,764949,,1,1,b,-999999,10,784956,b,513,785469,Green,Congruent,b,White,0,,0,15,774961,,0,0,,,,,,,,,,,,,Pictures\white.bmp,9000,10000,Pictures\black.bmp,,,,,,,1,1,1,,,,StimulusPr,Pictures\GreenRight.bmp,NonCuedStim3,Right
POP_2,27012,1,"<?xml version=""1.0""?>\n<Clock xmlns:dt=""urn:schemas-microsoft-com:datatypes""><Description dt:dt=""string"">E-Prime Primary Realtime Clock</Description><StartTime><Timestamp dt:dt=""int"">0</Timestamp><DateUtc dt:dt=""string"">2014-05-05T20:52:16Z</DateUtc></StartTime><FrequencyChanges><FrequencyChange><Frequency dt:dt=""r8"">2793020000</Frequency><Timestamp dt:dt=""r8"">830526527940917</Timestamp><Current dt:dt=""r8"">0</Current><DateUtc dt:dt=""string"">2014-05-05T20:52:16Z</DateUtc></FrequencyChange></FrequencyChanges></Clock>\n",60.03,1,324408130,0,,-999999,12,12322,t,72070,84392,5/5/2014,13:52:16,8:52:16 PM,2,Session2,SessionsList,0,,-999999,17,727268,t,37678,764946,709926,2,1,2,1,,,,,,,,1,1,1,NonCued3,MiniBlocks2,,,764949,,2,0,r,-999999,17,806978,b,393,807371,Red,Incongruent,r,White,0,,0,14,796967,,0,0,,,,,,,,,,,,,Pictures\white.bmp,9000,10000,Pictures\black.bmp,,,,,,,2,1,2,,,,StimulusPr,Pictures\RedRight.bmp,NonCuedStim3,Right
POP_2,27012,1,"<?xml version=""1.0""?>\n<Clock xmlns:dt=""urn:schemas-microsoft-com:datatypes""><Description dt:dt=""string"">E-Prime Primary Realtime Clock</Description><StartTime><Timestamp dt:dt=""int"">0</Timestamp><DateUtc dt:dt=""string"">2014-05-05T20:52:16Z</DateUtc></StartTime><FrequencyChanges><FrequencyChange><Frequency dt:dt=""r8"">2793020000</Frequency><Timestamp dt:dt=""r8"">830526527940917</Timestamp><Current dt:dt=""r8"">0</Current><DateUtc dt:dt=""string"">2014-05-05T20:52:16Z</DateUtc></FrequencyChange></FrequencyChanges></Clock>\n",60.03,1,324408130,0,,-999999,12,12322,t,72070,84392,5/5/2014,13:52:16,8:52:16 PM,2,Session2,SessionsList,0,,-999999,17,727268,t,37678,764946,709926,2,1,2,1,,,,,,,,1,1,1,NonCued3,MiniBlocks2,,,764949,,3,1,r,-999999,9,823970,r,414,824384,Green,Congruent,r,White,0,,0,11,818972,,0,0,,,,,,,,,,,,,Pictures\white.bmp,4000,4000,Pictures\GreenLeft.bmp,,,,,,,3,1,3,,,,StimulusPr,Pictures\black.bmp,NonCuedStim3,Left
POP_2,27012,1,"<?xml version=""1.0""?>\n<Clock xmlns:dt=""urn:schemas-microsoft-com:datatypes""><Description dt:dt=""string"">E-Prime Primary Realtime Clock</Description><StartTime><Timestamp dt:dt=""int"">0</Timestamp><DateUtc dt:dt=""string"">2014-05-05T20:52:16Z</DateUtc></StartTime><FrequencyChanges><FrequencyChange><Frequency dt:dt=""r8"">2793020000</Frequency><Timestamp dt:dt=""r8"">830526527940917</Timestamp><Current dt:dt=""r8"">0</Current><DateUtc dt:dt=""string"">2014-05-05T20:52:16Z</DateUtc></FrequencyChange></FrequencyChanges></Clock>\n",60.03,1,324408130,0,,-999999,12,12322,t,72070,84392,5/5/2014,13:52:16,8:52:16 PM,2,Session2,SessionsList,0,,-999999,17,727268,t,37678,764946,709926,2,1,2,1,,,,,,,,1,1,1,NonCued3,MiniBlocks2,,,764949,,4,0,b,-999999,19,836980,r,384,837364,Red,Incongruent,b,White,0,,0,6,829967,,0,0,,,,,,,,,,,,,Pictures\white.bmp,6000,4000,Pictures\RedLeft.bmp,,,,,,,4,1,4,,,,StimulusPr,Pictures\black.bmp,NonCuedStim3,Left
POP_2,27012,1,"<?xml version=""1.0""?>\n<Clock xmlns:dt=""urn:schemas-microsoft-com:datatypes""><Description dt:dt=""string"">E-Prime Primary Realtime Clock</Description><StartTime><Timestamp dt:dt=""int"">0</Timestamp><DateUtc dt:dt=""string"">2014-05-05T20:52:16Z</DateUtc></StartTime><FrequencyChanges><FrequencyChange><Frequency dt:dt=""r8"">2793020000</Frequency><Timestamp dt:dt=""r8"">830526527940917</Timestamp><Current dt:dt=""r8"">0</Current><DateUtc dt:dt=""string"">2014-05-05T20:52:16Z</DateUtc></FrequencyChange></FrequencyChanges></Clock>\n",60.03,1,324408130,0,,-999999,12,12322,t,72070,84392,5/5/2014,13:52:16,8:52:16 PM,2,Session2,SessionsList,0,,-999999,17,727268,t,37678,764946,709926,2,1,2,1,,,,,,,,1,1,1,NonCued3,MiniBlocks2,,,764949,,5,1,b,-999999,13,846975,b,548,847523,Green,Congruent,b,White,0,,0,13,842960,,0,0,,,,,,,,,,,,,Pictures\white.bmp,3000,2000,Pictures\black.bmp,,,,,,,5,1,5,,,,StimulusPr,Pictures\GreenRight.bmp,NonCuedStim3,Right
POP_2,27012,1,"<?xml version=""1.0""?>\n<Clock xmlns:dt=""urn:schemas-microsoft-com:datatypes""><Description dt:dt=""string"">E-Prime Primary Realtime Clock</Description><StartTime><Timestamp dt:dt=""int"">0</Timestamp><DateUtc dt:dt=""string"">2014-05-05T20:52:16Z</DateUtc></StartTime><FrequencyChanges><FrequencyChange><Frequency dt:dt=""r8"">2793020000</Frequency><Timestamp dt:dt=""r8"">830526527940917</Timestamp><Current dt:dt=""r8"">0</Current><DateUtc dt:dt=""string"">2014-05-05T20:52:16Z</DateUtc></FrequencyChange></FrequencyChanges></Clock>\n",60.03,1,324408130,0,,-999999,12,12322,t,72070,84392,5/5/2014,13:52:16,8:52:16 PM,2,Session2,SessionsList,0,,-999999,17,727268,t,37678,764946,709926,2,1,2,1,,,,,,,,1,1,1,NonCued3,MiniBlocks2,,,764949,,6,1,r,-999999,10,854971,r,509,855480,Green,Congruent,r,White,0,,0,11,850973,,0,0,,,,,,,,,,,,,Pictures\white.bmp,3000,2000,Pictures\GreenLeft.bmp,,,,,,,6,1,6,,,,StimulusPr,Pictures\black.bmp,NonCuedStim3,Left
POP_2,27012,1,"<?xml version=""1.0""?>\n<Clock xmlns:dt=""urn:schemas-microsoft-com:datatypes""><Description dt:dt=""string"">E-Prime Primary Realtime Clock</Description><StartTime><Timestamp dt:dt=""int"">0</Timestamp><DateUtc dt:dt=""string"">2014-05-05T20:52:16Z</DateUtc></StartTime><FrequencyChanges><FrequencyChange><Frequency dt:dt=""r8"">2793020000</Frequency><Timestamp dt:dt=""r8"">830526527940917</Timestamp><Current dt:dt=""r8"">0</Current><DateUtc dt:dt=""string"">2014-05-05T20:52:16Z</DateUtc></FrequencyChange></FrequencyChanges></Clock>\n",60.03,1,324408130,0,,-999999,12,12322,t,72070,84392,5/5/2014,13:52:16,8:52:16 PM,2,Session2,SessionsList,0,,-999999,17,727268,t,37678,764946,709926,2,1,2,1,,,,,,,,1,1,1,NonCued3,MiniBlocks2,,,764949,,7,1,b,-999999,5,865966,b,488,866454,Green,Congruent,b,White,0,,0,16,858969,,0,0,,,,,,,,,,,,,Pictures\white.bmp,6000,16000,Pictures\black.bmp,,,,,,,7,1,7,,,,StimulusPr,Pictures\GreenRight.bmp,NonCuedStim3,Right
POP_2,27012,1,"<?xml version=""1.0""?>\n<Clock xmlns:dt=""urn:schemas-microsoft-com:datatypes""><Description dt:dt=""string"">E-Prime Primary Realtime Clock</Description><StartTime><Timestamp dt:dt=""int"">0</Timestamp><DateUtc dt:dt=""string"">2014-05-05T20:52:16Z</DateUtc></StartTime><FrequencyChanges><FrequencyChange><Frequency dt:dt=""r8"">2793020000</Frequency><Timestamp dt:dt=""r8"">830526527940917</Timestamp><Current dt:dt=""r8"">0</Current><DateUtc dt:dt=""string"">2014-05-05T20:52:16Z</DateUtc></FrequencyChange></FrequencyChanges></Clock>\n",60.03,1,324408130,0,,-999999,12,12322,t,72070,84392,5/5/2014,13:52:16,8:52:16 PM,2,Session2,SessionsList,0,,-999999,17,727268,t,37678,764946,709926,2,1,2,1,,,,,,,,1,1,1,NonCued3,MiniBlocks2,,,764949,,8,1,r,-999999,2,887955,r,588,888543,Red,Incongruent,r,White,0,,0,13,883973,,0,0,,,,,,,,,,,,,Pictures\white.bmp,3000,2000,Pictures\black.bmp,,,,,,,8,1,8,,,,StimulusPr,Pictures\RedRight.bmp,NonCuedStim3,Right
POP_2,27012,1,"<?xml version=""1.0""?>\n<Clock xmlns:dt=""urn:schemas-microsoft-com:datatypes""><Description dt:dt=""string"">E-Prime Primary Realtime Clock</Description><StartTime><Timestamp dt:dt=""int"">0</Timestamp><DateUtc dt:dt=""string"">2014-05-05T20:52:16Z</DateUtc></StartTime><FrequencyChanges><FrequencyChange><Frequency dt:dt=""r8"">2793020000</Frequency><Timestamp dt:dt=""r8"">830526527940917</Timestamp><Current dt:dt=""r8"">0</Current><DateUtc dt:dt=""string"">2014-05-05T20:52:16Z</DateUtc></FrequencyChange></FrequencyChanges></Clock>\n",60.03,1,324408130,0,,-999999,12,12322,t,72070,84392,5/5/2014,13:52:16,8:52:16 PM,2,Session2,SessionsList,0,,-999999,17,727268,t,37678,764946,709926,2,1,2,1,,,,,,,,1,1,1,NonCued3,MiniBlocks2,,,764949,,9,1,r,-999999,3,901964,r,620,902584,Green,Congruent,r,White,0,,0,17,891969,,0,0,,,,,,,,,,,,,Pictures\white.bmp,9000,10000,Pictures\GreenLeft.bmp,,,,,,,9,1,9,,,,StimulusPr,Pictures\black.bmp,NonCuedStim3,Left
POP_2,27012,1,"<?xml version=""1.0""?>\n<Clock xmlns:dt=""urn:schemas-microsoft-com:datatypes""><Description dt:dt=""string"">E-Prime Primary Realtime Clock</Description><StartTime><Timestamp dt:dt=""int"">0</Timestamp><DateUtc dt:dt=""string"">2014-05-05T20:52:16Z</DateUtc></StartTime><FrequencyChanges><FrequencyChange><Frequency dt:dt=""r8"">2793020000</Frequency><Timestamp dt:dt=""r8"">830526527940917</Timestamp><Current dt:dt=""r8"">0</Current><DateUtc dt:dt=""string"">2014-05-05T20:52:16Z</DateUtc></FrequencyChange></FrequencyChanges></Clock>\n",60.03,1,324408130,0,,-999999,12,12322,t,72070,84392,5/5/2014,13:52:16,8:52:16 PM,2,Session2,SessionsList,0,,-999999,17,727268,t,37678,764946,709926,2,1,2,1,,,,,,,,1,1,1,NonCued3,MiniBlocks2,,,764949,,10,1,r,-999999,3,920956,r,527,921483,Green,Congruent,r,White,0,,0,10,913959,,0,0,,,,,,,,,,,,,Pictures\white.bmp,6000,4000,Pictures\GreenLeft.bmp,,,,,,,10,1,10,,,,StimulusPr,Pictures\black.bmp,NonCuedStim3,Left
POP_2,27012,1,"<?xml version=""1.0""?>\n<Clock xmlns:dt=""urn:schemas-microsoft-com:datatypes""><Description dt:dt=""string"">E-Prime Primary Realtime Clock</Description><StartTime><Timestamp dt:dt=""int"">0</Timestamp><DateUtc dt:dt=""string"">2014-05-05T20:52:16Z</DateUtc></StartTime><FrequencyChanges><FrequencyChange><Frequency dt:dt=""r8"">2793020000</Frequency><Timestamp dt:dt=""r8"">830526527940917</Timestamp><Current dt:dt=""r8"">0</Current><DateUtc dt:dt=""string"">2014-05-05T20:52:16Z</DateUtc></FrequencyChange></FrequencyChanges></Clock>\n",60.03,1,324408130,0,,-999999,12,12322,t,72070,84392,5/5/2014,13:52:16,8:52:16 PM,2,Session2,SessionsList,0,,-999999,17,727268,t,37678,764946,709926,2,1,2,2,,,925503,,,,,2,1,2,Cued3,MiniBlocks2,,,,,1,1,b,-999999,17,939979,b,419,940398,White,Congruent,b,Green,0,,0,2,935964,,0,0,,,,,,,1,1,1,,,,Pictures\green.bmp,3000,2000,Pictures\black.bmp,,,,,,,,,,,,,StimulusPr,Pictures\right.bmp,CuedStim3,Right
POP_2,27012,1,"<?xml version=""1.0""?>\n<Clock xmlns:dt=""urn:schemas-microsoft-com:datatypes""><Description dt:dt=""string"">E-Prime Primary Realtime Clock</Description><StartTime><Timestamp dt:dt=""int"">0</Timestamp><DateUtc dt:dt=""string"">2014-05-05T20:52:16Z</DateUtc></StartTime><FrequencyChanges><FrequencyChange><Frequency dt:dt=""r8"">2793020000</Frequency><Timestamp dt:dt=""r8"">830526527940917</Timestamp><Current dt:dt=""r8"">0</Current><DateUtc dt:dt=""string"">2014-05-05T20:52:16Z</DateUtc></FrequencyChange></FrequencyChanges></Clock>\n",60.03,1,324408130,0,,-999999,12,12322,t,72070,84392,5/5/2014,13:52:16,8:52:16 PM,2,Session2,SessionsList,0,,-999999,17,727268,t,37678,764946,709926,2,1,2,2,,,925503,,,,,2,1,2,Cued3,MiniBlocks2,,,,,2,1,b,-999999,18,947975,b,491,948466,White,Congruent,b,Green,0,,0,15,943977,,0,0,,,,,,,2,1,2,,,,Pictures\green.bmp,3000,10000,Pictures\black.bmp,,,,,,,,,,,,,StimulusPr,Pictures\right.bmp,CuedStim3,Right
POP_2,27012,1,"<?xml version=""1.0""?>\n<Clock xmlns:dt=""urn:schemas-microsoft-com:datatypes""><Description dt:dt=""string"">E-Prime Primary Realtime Clock</Description><StartTime><Timestamp dt:dt=""int"">0</Timestamp><DateUtc dt:dt=""string"">2014-05-05T20:52:16Z</DateUtc></StartTime><FrequencyChanges><FrequencyChange><Frequency dt:dt=""r8"">2793020000</Frequency><Timestamp dt:dt=""r8"">830526527940917</Timestamp><Current dt:dt=""r8"">0</Current><DateUtc dt:dt=""string"">2014-05-05T20:52:16Z</DateUtc></FrequencyChange></FrequencyChanges></Clock>\n",60.03,1,324408130,0,,-999999,12,12322,t,72070,84392,5/5/2014,13:52:16,8:52:16 PM,2,Session2,SessionsList,0,,-999999,17,727268,t,37678,764946,709926,2,1,2,2,,,925503,,,,,2,1,2,Cued3,MiniBlocks2,,,,,3,1,r,-999999,14,969964,r,580,970544,White,Congruent,r,Green,0,,0,10,959969,,0,0,,,,,,,3,1,3,,,,Pictures\green.bmp,9000,2000,Pictures\left.bmp,,,,,,,,,,,,,StimulusPr,Pictures\black.bmp,CuedStim3,Left
POP_2,27012,1,"<?xml version=""1.0""?>\n<Clock xmlns:dt=""urn:schemas-microsoft-com:datatypes""><Description dt:dt=""string"">E-Prime Primary Realtime Clock</Description><StartTime><Timestamp dt:dt=""int"">0</Timestamp><DateUtc dt:dt=""string"">2014-05-05T20:52:16Z</DateUtc></StartTime><FrequencyChanges><FrequencyChange><Frequency dt:dt=""r8"">2793020000</Frequency><Timestamp dt:dt=""r8"">830526527940917</Timestamp><Current dt:dt=""r8"">0</Current><DateUtc dt:dt=""string"">2014-05-05T20:52:16Z</DateUtc></FrequencyChange></FrequencyChanges></Clock>\n",60.03,1,324408130,0,,-999999,12,12322,t,72070,84392,5/5/2014,13:52:16,8:52:16 PM,2,Session2,SessionsList,0,,-999999,17,727268,t,37678,764946,709926,2,1,2,2,,,925503,,,,,2,1,2,Cued3,MiniBlocks2,,,,,4,1,r,-999999,10,978960,r,661,979621,White,Congruent,r,Green,0,,0,17,973979,,0,0,,,,,,,4,1,4,,,,Pictures\green.bmp,4000,16000,Pictures\left.bmp,,,,,,,,,,,,,StimulusPr,Pictures\black.bmp,CuedStim3,Left
POP_2,27012,1,"<?xml version=""1.0""?>\n<Clock xmlns:dt=""urn:schemas-microsoft-com:datatypes""><Description dt:dt=""string"">E-Prime Primary Realtime Clock</Description><StartTime><Timestamp dt:dt=""int"">0</Timestamp><DateUtc dt:dt=""string"">2014-05-05T20:52:16Z</DateUtc></StartTime><FrequencyChanges><FrequencyChange><Frequency dt:dt=""r8"">2793020000</Frequency><Timestamp dt:dt=""r8"">830526527940917</Timestamp><Current dt:dt=""r8"">0</Current><DateUtc dt:dt=""string"">2014-05-05T20:52:16Z</DateUtc></FrequencyChange></FrequencyChanges></Clock>\n",60.03,1,324408130,0,,-999999,12,12322,t,72070,84392,5/5/2014,13:52:16,8:52:16 PM,2,Session2,SessionsList,0,,-999999,17,727268,t,37678,764946,709926,2,1,2,2,,,925503,,,,,2,1,2,Cued3,MiniBlocks2,,,,,5,1,r,-999999,3,1000965,r,349,1001314,White,Incongruent,r,Red,0,,0,5,996967,,0,0,,,,,,,5,1,5,,,,Pictures\red.bmp,3000,4000,Pictures\black.bmp,,,,,,,,,,,,,StimulusPr,Pictures\right.bmp,CuedStim3,Right
POP_2,27012,1,"<?xml version=""1.0""?>\n<Clock xmlns:dt=""urn:schemas-microsoft-com:datatypes""><Description dt:dt=""string"">E-Prime Primary Realtime Clock</Description><StartTime><Timestamp dt:dt=""int"">0</Timestamp><DateUtc dt:dt=""string"">2014-05-05T20:52:16Z</DateUtc></StartTime><FrequencyChanges><FrequencyChange><Frequency dt:dt=""r8"">2793020000</Frequency><Timestamp dt:dt=""r8"">830526527940917</Timestamp><Current dt:dt=""r8"">0</Current><DateUtc dt:dt=""string"">2014-05-05T20:52:16Z</DateUtc></FrequencyChange></FrequencyChanges></Clock>\n",60.03,1,324408130,0,,-999999,12,12322,t,72070,84392,5/5/2014,13:52:16,8:52:16 PM,2,Session2,SessionsList,0,,-999999,17,727268,t,37678,764946,709926,2,1,2,2,,,925503,,,,,2,1,2,Cued3,MiniBlocks2,,,,,6,1,b,-999999,14,1013976,b,280,1014256,White,Congruent,b,Green,0,,0,17,1006979,,0,0,,,,,,,6,1,6,,,,Pictures\green.bmp,6000,4000,Pictures\black.bmp,,,,,,,,,,,,,StimulusPr,Pictures\right.bmp,CuedStim3,Right
POP_2,27012,1,"<?xml version=""1.0""?>\n<Clock xmlns:dt=""urn:schemas-microsoft-com:datatypes""><Description dt:dt=""string"">E-Prime Primary Realtime Clock</Description><StartTime><Timestamp dt:dt=""int"">0</Timestamp><DateUtc dt:dt=""string"">2014-05-05T20:52:16Z</DateUtc></StartTime><FrequencyChanges><FrequencyChange><Frequency dt:dt=""r8"">2793020000</Frequency><Timestamp dt:dt=""r8"">830526527940917</Timestamp><Current dt:dt=""r8"">0</Current><DateUtc dt:dt=""string"">2014-05-05T20:52:16Z</DateUtc></FrequencyChange></FrequencyChanges></Clock>\n",60.03,1,324408130,0,,-999999,12,12322,t,72070,84392,5/5/2014,13:52:16,8:52:16 PM,2,Session2,SessionsList,0,,-999999,17,727268,t,37678,764946,709926,2,1,2,2,,,925503,,,,,2,1,2,Cued3,MiniBlocks2,,,,,7,1,r,-999999,8,1024970,r,540,1025510,White,Congruent,r,Green,0,,0,12,1019973,,0,0,,,,,,,7,1,7,,,,Pictures\green.bmp,4000,16000,Pictures\left.bmp,,,,,,,,,,,,,StimulusPr,Pictures\black.bmp,CuedStim3,Left
POP_2,27012,1,"<?xml version=""1.0""?>\n<Clock xmlns:dt=""urn:schemas-microsoft-com:datatypes""><Description dt:dt=""string"">E-Prime Primary Realtime Clock</Description><StartTime><Timestamp dt:dt=""int"">0</Timestamp><DateUtc dt:dt=""string"">2014-05-05T20:52:16Z</DateUtc></StartTime><FrequencyChanges><FrequencyChange><Frequency dt:dt=""r8"">2793020000</Frequency><Timestamp dt:dt=""r8"">830526527940917</Timestamp><Current dt:dt=""r8"">0</Current><DateUtc dt:dt=""string"">2014-05-05T20:52:16Z</DateUtc></FrequencyChange></FrequencyChanges></Clock>\n",60.03,1,324408130,0,,-999999,12,12322,t,72070,84392,5/5/2014,13:52:16,8:52:16 PM,2,Session2,SessionsList,0,,-999999,17,727268,t,37678,764946,709926,2,1,2,2,,,925503,,,,,2,1,2,Cued3,MiniBlocks2,,,,,8,1,b,-999999,14,1046976,b,317,1047293,White,Incongruent,b,Red,0,,0,4,1042961,,0,0,,,,,,,8,1,8,,,,Pictures\red.bmp,3000,2000,Pictures\left.bmp,,,,,,,,,,,,,StimulusPr,Pictures\black.bmp,CuedStim3,Left
POP_2,27012,1,"<?xml version=""1.0""?>\n<Clock xmlns:dt=""urn:schemas-microsoft-com:datatypes""><Description dt:dt=""string"">E-Prime Primary Realtime Clock</Description><StartTime><Timestamp dt:dt=""int"">0</Timestamp><DateUtc dt:dt=""string"">2014-05-05T20:52:16Z</DateUtc></StartTime><FrequencyChanges><FrequencyChange><Frequency dt:dt=""r8"">2793020000</Frequency><Timestamp dt:dt=""r8"">830526527940917</Timestamp><Current dt:dt=""r8"">0</Current><DateUtc dt:dt=""string"">2014-05-05T20:52:16Z</DateUtc></FrequencyChange></FrequencyChanges></Clock>\n",60.03,1,324408130,0,,-999999,12,12322,t,72070,84392,5/5/2014,13:52:16,8:52:16 PM,2,Session2,SessionsList,0,,-999999,17,727268,t,37678,764946,709926,2,1,2,2,,,925503,,,,,2,1,2,Cued3,MiniBlocks2,,,,,9,1,r,-999999,17,1054972,r,304,1055276,White,Congruent,r,Green,0,,0,12,1050974,,0,0,,,,,,,9,1,9,,,,Pictures\green.bmp,3000,2000,Pictures\left.bmp,,,,,,,,,,,,,StimulusPr,Pictures\black.bmp,CuedStim3,Left
POP_2,27012,1,"<?xml version=""1.0""?>\n<Clock xmlns:dt=""urn:schemas-microsoft-com:datatypes""><Description dt:dt=""string"">E-Prime Primary Realtime Clock</Description><StartTime><Timestamp dt:dt=""int"">0</Timestamp><DateUtc dt:dt=""string"">2014-05-05T20:52:16Z</DateUtc></StartTime><FrequencyChanges><FrequencyChange><Frequency dt:dt=""r8"">2793020000</Frequency><Timestamp dt:dt=""r8"">830526527940917</Timestamp><Current dt:dt=""r8"">0</Current><DateUtc dt:dt=""string"">2014-05-05T20:52:16Z</DateUtc></FrequencyChange></FrequencyChanges></Clock>\n",60.03,1,324408130,0,,-999999,12,12322,t,72070,84392,5/5/2014,13:52:16,8:52:16 PM,2,Session2,SessionsList,0,,-999999,17,727268,t,37678,764946,709926,2,1,2,2,,,925503,,,,,2,1,2,Cued3,MiniBlocks2,,,,,10,1,b,-999999,3,1068966,b,310,1069276,White,Congruent,b,Green,0,,0,8,1058970,,0,0,,,,,,,10,1,10,,,,Pictures\green.bmp,9000,10000,Pictures\black.bmp,,,,,,,,,,,,,StimulusPr,Pictures\right.bmp,CuedStim3,Right
POP_2,27012,1,"<?xml version=""1.0""?>\n<Clock xmlns:dt=""urn:schemas-microsoft-com:datatypes""><Description dt:dt=""string"">E-Prime Primary Realtime Clock</Description><StartTime><Timestamp dt:dt=""int"">0</Timestamp><DateUtc dt:dt=""string"">2014-05-05T20:52:16Z</DateUtc></StartTime><FrequencyChanges><FrequencyChange><Frequency dt:dt=""r8"">2793020000</Frequency><Timestamp dt:dt=""r8"">830526527940917</Timestamp><Current dt:dt=""r8"">0</Current><DateUtc dt:dt=""string"">2014-05-05T20:52:16Z</DateUtc></FrequencyChange></FrequencyChanges></Clock>\n",60.03,1,324408130,0,,-999999,12,12322,t,72070,84392,5/5/2014,13:52:16,8:52:16 PM,2,Session2,SessionsList,0,,-999999,17,727268,t,37678,764946,709926,2,1,2,3,,,,1079293,,,,3,1,3,Cued4,MiniBlocks2,,,,,1,1,b,-999999,18,1095968,b,417,1096385,White,Congruent,b,Green,0,,0,10,1088972,,0,0,,,,,,,,,,1,1,1,Pictures\green.bmp,6000,2000,Pictures\black.bmp,,,,,,,,,,,,,StimulusPr,Pictures\right.bmp,CuedStim4,Right
POP_2,27012,1,"<?xml version=""1.0""?>\n<Clock xmlns:dt=""urn:schemas-microsoft-com:datatypes""><Description dt:dt=""string"">E-Prime Primary Realtime Clock</Description><StartTime><Timestamp dt:dt=""int"">0</Timestamp><DateUtc dt:dt=""string"">2014-05-05T20:52:16Z</DateUtc></StartTime><FrequencyChanges><FrequencyChange><Frequency dt:dt=""r8"">2793020000</Frequency><Timestamp dt:dt=""r8"">830526527940917</Timestamp><Current dt:dt=""r8"">0</Current><DateUtc dt:dt=""string"">2014-05-05T20:52:16Z</DateUtc></FrequencyChange></FrequencyChanges></Clock>\n",60.03,1,324408130,0,,-999999,12,12322,t,72070,84392,5/5/2014,13:52:16,8:52:16 PM,2,Session2,SessionsList,0,,-999999,17,727268,t,37678,764946,709926,2,1,2,3,,,,1079293,,,,3,1,3,Cued4,MiniBlocks2,,,,,2,1,r,-999999,16,1109978,r,371,1110349,White,Incongruent,r,Red,0,,0,4,1099966,,0,0,,,,,,,,,,2,1,2,Pictures\red.bmp,9000,2000,Pictures\black.bmp,,,,,,,,,,,,,StimulusPr,Pictures\right.bmp,CuedStim4,Right
POP_2,27012,1,"<?xml version=""1.0""?>\n<Clock xmlns:dt=""urn:schemas-microsoft-com:datatypes""><Description dt:dt=""string"">E-Prime Primary Realtime Clock</Description><StartTime><Timestamp dt:dt=""int"">0</Timestamp><DateUtc dt:dt=""string"">2014-05-05T20:52:16Z</DateUtc></StartTime><FrequencyChanges><FrequencyChange><Frequency dt:dt=""r8"">2793020000</Frequency><Timestamp dt:dt=""r8"">830526527940917</Timestamp><Current dt:dt=""r8"">0</Current><DateUtc dt:dt=""string"">2014-05-05T20:52:16Z</DateUtc></FrequencyChange></FrequencyChanges></Clock>\n",60.03,1,324408130,0,,-999999,12,12322,t,72070,84392,5/5/2014,13:52:16,8:52:16 PM,2,Session2,SessionsList,0,,-999999,17,727268,t,37678,764946,709926,2,1,2,3,,,,1079293,,,,3,1,3,Cued4,MiniBlocks2,,,,,3,1,b,-999999,12,1117974,b,291,1118265,White,Congruent,b,Green,0,,0,14,1113976,,0,0,,,,,,,,,,3,1,3,Pictures\green.bmp,3000,4000,Pictures\black.bmp,,,,,,,,,,,,,StimulusPr,Pictures\right.bmp,CuedStim4,Right
POP_2,27012,1,"<?xml version=""1.0""?>\n<Clock xmlns:dt=""urn:schemas-microsoft-com:datatypes""><Description dt:dt=""string"">E-Prime Primary Realtime Clock</Description><StartTime><Timestamp dt:dt=""int"">0</Timestamp><DateUtc dt:dt=""string"">2014-05-05T20:52:16Z</DateUtc></StartTime><FrequencyChanges><FrequencyChange><Frequency dt:dt=""r8"">2793020000</Frequency><Timestamp dt:dt=""r8"">830526527940917</Timestamp><Current dt:dt=""r8"">0</Current><DateUtc dt:dt=""string"">2014-05-05T20:52:16Z</DateUtc></FrequencyChange></FrequencyChanges></Clock>\n",60.03,1,324408130,0,,-999999,12,12322,t,72070,84392,5/5/2014,13:52:16,8:52:16 PM,2,Session2,SessionsList,0,,-999999,17,727268,t,37678,764946,709926,2,1,2,3,,,,1079293,,,,3,1,3,Cued4,MiniBlocks2,,,,,4,1,r,-999999,7,1127969,r,664,1128633,White,Congruent,r,Green,0,,0,9,1123971,,0,0,,,,,,,,,,4,1,4,Pictures\green.bmp,3000,4000,Pictures\left.bmp,,,,,,,,,,,,,StimulusPr,Pictures\black.bmp,CuedStim4,Left
POP_2,27012,1,"<?xml version=""1.0""?>\n<Clock xmlns:dt=""urn:schemas-microsoft-com:datatypes""><Description dt:dt=""string"">E-Prime Primary Realtime Clock</Description><StartTime><Timestamp dt:dt=""int"">0</Timestamp><DateUtc dt:dt=""string"">2014-05-05T20:52:16Z</DateUtc></StartTime><FrequencyChanges><FrequencyChange><Frequency dt:dt=""r8"">2793020000</Frequency><Timestamp dt:dt=""r8"">830526527940917</Timestamp><Current dt:dt=""r8"">0</Current><DateUtc dt:dt=""string"">2014-05-05T20:52:16Z</DateUtc></FrequencyChange></FrequencyChanges></Clock>\n",60.03,1,324408130,0,,-999999,12,12322,t,72070,84392,5/5/2014,13:52:16,8:52:16 PM,2,Session2,SessionsList,0,,-999999,17,727268,t,37678,764946,709926,2,1,2,3,,,,1079293,,,,3,1,3,Cued4,MiniBlocks2,,,,,5,0,b,-999999,18,1138980,r,461,1139441,White,Incongruent,b,Red,0,,0,3,1133949,,0,0,,,,,,,,,,5,1,5,Pictures\red.bmp,4000,16000,Pictures\left.bmp,,,,,,,,,,,,,StimulusPr,Pictures\black.bmp,CuedStim4,Left
POP_2,27012,1,"<?xml version=""1.0""?>\n<Clock xmlns:dt=""urn:schemas-microsoft-com:datatypes""><Description dt:dt=""string"">E-Prime Primary Realtime Clock</Description><StartTime><Timestamp dt:dt=""int"">0</Timestamp><DateUtc dt:dt=""string"">2014-05-05T20:52:16Z</DateUtc></StartTime><FrequencyChanges><FrequencyChange><Frequency dt:dt=""r8"">2793020000</Frequency><Timestamp dt:dt=""r8"">830526527940917</Timestamp><Current dt:dt=""r8"">0</Current><DateUtc dt:dt=""string"">2014-05-05T20:52:16Z</DateUtc></FrequencyChange></FrequencyChanges></Clock>\n",60.03,1,324408130,0,,-999999,12,12322,t,72070,84392,5/5/2014,13:52:16,8:52:16 PM,2,Session2,SessionsList,0,,-999999,17,727268,t,37678,764946,709926,2,1,2,3,,,,1079293,,,,3,1,3,Cued4,MiniBlocks2,,,,,6,1,b,-999999,5,1160953,b,357,1161310,White,Congruent,b,Green,0,,0,8,1156971,,0,0,,,,,,,,,,6,1,6,Pictures\green.bmp,3000,2000,Pictures\black.bmp,,,,,,,,,,,,,StimulusPr,Pictures\right.bmp,CuedStim4,Right
POP_2,27012,1,"<?xml version=""1.0""?>\n<Clock xmlns:dt=""urn:schemas-microsoft-com:datatypes""><Description dt:dt=""string"">E-Prime Primary Realtime Clock</Description><StartTime><Timestamp dt:dt=""int"">0</Timestamp><DateUtc dt:dt=""string"">2014-05-05T20:52:16Z</DateUtc></StartTime><FrequencyChanges><FrequencyChange><Frequency dt:dt=""r8"">2793020000</Frequency><Timestamp dt:dt=""r8"">830526527940917</Timestamp><Current dt:dt=""r8"">0</Current><DateUtc dt:dt=""string"">2014-05-05T20:52:16Z</DateUtc></FrequencyChange></FrequencyChanges></Clock>\n",60.03,1,324408130,0,,-999999,12,12322,t,72070,84392,5/5/2014,13:52:16,8:52:16 PM,2,Session2,SessionsList,0,,-999999,17,727268,t,37678,764946,709926,2,1,2,3,,,,1079293,,,,3,1,3,Cued4,MiniBlocks2,,,,,7,1,b,-999999,16,1174979,b,610,1175589,White,Congruent,b,Green,0,,0,4,1164967,,0,0,,,,,,,,,,7,1,7,Pictures\green.bmp,9000,10000,Pictures\black.bmp,,,,,,,,,,,,,StimulusPr,Pictures\right.bmp,CuedStim4,Right
POP_2,27012,1,"<?xml version=""1.0""?>\n<Clock xmlns:dt=""urn:schemas-microsoft-com:datatypes""><Description dt:dt=""string"">E-Prime Primary Realtime Clock</Description><StartTime><Timestamp dt:dt=""int"">0</Timestamp><DateUtc dt:dt=""string"">2014-05-05T20:52:16Z</DateUtc></StartTime><FrequencyChanges><FrequencyChange><Frequency dt:dt=""r8"">2793020000</Frequency><Timestamp dt:dt=""r8"">830526527940917</Timestamp><Current dt:dt=""r8"">0</Current><DateUtc dt:dt=""string"">2014-05-05T20:52:16Z</DateUtc></FrequencyChange></FrequencyChanges></Clock>\n",60.03,1,324408130,0,,-999999,12,12322,t,72070,84392,5/5/2014,13:52:16,8:52:16 PM,2,Session2,SessionsList,0,,-999999,17,727268,t,37678,764946,709926,2,1,2,3,,,,1079293,,,,3,1,3,Cued4,MiniBlocks2,,,,,8,1,b,-999999,16,1193970,b,280,1194250,White,Incongruent,b,Red,0,,0,10,1186973,,0,0,,,,,,,,,,8,1,8,Pictures\red.bmp,6000,10000,Pictures\left.bmp,,,,,,,,,,,,,StimulusPr,Pictures\black.bmp,CuedStim4,Left
POP_2,27012,1,"<?xml version=""1.0""?>\n<Clock xmlns:dt=""urn:schemas-microsoft-com:datatypes""><Description dt:dt=""string"">E-Prime Primary Realtime Clock</Description><StartTime><Timestamp dt:dt=""int"">0</Timestamp><DateUtc dt:dt=""string"">2014-05-05T20:52:16Z</DateUtc></StartTime><FrequencyChanges><FrequencyChange><Frequency dt:dt=""r8"">2793020000</Frequency><Timestamp dt:dt=""r8"">830526527940917</Timestamp><Current dt:dt=""r8"">0</Current><DateUtc dt:dt=""string"">2014-05-05T20:52:16Z</DateUtc></FrequencyChange></FrequencyChanges></Clock>\n",60.03,1,324408130,0,,-999999,12,12322,t,72070,84392,5/5/2014,13:52:16,8:52:16 PM,2,Session2,SessionsList,0,,-999999,17,727268,t,37678,764946,709926,2,1,2,3,,,,1079293,,,,3,1,3,Cued4,MiniBlocks2,,,,,9,1,r,-999999,15,1212977,r,346,1213323,White,Congruent,r,Green,0,,0,2,1205964,,0,0,,,,,,,,,,9,1,9,Pictures\green.bmp,6000,16000,Pictures\left.bmp,,,,,,,,,,,,,StimulusPr,Pictures\black.bmp,CuedStim4,Left
POP_2,27012,1,"<?xml version=""1.0""?>\n<Clock xmlns:dt=""urn:schemas-microsoft-com:datatypes""><Description dt:dt=""string"">E-Prime Primary Realtime Clock</Description><StartTime><Timestamp dt:dt=""int"">0</Timestamp><DateUtc dt:dt=""string"">2014-05-05T20:52:16Z</DateUtc></StartTime><FrequencyChanges><FrequencyChange><Frequency dt:dt=""r8"">2793020000</Frequency><Timestamp dt:dt=""r8"">830526527940917</Timestamp><Current dt:dt=""r8"">0</Current><DateUtc dt:dt=""string"">2014-05-05T20:52:16Z</DateUtc></FrequencyChange></FrequencyChanges></Clock>\n",60.03,1,324408130,0,,-999999,12,12322,t,72070,84392,5/5/2014,13:52:16,8:52:16 PM,2,Session2,SessionsList,0,,-999999,17,727268,t,37678,764946,709926,2,1,2,3,,,,1079293,,,,3,1,3,Cued4,MiniBlocks2,,,,,10,1,r,-999999,3,1235949,r,290,1236239,White,Congruent,r,Green,0,,0,14,1230968,,0,0,,,,,,,,,,10,1,10,Pictures\green.bmp,4000,2000,Pictures\left.bmp,,,,,,,,,,,,,StimulusPr,Pictures\black.bmp,CuedStim4,Left
POP_2,27012,1,"<?xml version=""1.0""?>\n<Clock xmlns:dt=""urn:schemas-microsoft-com:datatypes""><Description dt:dt=""string"">E-Prime Primary Realtime Clock</Description><StartTime><Timestamp dt:dt=""int"">0</Timestamp><DateUtc dt:dt=""string"">2014-05-05T20:52:16Z</DateUtc></StartTime><FrequencyChanges><FrequencyChange><Frequency dt:dt=""r8"">2793020000</Frequency><Timestamp dt:dt=""r8"">830526527940917</Timestamp><Current dt:dt=""r8"">0</Current><DateUtc dt:dt=""string"">2014-05-05T20:52:16Z</DateUtc></FrequencyChange></FrequencyChanges></Clock>\n",60.03,1,324408130,0,,-999999,12,12322,t,72070,84392,5/5/2014,13:52:16,8:52:16 PM,2,Session2,SessionsList,0,,-999999,17,727268,t,37678,764946,709926,2,1,2,4,,,,,,,,4,1,4,NonCued4,MiniBlocks2,,,,1238264,1,1,r,-999999,11,1251974,r,416,1252390,Green,Congruent,r,White,0,,0,15,1247976,,0,0,,,,,,,,,,,,,Pictures\white.bmp,3000,2000,Pictures\GreenLeft.bmp,,,,,,,,,,1,1,1,StimulusPr,Pictures\black.bmp,NonCuedStim4,Left
POP_2,27012,1,"<?xml version=""1.0""?>\n<Clock xmlns:dt=""urn:schemas-microsoft-com:datatypes""><Description dt:dt=""string"">E-Prime Primary Realtime Clock</Description><StartTime><Timestamp dt:dt=""int"">0</Timestamp><DateUtc dt:dt=""string"">2014-05-05T20:52:16Z</DateUtc></StartTime><FrequencyChanges><FrequencyChange><Frequency dt:dt=""r8"">2793020000</Frequency><Timestamp dt:dt=""r8"">830526527940917</Timestamp><Current dt:dt=""r8"">0</Current><DateUtc dt:dt=""string"">2014-05-05T20:52:16Z</DateUtc></FrequencyChange></FrequencyChanges></Clock>\n",60.03,1,324408130,0,,-999999,12,12322,t,72070,84392,5/5/2014,13:52:16,8:52:16 PM,2,Session2,SessionsList,0,,-999999,17,727268,t,37678,764946,709926,2,1,2,4,,,,,,,,4,1,4,NonCued4,MiniBlocks2,,,,1238264,2,1,r,-999999,15,1260970,r,495,1261465,Green,Congruent,r,White,0,,0,9,1255972,,0,0,,,,,,,,,,,,,Pictures\white.bmp,4000,2000,Pictures\GreenLeft.bmp,,,,,,,,,,2,1,2,StimulusPr,Pictures\black.bmp,NonCuedStim4,Left
POP_2,27012,1,"<?xml version=""1.0""?>\n<Clock xmlns:dt=""urn:schemas-microsoft-com:datatypes""><Description dt:dt=""string"">E-Prime Primary Realtime Clock</Description><StartTime><Timestamp dt:dt=""int"">0</Timestamp><DateUtc dt:dt=""string"">2014-05-05T20:52:16Z</DateUtc></StartTime><FrequencyChanges><FrequencyChange><Frequency dt:dt=""r8"">2793020000</Frequency><Timestamp dt:dt=""r8"">830526527940917</Timestamp><Current dt:dt=""r8"">0</Current><DateUtc dt:dt=""string"">2014-05-05T20:52:16Z</DateUtc></FrequencyChange></FrequencyChanges></Clock>\n",60.03,1,324408130,0,,-999999,12,12322,t,72070,84392,5/5/2014,13:52:16,8:52:16 PM,2,Session2,SessionsList,0,,-999999,17,727268,t,37678,764946,709926,2,1,2,4,,,,,,,,4,1,4,NonCued4,MiniBlocks2,,,,1238264,3,0,r,-999999,19,1269982,b,365,1270347,Red,Incongruent,r,White,0,,0,5,1264968,,0,0,,,,,,,,,,,,,Pictures\white.bmp,4000,2000,Pictures\black.bmp,,,,,,,,,,3,1,3,StimulusPr,Pictures\RedRight.bmp,NonCuedStim4,Right
POP_2,27012,1,"<?xml version=""1.0""?>\n<Clock xmlns:dt=""urn:schemas-microsoft-com:datatypes""><Description dt:dt=""string"">E-Prime Primary Realtime Clock</Description><StartTime><Timestamp dt:dt=""int"">0</Timestamp><DateUtc dt:dt=""string"">2014-05-05T20:52:16Z</DateUtc></StartTime><FrequencyChanges><FrequencyChange><Frequency dt:dt=""r8"">2793020000</Frequency><Timestamp dt:dt=""r8"">830526527940917</Timestamp><Current dt:dt=""r8"">0</Current><DateUtc dt:dt=""string"">2014-05-05T20:52:16Z</DateUtc></FrequencyChange></FrequencyChanges></Clock>\n",60.03,1,324408130,0,,-999999,12,12322,t,72070,84392,5/5/2014,13:52:16,8:52:16 PM,2,Session2,SessionsList,0,,-999999,17,727268,t,37678,764946,709926,2,1,2,4,,,,,,,,4,1,4,NonCued4,MiniBlocks2,,,,1238264,4,0,b,-999999,14,1277961,r,457,1278418,Green,Congruent,b,White,0,,0,17,1273980,,0,0,,,,,,,,,,,,,Pictures\white.bmp,3000,16000,Pictures\black.bmp,,,,,,,,,,4,1,4,StimulusPr,Pictures\GreenRight.bmp,NonCuedStim4,Right
POP_2,27012,1,"<?xml version=""1.0""?>\n<Clock xmlns:dt=""urn:schemas-microsoft-com:datatypes""><Description dt:dt=""string"">E-Prime Primary Realtime Clock</Description><StartTime><Timestamp dt:dt=""int"">0</Timestamp><DateUtc dt:dt=""string"">2014-05-05T20:52:16Z</DateUtc></StartTime><FrequencyChanges><FrequencyChange><Frequency dt:dt=""r8"">2793020000</Frequency><Timestamp dt:dt=""r8"">830526527940917</Timestamp><Current dt:dt=""r8"">0</Current><DateUtc dt:dt=""string"">2014-05-05T20:52:16Z</DateUtc></FrequencyChange></FrequencyChanges></Clock>\n",60.03,1,324408130,0,,-999999,12,12322,t,72070,84392,5/5/2014,13:52:16,8:52:16 PM,2,Session2,SessionsList,0,,-999999,17,727268,t,37678,764946,709926,2,1,2,4,,,,,,,,4,1,4,NonCued4,MiniBlocks2,,,,1238264,5,1,r,-999999,19,1305981,r,403,1306384,Green,Congruent,r,White,0,,0,14,1295969,,0,0,,,,,,,,,,,,,Pictures\white.bmp,9000,10000,Pictures\GreenLeft.bmp,,,,,,,,,,5,1,5,StimulusPr,Pictures\black.bmp,NonCuedStim4,Left
POP_2,27012,1,"<?xml version=""1.0""?>\n<Clock xmlns:dt=""urn:schemas-microsoft-com:datatypes""><Description dt:dt=""string"">E-Prime Primary Realtime Clock</Description><StartTime><Timestamp dt:dt=""int"">0</Timestamp><DateUtc dt:dt=""string"">2014-05-05T20:52:16Z</DateUtc></StartTime><FrequencyChanges><FrequencyChange><Frequency dt:dt=""r8"">2793020000</Frequency><Timestamp dt:dt=""r8"">830526527940917</Timestamp><Current dt:dt=""r8"">0</Current><DateUtc dt:dt=""string"">2014-05-05T20:52:16Z</DateUtc></FrequencyChange></FrequencyChanges></Clock>\n",60.03,1,324408130,0,,-999999,12,12322,t,72070,84392,5/5/2014,13:52:16,8:52:16 PM,2,Session2,SessionsList,0,,-999999,17,727268,t,37678,764946,709926,2,1,2,4,,,,,,,,4,1,4,NonCued4,MiniBlocks2,,,,1238264,6,1,b,-999999,9,1321956,b,713,1322669,Green,Congruent,b,White,0,,0,13,1317975,,0,0,,,,,,,,,,,,,Pictures\white.bmp,3000,16000,Pictures\black.bmp,,,,,,,,,,6,1,6,StimulusPr,Pictures\GreenRight.bmp,NonCuedStim4,Right
POP_2,27012,1,"<?xml version=""1.0""?>\n<Clock xmlns:dt=""urn:schemas-microsoft-com:datatypes""><Description dt:dt=""string"">E-Prime Primary Realtime Clock</Description><StartTime><Timestamp dt:dt=""int"">0</Timestamp><DateUtc dt:dt=""string"">2014-05-05T20:52:16Z</DateUtc></StartTime><FrequencyChanges><FrequencyChange><Frequency dt:dt=""r8"">2793020000</Frequency><Timestamp dt:dt=""r8"">830526527940917</Timestamp><Current dt:dt=""r8"">0</Current><DateUtc dt:dt=""string"">2014-05-05T20:52:16Z</DateUtc></FrequencyChange></FrequencyChanges></Clock>\n",60.03,1,324408130,0,,-999999,12,12322,t,72070,84392,5/5/2014,13:52:16,8:52:16 PM,2,Session2,SessionsList,0,,-999999,17,727268,t,37678,764946,709926,2,1,2,4,,,,,,,,4,1,4,NonCued4,MiniBlocks2,,,,1238264,7,1,b,-999999,15,1343979,b,476,1344455,Red,Incongruent,b,White,0,,0,17,1339981,,0,0,,,,,,,,,,,,,Pictures\white.bmp,3000,16000,Pictures\RedLeft.bmp,,,,,,,,,,7,1,7,StimulusPr,Pictures\black.bmp,NonCuedStim4,Left
POP_2,27012,1,"<?xml version=""1.0""?>\n<Clock xmlns:dt=""urn:schemas-microsoft-com:datatypes""><Description dt:dt=""string"">E-Prime Primary Realtime Clock</Description><StartTime><Timestamp dt:dt=""int"">0</Timestamp><DateUtc dt:dt=""string"">2014-05-05T20:52:16Z</DateUtc></StartTime><FrequencyChanges><FrequencyChange><Frequency dt:dt=""r8"">2793020000</Frequency><Timestamp dt:dt=""r8"">830526527940917</Timestamp><Current dt:dt=""r8"">0</Current><DateUtc dt:dt=""string"">2014-05-05T20:52:16Z</DateUtc></FrequencyChange></FrequencyChanges></Clock>\n",60.03,1,324408130,0,,-999999,12,12322,t,72070,84392,5/5/2014,13:52:16,8:52:16 PM,2,Session2,SessionsList,0,,-999999,17,727268,t,37678,764946,709926,2,1,2,4,,,,,,,,4,1,4,NonCued4,MiniBlocks2,,,,1238264,8,1,r,-999999,4,1365968,r,558,1366526,Green,Congruent,r,White,0,,0,9,1361970,,0,0,,,,,,,,,,,,,Pictures\white.bmp,3000,2000,Pictures\GreenLeft.bmp,,,,,,,,,,8,1,8,StimulusPr,Pictures\black.bmp,NonCuedStim4,Left
POP_2,27012,1,"<?xml version=""1.0""?>\n<Clock xmlns:dt=""urn:schemas-microsoft-com:datatypes""><Description dt:dt=""string"">E-Prime Primary Realtime Clock</Description><StartTime><Timestamp dt:dt=""int"">0</Timestamp><DateUtc dt:dt=""string"">2014-05-05T20:52:16Z</DateUtc></StartTime><FrequencyChanges><FrequencyChange><Frequency dt:dt=""r8"">2793020000</Frequency><Timestamp dt:dt=""r8"">830526527940917</Timestamp><Current dt:dt=""r8"">0</Current><DateUtc dt:dt=""string"">2014-05-05T20:52:16Z</DateUtc></FrequencyChange></FrequencyChanges></Clock>\n",60.03,1,324408130,0,,-999999,12,12322,t,72070,84392,5/5/2014,13:52:16,8:52:16 PM,2,Session2,SessionsList,0,,-999999,17,727268,t,37678,764946,709926,2,1,2,4,,,,,,,,4,1,4,NonCued4,MiniBlocks2,,,,1238264,9,1,b,-999999,18,1376979,b,585,1377564,Green,Congruent,b,White,0,,0,2,1369966,,0,0,,,,,,,,,,,,,Pictures\white.bmp,6000,2000,Pictures\black.bmp,,,,,,,,,,9,1,9,StimulusPr,Pictures\GreenRight.bmp,NonCuedStim4,Right
POP_2,27012,1,"<?xml version=""1.0""?>\n<Clock xmlns:dt=""urn:schemas-microsoft-com:datatypes""><Description dt:dt=""string"">E-Prime Primary Realtime Clock</Description><StartTime><Timestamp dt:dt=""int"">0</Timestamp><DateUtc dt:dt=""string"">2014-05-05T20:52:16Z</DateUtc></StartTime><FrequencyChanges><FrequencyChange><Frequency dt:dt=""r8"">2793020000</Frequency><Timestamp dt:dt=""r8"">830526527940917</Timestamp><Current dt:dt=""r8"">0</Current><DateUtc dt:dt=""string"">2014-05-05T20:52:16Z</DateUtc></FrequencyChange></FrequencyChanges></Clock>\n",60.03,1,324408130,0,,-999999,12,12322,t,72070,84392,5/5/2014,13:52:16,8:52:16 PM,2,Session2,SessionsList,0,,-999999,17,727268,t,37678,764946,709926,2,1,2,4,,,,,,,,4,1,4,NonCued4,MiniBlocks2,,,,1238264,10,1,b,-999999,7,1385958,b,381,1386339,Green,Congruent,b,White,0,,0,11,1380960,,0,0,,,,,,,,,,,,,Pictures\white.bmp,4000,4000,Pictures\black.bmp,,,,,,,,,,10,1,10,StimulusPr,Pictures\GreenRight.bmp,NonCuedStim4,Right
