ExperimentName,Subject,Session,Clock.Information,Display.RefreshRate,Group,RandomSeed,Session1Onset.ACC,Session1Onset.CRESP,Session1Onset.DurationError,Session1Onset.OnsetDelay,Session1Onset.OnsetTime,Session1Onset.RESP,Session1Onset.RT,Session1Onset.RTTime,SessionDate,SessionTime,SessionTimeUtc,Block,Procedure[Block],Running[Block],Session2Onset.ACC,Session2Onset.CRESP,Session2Onset.DurationError,Session2Onset.OnsetDelay,Session2Onset.OnsetTime,Session2Onset.RESP,Session2Onset.RT,Session2Onset.RTTime,SessionBreak.OnsetTime,SessionsList,SessionsList.Cycle,SessionsList.Sample,Trial,CuedPrompt1.OnsetTime,CuedPrompt2.OnsetTime,CuedPrompt3.OnsetTime,CuedPrompt4.OnsetTime,MiniBlocks1,MiniBlocks1.Cycle,MiniBlocks1.Sample,MiniBlocks2,MiniBlocks2.Cycle,MiniBlocks2.Sample,Procedure[Trial],Running[Trial],UncuedPrompt1.OnsetTime,UncuedPrompt2.OnsetTime,UncuedPrompt3.OnsetTime,UncuedPrompt4.OnsetTime,SubTrial,Arrow1.ACC,Arrow1.CRESP,Arrow1.DurationError,Arrow1.OnsetDelay,Arrow1.OnsetTime,Arrow1.RESP,Arrow1.RT,Arrow1.RTTime,ArrowColor,Congruence,CorrectResp,Cue,Cue.ACC,Cue.CRESP,Cue.DurationError,Cue.OnsetDelay,Cue.OnsetTime,Cue.RESP,Cue.RT,Cue.RTTime,CuedStim1,CuedStim1.Cycle,CuedStim1.Sample,CuedStim2,CuedStim2.Cycle,CuedStim2.Sample,CuedStim3,CuedStim3.Cycle,CuedStim3.Sample,CuedStim4,CuedStim4.Cycle,CuedStim4.Sample,CueImage,JitterCue,JitterTrial,LeftImage,NonCuedStim1,NonCuedStim1.Cycle,NonCuedStim1.Sample,NonCuedStim2,NonCuedStim2.Cycle,NonCuedStim2.Sample,NonCuedStim3,NonCuedStim3.Cycle,NonCuedStim3.Sample,NonCuedStim4,NonCuedStim4.Cycle,NonCuedStim4.Sample,Procedure[SubTrial],RightImage,Running[SubTrial],Stimulus
POP_2,16048,1,"<?xml version=""1.0""?>\n<Clock xmlns:dt=""urn:schemas-microsoft-com:datatypes""><Description dt:dt=""string"">E-Prime Primary Realtime Clock</Description><StartTime><Timestamp dt:dt=""int"">0</Timestamp><DateUtc dt:dt=""string"">2014-05-27T20:18:59Z</DateUtc></StartTime><FrequencyChanges><FrequencyChange><Frequency dt:dt=""r8"">2793030000</Frequency><Timestamp dt:dt=""r8"">7811181100042</Timestamp><Current dt:dt=""r8"">0</Current><DateUtc dt:dt=""string"">2014-05-27T20:18:59Z</DateUtc></FrequencyChange></FrequencyChanges></Clock>\n",60.034,1,-794392260,0,,-999999,2,20689,t,70326,91015,5/27/2014,13:18:59,8:18:59 PM,1,Session1,SessionsList,,,,,,,,,,1,1,1,1,,,,,,,,1,1,1,NonCued3,MiniBlocks2,,,91038,,1,1,b,-999999,178,111194,b,743,111937,Green,Congruent,b,White,0,,0,83,101099,,0,0,,,,,,,,,,,,,Pictures\white.bmp,9000,10000,Pictures\black.bmp,,,,,,,1,1,1,,,,StimulusPr,Pictures\GreenRight.bmp,NonCuedStim3,Right
POP_2,16048,1,"<?xml version=""1.0""?>\n<Clock xmlns:dt=""urn:schemas-microsoft-com:datatypes""><Description dt:dt=""string"">E-Prime Primary Realtime Clock</Description><StartTime><Timestamp dt:dt=""int"">0</Timestamp><DateUtc dt:dt=""string"">2014-05-27T20:18:59Z</DateUtc></StartTime><FrequencyChanges><FrequencyChange><Frequency dt:dt=""r8"">2793030000</Frequency><Timestamp dt:dt=""r8"">7811181100042</Timestamp><Current dt:dt=""r8"">0</Current><DateUtc dt:dt=""string"">2014-05-27T20:18:59Z</DateUtc></FrequencyChange></FrequencyChanges></Clock>\n",60.034,1,-794392260,0,,-999999,2,20689,t,70326,91015,5/27/2014,13:18:59,8:18:59 PM,1,Session1,SessionsList,,,,,,,,,,1,1,1,1,,,,,,,,1,1,1,NonCued3,MiniBlocks2,,,91038,,2,1,r,-999999,57,133066,r,940,134006,Red,Incongruent,r,White,0,,0,8,123005,,0,0,,,,,,,,,,,,,Pictures\white.bmp,9000,10000,Pictures\black.bmp,,,,,,,2,1,2,,,,StimulusPr,Pictures\RedRight.bmp,NonCuedStim3,Right
POP_2,16048,1,"<?xml version=""1.0""?>\n<Clock xmlns:dt=""urn:schemas-microsoft-com:datatypes""><Description dt:dt=""string"">E-Prime Primary Realtime Clock</Description><StartTime><Timestamp dt:dt=""int"">0</Timestamp><DateUtc dt:dt=""string"">2014-05-27T20:18:59Z</DateUtc></StartTime><FrequencyChanges><FrequencyChange><Frequency dt:dt=""r8"">2793030000</Frequency><Timestamp dt:dt=""r8"">7811181100042</Timestamp><Current dt:dt=""r8"">0</Current><DateUtc dt:dt=""string"">2014-05-27T20:18:59Z</DateUtc></FrequencyChange></FrequencyChanges></Clock>\n",60.034,1,-794392260,0,,-999999,2,20689,t,70326,91015,5/27/2014,13:18:59,8:18:59 PM,1,Session1,SessionsList,,,,,,,,,,1,1,1,1,,,,,,,,1,1,1,NonCued3,MiniBlocks2,,,91038,,3,1,r,-999999,60,151074,r,1171,152245,Green,Congruent,r,White,0,,0,2,146010,,0,0,,,,,,,,,,,,,Pictures\white.bmp,4000,4000,Pictures\GreenLeft.bmp,,,,,,,3,1,3,,,,StimulusPr,Pictures\black.bmp,NonCuedStim3,Left
POP_2,16048,1,"<?xml version=""1.0""?>\n<Clock xmlns:dt=""urn:schemas-microsoft-com:datatypes""><Description dt:dt=""string"">E-Prime Primary Realtime Clock</Description><StartTime><Timestamp dt:dt=""int"">0</Timestamp><DateUtc dt:dt=""string"">2014-05-27T20:18:59Z</DateUtc></StartTime><FrequencyChanges><FrequencyChange><Frequency dt:dt=""r8"">2793030000</Frequency><Timestamp dt:dt=""r8"">7811181100042</Timestamp><Current dt:dt=""r8"">0</Current><DateUtc dt:dt=""string"">2014-05-27T20:18:59Z</DateUtc></FrequencyChange></FrequencyChanges></Clock>\n",60.034,1,-794392260,0,,-999999,2,20689,t,70326,91015,5/27/2014,13:18:59,8:18:59 PM,1,Session1,SessionsList,,,,,,,,,,1,1,1,1,,,,,,,,1,1,1,NonCued3,MiniBlocks2,,,91038,,4,1,b,-999999,71,165084,b,1445,166529,Red,Incongruent,b,White,0,,0,5,158021,,0,0,,,,,,,,,,,,,Pictures\white.bmp,6000,4000,Pictures\RedLeft.bmp,,,,,,,4,1,4,,,,StimulusPr,Pictures\black.bmp,NonCuedStim3,Left
POP_2,16048,1,"<?xml version=""1.0""?>\n<Clock xmlns:dt=""urn:schemas-microsoft-com:datatypes""><Description dt:dt=""string"">E-Prime Primary Realtime Clock</Description><StartTime><Timestamp dt:dt=""int"">0</Timestamp><DateUtc dt:dt=""string"">2014-05-27T20:18:59Z</DateUtc></StartTime><FrequencyChanges><FrequencyChange><Frequency dt:dt=""r8"">2793030000</Frequency><Timestamp dt:dt=""r8"">7811181100042</Timestamp><Current dt:dt=""r8"">0</Current><DateUtc dt:dt=""string"">2014-05-27T20:18:59Z</DateUtc></FrequencyChange></FrequencyChanges></Clock>\n",60.034,1,-794392260,0,,-999999,2,20689,t,70326,91015,5/27/2014,13:18:59,8:18:59 PM,1,Session1,SessionsList,,,,,,,,,,1,1,1,1,,,,,,,,1,1,1,NonCued3,MiniBlocks2,,,91038,,5,1,b,-999999,16,176028,b,920,176948,Green,Congruent,b,White,0,,0,14,172030,,0,0,,,,,,,,,,,,,Pictures\white.bmp,3000,2000,Pictures\black.bmp,,,,,,,5,1,5,,,,StimulusPr,Pictures\GreenRight.bmp,NonCuedStim3,Right
POP_2,16048,1,"<?xml version=""1.0""?>\n<Clock xmlns:dt=""urn:schemas-microsoft-com:datatypes""><Description dt:dt=""string"">E-Prime Primary Realtime Clock</Description><StartTime><Timestamp dt:dt=""int"">0</Timestamp><DateUtc dt:dt=""string"">2014-05-27T20:18:59Z</DateUtc></StartTime><FrequencyChanges><FrequencyChange><Frequency dt:dt=""r8"">2793030000</Frequency><Timestamp dt:dt=""r8"">7811181100042</Timestamp><Current dt:dt=""r8"">0</Current><DateUtc dt:dt=""string"">2014-05-27T20:18:59Z</DateUtc></FrequencyChange></FrequencyChanges></Clock>\n",60.034,1,-794392260,0,,-999999,2,20689,t,70326,91015,5/27/2014,13:18:59,8:18:59 PM,1,Session1,SessionsList,,,,,,,,,,1,1,1,1,,,,,,,,1,1,1,NonCued3,MiniBlocks2,,,91038,,6,1,r,-999999,10,184008,r,948,184956,Green,Congruent,r,White,0,,0,14,180026,,0,0,,,,,,,,,,,,,Pictures\white.bmp,3000,2000,Pictures\GreenLeft.bmp,,,,,,,6,1,6,,,,StimulusPr,Pictures\black.bmp,NonCuedStim3,Left
POP_2,16048,1,"<?xml version=""1.0""?>\n<Clock xmlns:dt=""urn:schemas-microsoft-com:datatypes""><Description dt:dt=""string"">E-Prime Primary Realtime Clock</Description><StartTime><Timestamp dt:dt=""int"">0</Timestamp><DateUtc dt:dt=""string"">2014-05-27T20:18:59Z</DateUtc></StartTime><FrequencyChanges><FrequencyChange><Frequency dt:dt=""r8"">2793030000</Frequency><Timestamp dt:dt=""r8"">7811181100042</Timestamp><Current dt:dt=""r8"">0</Current><DateUtc dt:dt=""string"">2014-05-27T20:18:59Z</DateUtc></FrequencyChange></FrequencyChanges></Clock>\n",60.034,1,-794392260,0,,-999999,2,20689,t,70326,91015,5/27/2014,13:18:59,8:18:59 PM,1,Session1,SessionsList,,,,,,,,,,1,1,1,1,,,,,,,,1,1,1,NonCued3,MiniBlocks2,,,91038,,7,1,b,-999999,4,195002,b,702,195704,Green,Congruent,b,White,0,,0,7,188022,,0,0,,,,,,,,,,,,,Pictures\white.bmp,6000,16000,Pictures\black.bmp,,,,,,,7,1,7,,,,StimulusPr,Pictures\GreenRight.bmp,NonCuedStim3,Right
POP_2,16048,1,"<?xml version=""1.0""?>\n<Clock xmlns:dt=""urn:schemas-microsoft-com:datatypes""><Description dt:dt=""string"">E-Prime Primary Realtime Clock</Description><StartTime><Timestamp dt:dt=""int"">0</Timestamp><DateUtc dt:dt=""string"">2014-05-27T20:18:59Z</DateUtc></StartTime><FrequencyChanges><FrequencyChange><Frequency dt:dt=""r8"">2793030000</Frequency><Timestamp dt:dt=""r8"">7811181100042</Timestamp><Current dt:dt=""r8"">0</Current><DateUtc dt:dt=""string"">2014-05-27T20:18:59Z</DateUtc></FrequencyChange></FrequencyChanges></Clock>\n",60.034,1,-794392260,0,,-999999,2,20689,t,70326,91015,5/27/2014,13:18:59,8:18:59 PM,1,Session1,SessionsList,,,,,,,,,,1,1,1,1,,,,,,,,1,1,1,NonCued3,MiniBlocks2,,,91038,,8,1,r,-999999,9,217025,r,903,217928,Red,Incongruent,r,White,0,,0,11,213027,,0,0,,,,,,,,,,,,,Pictures\white.bmp,3000,2000,Pictures\black.bmp,,,,,,,8,1,8,,,,StimulusPr,Pictures\RedRight.bmp,NonCuedStim3,Right
POP_2,16048,1,"<?xml version=""1.0""?>\n<Clock xmlns:dt=""urn:schemas-microsoft-com:datatypes""><Description dt:dt=""string"">E-Prime Primary Realtime Clock</Description><StartTime><Timestamp dt:dt=""int"">0</Timestamp><DateUtc dt:dt=""string"">2014-05-27T20:18:59Z</DateUtc></StartTime><FrequencyChanges><FrequencyChange><Frequency dt:dt=""r8"">2793030000</Frequency><Timestamp dt:dt=""r8"">7811181100042</Timestamp><Current dt:dt=""r8"">0</Current><DateUtc dt:dt=""string"">2014-05-27T20:18:59Z</DateUtc></FrequencyChange></FrequencyChanges></Clock>\n",60.034,1,-794392260,0,,-999999,2,20689,t,70326,91015,5/27/2014,13:18:59,8:18:59 PM,1,Session1,SessionsList,,,,,,,,,,1,1,1,1,,,,,,,,1,1,1,NonCued3,MiniBlocks2,,,91038,,9,1,r,-999999,16,231018,r,894,231912,Green,Congruent,r,White,0,,0,7,221023,,0,0,,,,,,,,,,,,,Pictures\white.bmp,9000,10000,Pictures\GreenLeft.bmp,,,,,,,9,1,9,,,,StimulusPr,Pictures\black.bmp,NonCuedStim3,Left
POP_2,16048,1,"<?xml version=""1.0""?>\n<Clock xmlns:dt=""urn:schemas-microsoft-com:datatypes""><Description dt:dt=""string"">E-Prime Primary Realtime Clock</Description><StartTime><Timestamp dt:dt=""int"">0</Timestamp><DateUtc dt:dt=""string"">2014-05-27T20:18:59Z</DateUtc></StartTime><FrequencyChanges><FrequencyChange><Frequency dt:dt=""r8"">2793030000</Frequency><Timestamp dt:dt=""r8"">7811181100042</Timestamp><Current dt:dt=""r8"">0</Current><DateUtc dt:dt=""string"">2014-05-27T20:18:59Z</DateUtc></FrequencyChange></FrequencyChanges></Clock>\n",60.034,1,-794392260,0,,-999999,2,20689,t,70326,91015,5/27/2014,13:18:59,8:18:59 PM,1,Session1,SessionsList,,,,,,,,,,1,1,1,1,,,,,,,,1,1,1,NonCued3,MiniBlocks2,,,91038,,10,1,r,-999999,15,250025,r,1012,251037,Green,Congruent,r,White,0,,0,12,243012,,0,0,,,,,,,,,,,,,Pictures\white.bmp,6000,4000,Pictures\GreenLeft.bmp,,,,,,,10,1,10,,,,StimulusPr,Pictures\black.bmp,NonCuedStim3,Left
POP_2,16048,1,"<?xml version=""1.0""?>\n<Clock xmlns:dt=""urn:schemas-microsoft-com:datatypes""><Description dt:dt=""string"">E-Prime Primary Realtime Clock</Description><StartTime><Timestamp dt:dt=""int"">0</Timestamp><DateUtc dt:dt=""string"">2014-05-27T20:18:59Z</DateUtc></StartTime><FrequencyChanges><FrequencyChange><Frequency dt:dt=""r8"">2793030000</Frequency><Timestamp dt:dt=""r8"">7811181100042</Timestamp><Current dt:dt=""r8"">0</Current><DateUtc dt:dt=""string"">2014-05-27T20:18:59Z</DateUtc></FrequencyChange></FrequencyChanges></Clock>\n",60.034,1,-794392260,0,,-999999,2,20689,t,70326,91015,5/27/2014,13:18:59,8:18:59 PM,1,Session1,SessionsList,,,,,,,,,,1,1,1,2,,,255056,,,,,2,1,2,Cued3,MiniBlocks2,,,,,1,1,b,-999999,50,269065,b,1717,270782,White,Congruent,b,Green,0,,0,69,265084,,0,0,,,,,,,1,1,1,,,,Pictures\green.bmp,3000,2000,Pictures\black.bmp,,,,,,,,,,,,,StimulusPr,Pictures\right.bmp,CuedStim3,Right
POP_2,16048,1,"<?xml version=""1.0""?>\n<Clock xmlns:dt=""urn:schemas-microsoft-com:datatypes""><Description dt:dt=""string"">E-Prime Primary Realtime Clock</Description><StartTime><Timestamp dt:dt=""int"">0</Timestamp><DateUtc dt:dt=""string"">2014-05-27T20:18:59Z</DateUtc></StartTime><FrequencyChanges><FrequencyChange><Frequency dt:dt=""r8"">2793030000</Frequency><Timestamp dt:dt=""r8"">7811181100042</Timestamp><Current dt:dt=""r8"">0</Current><DateUtc dt:dt=""string"">2014-05-27T20:18:59Z</DateUtc></FrequencyChange></FrequencyChanges></Clock>\n",60.034,1,-794392260,0,,-999999,2,20689,t,70326,91015,5/27/2014,13:18:59,8:18:59 PM,1,Session1,SessionsList,,,,,,,,,,1,1,1,2,,,255056,,,,,2,1,2,Cued3,MiniBlocks2,,,,,2,1,b,-999999,13,278028,b,569,278597,White,Congruent,b,Green,0,,0,15,274030,,0,0,,,,,,,2,1,2,,,,Pictures\green.bmp,3000,10000,Pictures\black.bmp,,,,,,,,,,,,,StimulusPr,Pictures\right.bmp,CuedStim3,Right
POP_2,16048,1,"<?xml version=""1.0""?>\n<Clock xmlns:dt=""urn:schemas-microsoft-com:datatypes""><Description dt:dt=""string"">E-Prime Primary Realtime Clock</Description><StartTime><Timestamp dt:dt=""int"">0</Timestamp><DateUtc dt:dt=""string"">2014-05-27T20:18:59Z</DateUtc></StartTime><FrequencyChanges><FrequencyChange><Frequency dt:dt=""r8"">2793030000</Frequency><Timestamp dt:dt=""r8"">7811181100042</Timestamp><Current dt:dt=""r8"">0</Current><DateUtc dt:dt=""string"">2014-05-27T20:18:59Z</DateUtc></FrequencyChange></FrequencyChanges></Clock>\n",60.034,1,-794392260,0,,-999999,2,20689,t,70326,91015,5/27/2014,13:18:59,8:18:59 PM,1,Session1,SessionsList,,,,,,,,,,1,1,1,2,,,255056,,,,,2,1,2,Cued3,MiniBlocks2,,,,,3,1,r,-999999,51,300067,r,793,300860,White,Congruent,r,Green,0,,0,7,290022,,0,0,,,,,,,3,1,3,,,,Pictures\green.bmp,9000,2000,Pictures\left.bmp,,,,,,,,,,,,,StimulusPr,Pictures\black.bmp,CuedStim3,Left
POP_2,16048,1,"<?xml version=""1.0""?>\n<Clock xmlns:dt=""urn:schemas-microsoft-com:datatypes""><Description dt:dt=""string"">E-Prime Primary Realtime Clock</Description><StartTime><Timestamp dt:dt=""int"">0</Timestamp><DateUtc dt:dt=""string"">2014-05-27T20:18:59Z</DateUtc></StartTime><FrequencyChanges><FrequencyChange><Frequency dt:dt=""r8"">2793030000</Frequency><Timestamp dt:dt=""r8"">7811181100042</Timestamp><Current dt:dt=""r8"">0</Current><DateUtc dt:dt=""string"">2014-05-27T20:18:59Z</DateUtc></FrequencyChange></FrequencyChanges></Clock>\n",60.034,1,-794392260,0,,-999999,2,20689,t,70326,91015,5/27/2014,13:18:59,8:18:59 PM,1,Session1,SessionsList,,,,,,,,,,1,1,1,2,,,255056,,,,,2,1,2,Cued3,MiniBlocks2,,,,,4,1,r,-999999,13,309029,r,878,309907,White,Congruent,r,Green,0,,0,15,304031,,0,0,,,,,,,4,1,4,,,,Pictures\green.bmp,4000,16000,Pictures\left.bmp,,,,,,,,,,,,,StimulusPr,Pictures\black.bmp,CuedStim3,Left
POP_2,16048,1,"<?xml version=""1.0""?>\n<Clock xmlns:dt=""urn:schemas-microsoft-com:datatypes""><Description dt:dt=""string"">E-Prime Primary Realtime Clock</Description><StartTime><Timestamp dt:dt=""int"">0</Timestamp><DateUtc dt:dt=""string"">2014-05-27T20:18:59Z</DateUtc></StartTime><FrequencyChanges><FrequencyChange><Frequency dt:dt=""r8"">2793030000</Frequency><Timestamp dt:dt=""r8"">7811181100042</Timestamp><Current dt:dt=""r8"">0</Current><DateUtc dt:dt=""string"">2014-05-27T20:18:59Z</DateUtc></FrequencyChange></FrequencyChanges></Clock>\n",60.034,1,-794392260,0,,-999999,2,20689,t,70326,91015,5/27/2014,13:18:59,8:18:59 PM,1,Session1,SessionsList,,,,,,,,,,1,1,1,2,,,255056,,,,,2,1,2,Cued3,MiniBlocks2,,,,,5,1,r,-999999,17,331034,r,588,331622,White,Incongruent,r,Red,0,,0,70,327086,,0,0,,,,,,,5,1,5,,,,Pictures\red.bmp,3000,4000,Pictures\black.bmp,,,,,,,,,,,,,StimulusPr,Pictures\right.bmp,CuedStim3,Right
POP_2,16048,1,"<?xml version=""1.0""?>\n<Clock xmlns:dt=""urn:schemas-microsoft-com:datatypes""><Description dt:dt=""string"">E-Prime Primary Realtime Clock</Description><StartTime><Timestamp dt:dt=""int"">0</Timestamp><DateUtc dt:dt=""string"">2014-05-27T20:18:59Z</DateUtc></StartTime><FrequencyChanges><FrequencyChange><Frequency dt:dt=""r8"">2793030000</Frequency><Timestamp dt:dt=""r8"">7811181100042</Timestamp><Current dt:dt=""r8"">0</Current><DateUtc dt:dt=""string"">2014-05-27T20:18:59Z</DateUtc></FrequencyChange></FrequencyChanges></Clock>\n",60.034,1,-794392260,0,,-999999,2,20689,t,70326,91015,5/27/2014,13:18:59,8:18:59 PM,1,Session1,SessionsList,,,,,,,,,,1,1,1,2,,,255056,,,,,2,1,2,Cued3,MiniBlocks2,,,,,6,1,b,-999999,12,344028,b,1078,345106,White,Congruent,b,Green,0,,0,15,337031,,0,0,,,,,,,6,1,6,,,,Pictures\green.bmp,6000,4000,Pictures\black.bmp,,,,,,,,,,,,,StimulusPr,Pictures\right.bmp,CuedStim3,Right
POP_2,16048,1,"<?xml version=""1.0""?>\n<Clock xmlns:dt=""urn:schemas-microsoft-com:datatypes""><Description dt:dt=""string"">E-Prime Primary Realtime Clock</Description><StartTime><Timestamp dt:dt=""int"">0</Timestamp><DateUtc dt:dt=""string"">2014-05-27T20:18:59Z</DateUtc></StartTime><FrequencyChanges><FrequencyChange><Frequency dt:dt=""r8"">2793030000</Frequency><Timestamp dt:dt=""r8"">7811181100042</Timestamp><Current dt:dt=""r8"">0</Current><DateUtc dt:dt=""string"">2014-05-27T20:18:59Z</DateUtc></FrequencyChange></FrequencyChanges></Clock>\n",60.034,1,-794392260,0,,-999999,2,20689,t,70326,91015,5/27/2014,13:18:59,8:18:59 PM,1,Session1,SessionsList,,,,,,,,,,1,1,1,2,,,255056,,,,,2,1,2,Cued3,MiniBlocks2,,,,,7,1,r,-999999,18,356022,r,866,356888,White,Congruent,r,Green,0,,0,9,351008,,0,0,,,,,,,7,1,7,,,,Pictures\green.bmp,4000,16000,Pictures\left.bmp,,,,,,,,,,,,,StimulusPr,Pictures\black.bmp,CuedStim3,Left
POP_2,16048,1,"<?xml version=""1.0""?>\n<Clock xmlns:dt=""urn:schemas-microsoft-com:datatypes""><Description dt:dt=""string"">E-Prime Primary Realtime Clock</Description><StartTime><Timestamp dt:dt=""int"">0</Timestamp><DateUtc dt:dt=""string"">2014-05-27T20:18:59Z</DateUtc></StartTime><FrequencyChanges><FrequencyChange><Frequency dt:dt=""r8"">2793030000</Frequency><Timestamp dt:dt=""r8"">7811181100042</Timestamp><Current dt:dt=""r8"">0</Current><DateUtc dt:dt=""string"">2014-05-27T20:18:59Z</DateUtc></FrequencyChange></FrequencyChanges></Clock>\n",60.034,1,-794392260,0,,-999999,2,20689,t,70326,91015,5/27/2014,13:18:59,8:18:59 PM,1,Session1,SessionsList,,,,,,,,,,1,1,1,2,,,255056,,,,,2,1,2,Cued3,MiniBlocks2,,,,,8,1,b,-999999,17,378028,b,1246,379274,White,Incongruent,b,Red,0,,0,15,374013,,0,0,,,,,,,8,1,8,,,,Pictures\red.bmp,3000,2000,Pictures\left.bmp,,,,,,,,,,,,,StimulusPr,Pictures\black.bmp,CuedStim3,Left
POP_2,16048,1,"<?xml version=""1.0""?>\n<Clock xmlns:dt=""urn:schemas-microsoft-com:datatypes""><Description dt:dt=""string"">E-Prime Primary Realtime Clock</Description><StartTime><Timestamp dt:dt=""int"">0</Timestamp><DateUtc dt:dt=""string"">2014-05-27T20:18:59Z</DateUtc></StartTime><FrequencyChanges><FrequencyChange><Frequency dt:dt=""r8"">2793030000</Frequency><Timestamp dt:dt=""r8"">7811181100042</Timestamp><Current dt:dt=""r8"">0</Current><DateUtc dt:dt=""string"">2014-05-27T20:18:59Z</DateUtc></FrequencyChange></FrequencyChanges></Clock>\n",60.034,1,-794392260,0,,-999999,2,20689,t,70326,91015,5/27/2014,13:18:59,8:18:59 PM,1,Session1,SessionsList,,,,,,,,,,1,1,1,2,,,255056,,,,,2,1,2,Cued3,MiniBlocks2,,,,,9,1,r,-999999,7,387023,r,1282,388305,White,Congruent,r,Green,0,,0,12,383025,,0,0,,,,,,,9,1,9,,,,Pictures\green.bmp,3000,2000,Pictures\left.bmp,,,,,,,,,,,,,StimulusPr,Pictures\black.bmp,CuedStim3,Left
POP_2,16048,1,"<?xml version=""1.0""?>\n<Clock xmlns:dt=""urn:schemas-microsoft-com:datatypes""><Description dt:dt=""string"">E-Prime Primary Realtime Clock</Description><StartTime><Timestamp dt:dt=""int"">0</Timestamp><DateUtc dt:dt=""string"">2014-05-27T20:18:59Z</DateUtc></StartTime><FrequencyChanges><FrequencyChange><Frequency dt:dt=""r8"">2793030000</Frequency><Timestamp dt:dt=""r8"">7811181100042</Timestamp><Current dt:dt=""r8"">0</Current><DateUtc dt:dt=""string"">2014-05-27T20:18:59Z</DateUtc></FrequencyChange></FrequencyChanges></Clock>\n",60.034,1,-794392260,0,,-999999,2,20689,t,70326,91015,5/27/2014,13:18:59,8:18:59 PM,1,Session1,SessionsList,,,,,,,,,,1,1,1,2,,,255056,,,,,2,1,2,Cued3,MiniBlocks2,,,,,10,1,b,-999999,16,402032,b,1124,403156,White,Congruent,b,Green,0,,0,7,392004,,0,0,,,,,,,10,1,10,,,,Pictures\green.bmp,9000,10000,Pictures\black.bmp,,,,,,,,,,,,,StimulusPr,Pictures\right.bmp,CuedStim3,Right
POP_2,16048,1,"<?xml version=""1.0""?>\n<Clock xmlns:dt=""urn:schemas-microsoft-com:datatypes""><Description dt:dt=""string"">E-Prime Primary Realtime Clock</Description><StartTime><Timestamp dt:dt=""int"">0</Timestamp><DateUtc dt:dt=""string"">2014-05-27T20:18:59Z</DateUtc></StartTime><FrequencyChanges><FrequencyChange><Frequency dt:dt=""r8"">2793030000</Frequency><Timestamp dt:dt=""r8"">7811181100042</Timestamp><Current dt:dt=""r8"">0</Current><DateUtc dt:dt=""string"">2014-05-27T20:18:59Z</DateUtc></FrequencyChange></FrequencyChanges></Clock>\n",60.034,1,-794392260,0,,-999999,2,20689,t,70326,91015,5/27/2014,13:18:59,8:18:59 PM,1,Session1,SessionsList,,,,,,,,,,1,1,1,3,,,,413177,,,,3,1,3,Cued4,MiniBlocks2,,,,,1,1,b,-999999,3,430019,b,841,430860,White,Congruent,b,Green,0,,0,6,423022,,0,0,,,,,,,,,,1,1,1,Pictures\green.bmp,6000,2000,Pictures\black.bmp,,,,,,,,,,,,,StimulusPr,Pictures\right.bmp,CuedStim4,Right
POP_2,16048,1,"<?xml version=""1.0""?>\n<Clock xmlns:dt=""urn:schemas-microsoft-com:datatypes""><Description dt:dt=""string"">E-Prime Primary Realtime Clock</Description><StartTime><Timestamp dt:dt=""int"">0</Timestamp><DateUtc dt:dt=""string"">2014-05-27T20:18:59Z</DateUtc></StartTime><FrequencyChanges><FrequencyChange><Frequency dt:dt=""r8"">2793030000</Frequency><Timestamp dt:dt=""r8"">7811181100042</Timestamp><Current dt:dt=""r8"">0</Current><DateUtc dt:dt=""string"">2014-05-27T20:18:59Z</DateUtc></FrequencyChange></FrequencyChanges></Clock>\n",60.034,1,-794392260,0,,-999999,2,20689,t,70326,91015,5/27/2014,13:18:59,8:18:59 PM,1,Session1,SessionsList,,,,,,,,,,1,1,1,3,,,,413177,,,,3,1,3,Cued4,MiniBlocks2,,,,,2,1,r,-999999,13,444028,r,1227,445255,White,Incongruent,r,Red,0,,0,17,434033,,0,0,,,,,,,,,,2,1,2,Pictures\red.bmp,9000,2000,Pictures\black.bmp,,,,,,,,,,,,,StimulusPr,Pictures\right.bmp,CuedStim4,Right
POP_2,16048,1,"<?xml version=""1.0""?>\n<Clock xmlns:dt=""urn:schemas-microsoft-com:datatypes""><Description dt:dt=""string"">E-Prime Primary Realtime Clock</Description><StartTime><Timestamp dt:dt=""int"">0</Timestamp><DateUtc dt:dt=""string"">2014-05-27T20:18:59Z</DateUtc></StartTime><FrequencyChanges><FrequencyChange><Frequency dt:dt=""r8"">2793030000</Frequency><Timestamp dt:dt=""r8"">7811181100042</Timestamp><Current dt:dt=""r8"">0</Current><DateUtc dt:dt=""string"">2014-05-27T20:18:59Z</DateUtc></FrequencyChange></FrequencyChanges></Clock>\n",60.034,1,-794392260,0,,-999999,2,20689,t,70326,91015,5/27/2014,13:18:59,8:18:59 PM,1,Session1,SessionsList,,,,,,,,,,1,1,1,3,,,,413177,,,,3,1,3,Cued4,MiniBlocks2,,,,,3,1,b,-999999,8,453024,b,390,453414,White,Congruent,b,Green,0,,0,10,449026,,0,0,,,,,,,,,,3,1,3,Pictures\green.bmp,3000,4000,Pictures\black.bmp,,,,,,,,,,,,,StimulusPr,Pictures\right.bmp,CuedStim4,Right
POP_2,16048,1,"<?xml version=""1.0""?>\n<Clock xmlns:dt=""urn:schemas-microsoft-com:datatypes""><Description dt:dt=""string"">E-Prime Primary Realtime Clock</Description><StartTime><Timestamp dt:dt=""int"">0</Timestamp><DateUtc dt:dt=""string"">2014-05-27T20:18:59Z</DateUtc></StartTime><FrequencyChanges><FrequencyChange><Frequency dt:dt=""r8"">2793030000</Frequency><Timestamp dt:dt=""r8"">7811181100042</Timestamp><Current dt:dt=""r8"">0</Current><DateUtc dt:dt=""string"">2014-05-27T20:18:59Z</DateUtc></FrequencyChange></FrequencyChanges></Clock>\n",60.034,1,-794392260,0,,-999999,2,20689,t,70326,91015,5/27/2014,13:18:59,8:18:59 PM,1,Session1,SessionsList,,,,,,,,,,1,1,1,3,,,,413177,,,,3,1,3,Cued4,MiniBlocks2,,,,,4,1,r,-999999,4,463019,r,569,463588,White,Congruent,r,Green,0,,0,5,459021,,0,0,,,,,,,,,,4,1,4,Pictures\green.bmp,3000,4000,Pictures\left.bmp,,,,,,,,,,,,,StimulusPr,Pictures\black.bmp,CuedStim4,Left
POP_2,16048,1,"<?xml version=""1.0""?>\n<Clock xmlns:dt=""urn:schemas-microsoft-com:datatypes""><Description dt:dt=""string"">E-Prime Primary Realtime Clock</Description><StartTime><Timestamp dt:dt=""int"">0</Timestamp><DateUtc dt:dt=""string"">2014-05-27T20:18:59Z</DateUtc></StartTime><FrequencyChanges><FrequencyChange><Frequency dt:dt=""r8"">2793030000</Frequency><Timestamp dt:dt=""r8"">7811181100042</Timestamp><Current dt:dt=""r8"">0</Current><DateUtc dt:dt=""string"">2014-05-27T20:18:59Z</DateUtc></FrequencyChange></FrequencyChanges></Clock>\n",60.034,1,-794392260,0,,-999999,2,20689,t,70326,91015,5/27/2014,13:18:59,8:18:59 PM,1,Session1,SessionsList,,,,,,,,,,1,1,1,3,,,,413177,,,,3,1,3,Cued4,MiniBlocks2,,,,,5,1,b,-999999,14,474030,b,1075,475105,White,Incongruent,b,Red,0,,0,15,469016,,0,0,,,,,,,,,,5,1,5,Pictures\red.bmp,4000,16000,Pictures\left.bmp,,,,,,,,,,,,,StimulusPr,Pictures\black.bmp,CuedStim4,Left
POP_2,16048,1,"<?xml version=""1.0""?>\n<Clock xmlns:dt=""urn:schemas-microsoft-com:datatypes""><Description dt:dt=""string"">E-Prime Primary Realtime Clock</Description><StartTime><Timestamp dt:dt=""int"">0</Timestamp><DateUtc dt:dt=""string"">2014-05-27T20:18:59Z</DateUtc></StartTime><FrequencyChanges><FrequencyChange><Frequency dt:dt=""r8"">2793030000</Frequency><Timestamp dt:dt=""r8"">7811181100042</Timestamp><Current dt:dt=""r8"">0</Current><DateUtc dt:dt=""string"">2014-05-27T20:18:59Z</DateUtc></FrequencyChange></FrequencyChanges></Clock>\n",60.034,1,-794392260,0,,-999999,2,20689,t,70326,91015,5/27/2014,13:18:59,8:18:59 PM,1,Session1,SessionsList,,,,,,,,,,1,1,1,3,,,,413177,,,,3,1,3,Cued4,MiniBlocks2,,,,,6,1,b,-999999,17,497018,b,1247,498265,White,Congruent,b,Green,0,,0,3,493004,,0,0,,,,,,,,,,6,1,6,Pictures\green.bmp,3000,2000,Pictures\black.bmp,,,,,,,,,,,,,StimulusPr,Pictures\right.bmp,CuedStim4,Right
POP_2,16048,1,"<?xml version=""1.0""?>\n<Clock xmlns:dt=""urn:schemas-microsoft-com:datatypes""><Description dt:dt=""string"">E-Prime Primary Realtime Clock</Description><StartTime><Timestamp dt:dt=""int"">0</Timestamp><DateUtc dt:dt=""string"">2014-05-27T20:18:59Z</DateUtc></StartTime><FrequencyChanges><FrequencyChange><Frequency dt:dt=""r8"">2793030000</Frequency><Timestamp dt:dt=""r8"">7811181100042</Timestamp><Current dt:dt=""r8"">0</Current><DateUtc dt:dt=""string"">2014-05-27T20:18:59Z</DateUtc></FrequencyChange></FrequencyChanges></Clock>\n",60.034,1,-794392260,0,,-999999,2,20689,t,70326,91015,5/27/2014,13:18:59,8:18:59 PM,1,Session1,SessionsList,,,,,,,,,,1,1,1,3,,,,413177,,,,3,1,3,Cued4,MiniBlocks2,,,,,7,1,b,-999999,12,512028,b,713,512741,White,Congruent,b,Green,0,,0,16,502016,,0,0,,,,,,,,,,7,1,7,Pictures\green.bmp,9000,10000,Pictures\black.bmp,,,,,,,,,,,,,StimulusPr,Pictures\right.bmp,CuedStim4,Right
POP_2,16048,1,"<?xml version=""1.0""?>\n<Clock xmlns:dt=""urn:schemas-microsoft-com:datatypes""><Description dt:dt=""string"">E-Prime Primary Realtime Clock</Description><StartTime><Timestamp dt:dt=""int"">0</Timestamp><DateUtc dt:dt=""string"">2014-05-27T20:18:59Z</DateUtc></StartTime><FrequencyChanges><FrequencyChange><Frequency dt:dt=""r8"">2793030000</Frequency><Timestamp dt:dt=""r8"">7811181100042</Timestamp><Current dt:dt=""r8"">0</Current><DateUtc dt:dt=""string"">2014-05-27T20:18:59Z</DateUtc></FrequencyChange></FrequencyChanges></Clock>\n",60.034,1,-794392260,0,,-999999,2,20689,t,70326,91015,5/27/2014,13:18:59,8:18:59 PM,1,Session1,SessionsList,,,,,,,,,,1,1,1,3,,,,413177,,,,3,1,3,Cued4,MiniBlocks2,,,,,8,1,b,-999999,3,531019,b,950,531969,White,Incongruent,b,Red,0,,0,6,524022,,0,0,,,,,,,,,,8,1,8,Pictures\red.bmp,6000,10000,Pictures\left.bmp,,,,,,,,,,,,,StimulusPr,Pictures\black.bmp,CuedStim4,Left
POP_2,16048,1,"<?xml version=""1.0""?>\n<Clock xmlns:dt=""urn:schemas-microsoft-com:datatypes""><Description dt:dt=""string"">E-Prime Primary Realtime Clock</Description><StartTime><Timestamp dt:dt=""int"">0</Timestamp><DateUtc dt:dt=""string"">2014-05-27T20:18:59Z</DateUtc></StartTime><FrequencyChanges><FrequencyChange><Frequency dt:dt=""r8"">2793030000</Frequency><Timestamp dt:dt=""r8"">7811181100042</Timestamp><Current dt:dt=""r8"">0</Current><DateUtc dt:dt=""string"">2014-05-27T20:18:59Z</DateUtc></FrequencyChange></FrequencyChanges></Clock>\n",60.034,1,-794392260,0,,-999999,2,20689,t,70326,91015,5/27/2014,13:18:59,8:18:59 PM,1,Session1,SessionsList,,,,,,,,,,1,1,1,3,,,,413177,,,,3,1,3,Cued4,MiniBlocks2,,,,,9,1,r,-999999,10,550025,r,1142,551167,White,Congruent,r,Green,0,,0,13,543029,,0,0,,,,,,,,,,9,1,9,Pictures\green.bmp,6000,16000,Pictures\left.bmp,,,,,,,,,,,,,StimulusPr,Pictures\black.bmp,CuedStim4,Left
POP_2,16048,1,"<?xml version=""1.0""?>\n<Clock xmlns:dt=""urn:schemas-microsoft-com:datatypes""><Description dt:dt=""string"">E-Prime Primary Realtime Clock</Description><StartTime><Timestamp dt:dt=""int"">0</Timestamp><DateUtc dt:dt=""string"">2014-05-27T20:18:59Z</DateUtc></StartTime><FrequencyChanges><FrequencyChange><Frequency dt:dt=""r8"">2793030000</Frequency><Timestamp dt:dt=""r8"">7811181100042</Timestamp><Current dt:dt=""r8"">0</Current><DateUtc dt:dt=""string"">2014-05-27T20:18:59Z</DateUtc></FrequencyChange></FrequencyChanges></Clock>\n",60.034,1,-794392260,0,,-999999,2,20689,t,70326,91015,5/27/2014,13:18:59,8:18:59 PM,1,Session1,SessionsList,,,,,,,,,,1,1,1,3,,,,413177,,,,3,1,3,Cued4,MiniBlocks2,,,,,10,1,r,-999999,14,574030,r,717,574747,White,Congruent,r,Green,0,,0,17,569033,,0,0,,,,,,,,,,10,1,10,Pictures\green.bmp,4000,2000,Pictures\left.bmp,,,,,,,,,,,,,StimulusPr,Pictures\black.bmp,CuedStim4,Left
POP_2,16048,1,"<?xml version=""1.0""?>\n<Clock xmlns:dt=""urn:schemas-microsoft-com:datatypes""><Description dt:dt=""string"">E-Prime Primary Realtime Clock</Description><StartTime><Timestamp dt:dt=""int"">0</Timestamp><DateUtc dt:dt=""string"">2014-05-27T20:18:59Z</DateUtc></StartTime><FrequencyChanges><FrequencyChange><Frequency dt:dt=""r8"">2793030000</Frequency><Timestamp dt:dt=""r8"">7811181100042</Timestamp><Current dt:dt=""r8"">0</Current><DateUtc dt:dt=""string"">2014-05-27T20:18:59Z</DateUtc></FrequencyChange></FrequencyChanges></Clock>\n",60.034,1,-794392260,0,,-999999,2,20689,t,70326,91015,5/27/2014,13:18:59,8:18:59 PM,1,Session1,SessionsList,,,,,,,,,,1,1,1,4,,,,,,,,4,1,4,NonCued4,MiniBlocks2,,,,576779,1,1,r,-999999,6,591022,r,673,591695,Green,Congruent,r,White,0,,0,8,587024,,0,0,,,,,,,,,,,,,Pictures\white.bmp,3000,2000,Pictures\GreenLeft.bmp,,,,,,,,,,1,1,1,StimulusPr,Pictures\black.bmp,NonCuedStim4,Left
POP_2,16048,1,"<?xml version=""1.0""?>\n<Clock xmlns:dt=""urn:schemas-microsoft-com:datatypes""><Description dt:dt=""string"">E-Prime Primary Realtime Clock</Description><StartTime><Timestamp dt:dt=""int"">0</Timestamp><DateUtc dt:dt=""string"">2014-05-27T20:18:59Z</DateUtc></StartTime><FrequencyChanges><FrequencyChange><Frequency dt:dt=""r8"">2793030000</Frequency><Timestamp dt:dt=""r8"">7811181100042</Timestamp><Current dt:dt=""r8"">0</Current><DateUtc dt:dt=""string"">2014-05-27T20:18:59Z</DateUtc></FrequencyChange></FrequencyChanges></Clock>\n",60.034,1,-794392260,0,,-999999,2,20689,t,70326,91015,5/27/2014,13:18:59,8:18:59 PM,1,Session1,SessionsList,,,,,,,,,,1,1,1,4,,,,,,,,4,1,4,NonCued4,MiniBlocks2,,,,576779,2,1,r,-999999,18,600034,r,554,600588,Green,Congruent,r,White,0,,0,7,595020,,0,0,,,,,,,,,,,,,Pictures\white.bmp,4000,2000,Pictures\GreenLeft.bmp,,,,,,,,,,2,1,2,StimulusPr,Pictures\black.bmp,NonCuedStim4,Left
POP_2,16048,1,"<?xml version=""1.0""?>\n<Clock xmlns:dt=""urn:schemas-microsoft-com:datatypes""><Description dt:dt=""string"">E-Prime Primary Realtime Clock</Description><StartTime><Timestamp dt:dt=""int"">0</Timestamp><DateUtc dt:dt=""string"">2014-05-27T20:18:59Z</DateUtc></StartTime><FrequencyChanges><FrequencyChange><Frequency dt:dt=""r8"">2793030000</Frequency><Timestamp dt:dt=""r8"">7811181100042</Timestamp><Current dt:dt=""r8"">0</Current><DateUtc dt:dt=""string"">2014-05-27T20:18:59Z</DateUtc></FrequencyChange></FrequencyChanges></Clock>\n",60.034,1,-794392260,0,,-999999,2,20689,t,70326,91015,5/27/2014,13:18:59,8:18:59 PM,1,Session1,SessionsList,,,,,,,,,,1,1,1,4,,,,,,,,4,1,4,NonCued4,MiniBlocks2,,,,576779,3,0,r,-999999,13,609029,b,582,609611,Red,Incongruent,r,White,0,,0,16,604032,,0,0,,,,,,,,,,,,,Pictures\white.bmp,4000,2000,Pictures\black.bmp,,,,,,,,,,3,1,3,StimulusPr,Pictures\RedRight.bmp,NonCuedStim4,Right
POP_2,16048,1,"<?xml version=""1.0""?>\n<Clock xmlns:dt=""urn:schemas-microsoft-com:datatypes""><Description dt:dt=""string"">E-Prime Primary Realtime Clock</Description><StartTime><Timestamp dt:dt=""int"">0</Timestamp><DateUtc dt:dt=""string"">2014-05-27T20:18:59Z</DateUtc></StartTime><FrequencyChanges><FrequencyChange><Frequency dt:dt=""r8"">2793030000</Frequency><Timestamp dt:dt=""r8"">7811181100042</Timestamp><Current dt:dt=""r8"">0</Current><DateUtc dt:dt=""string"">2014-05-27T20:18:59Z</DateUtc></FrequencyChange></FrequencyChanges></Clock>\n",60.034,1,-794392260,0,,-999999,2,20689,t,70326,91015,5/27/2014,13:18:59,8:18:59 PM,1,Session1,SessionsList,,,,,,,,,,1,1,1,4,,,,,,,,4,1,4,NonCued4,MiniBlocks2,,,,576779,4,1,b,-999999,9,617025,b,1260,618285,Green,Congruent,b,White,0,,0,11,613027,,0,0,,,,,,,,,,,,,Pictures\white.bmp,3000,16000,Pictures\black.bmp,,,,,,,,,,4,1,4,StimulusPr,Pictures\GreenRight.bmp,NonCuedStim4,Right
POP_2,16048,1,"<?xml version=""1.0""?>\n<Clock xmlns:dt=""urn:schemas-microsoft-com:datatypes""><Description dt:dt=""string"">E-Prime Primary Realtime Clock</Description><StartTime><Timestamp dt:dt=""int"">0</Timestamp><DateUtc dt:dt=""string"">2014-05-27T20:18:59Z</DateUtc></StartTime><FrequencyChanges><FrequencyChange><Frequency dt:dt=""r8"">2793030000</Frequency><Timestamp dt:dt=""r8"">7811181100042</Timestamp><Current dt:dt=""r8"">0</Current><DateUtc dt:dt=""string"">2014-05-27T20:18:59Z</DateUtc></FrequencyChange></FrequencyChanges></Clock>\n",60.034,1,-794392260,0,,-999999,2,20689,t,70326,91015,5/27/2014,13:18:59,8:18:59 PM,1,Session1,SessionsList,,,,,,,,,,1,1,1,4,,,,,,,,4,1,4,NonCued4,MiniBlocks2,,,,576779,5,1,r,-999999,12,646028,r,765,646793,Green,Congruent,r,White,0,,0,17,636033,,0,0,,,,,,,,,,,,,Pictures\white.bmp,9000,10000,Pictures\GreenLeft.bmp,,,,,,,,,,5,1,5,StimulusPr,Pictures\black.bmp,NonCuedStim4,Left
POP_2,16048,1,"<?xml version=""1.0""?>\n<Clock xmlns:dt=""urn:schemas-microsoft-com:datatypes""><Description dt:dt=""string"">E-Prime Primary Realtime Clock</Description><StartTime><Timestamp dt:dt=""int"">0</Timestamp><DateUtc dt:dt=""string"">2014-05-27T20:18:59Z</DateUtc></StartTime><FrequencyChanges><FrequencyChange><Frequency dt:dt=""r8"">2793030000</Frequency><Timestamp dt:dt=""r8"">7811181100042</Timestamp><Current dt:dt=""r8"">0</Current><DateUtc dt:dt=""string"">2014-05-27T20:18:59Z</DateUtc></FrequencyChange></FrequencyChanges></Clock>\n",60.034,1,-794392260,0,,-999999,2,20689,t,70326,91015,5/27/2014,13:18:59,8:18:59 PM,1,Session1,SessionsList,,,,,,,,,,1,1,1,4,,,,,,,,4,1,4,NonCued4,MiniBlocks2,,,,576779,6,1,b,-999999,4,662020,b,740,662760,Green,Congruent,b,White,0,,0,6,658022,,0,0,,,,,,,,,,,,,Pictures\white.bmp,3000,16000,Pictures\black.bmp,,,,,,,,,,6,1,6,StimulusPr,Pictures\GreenRight.bmp,NonCuedStim4,Right
POP_2,16048,1,"<?xml version=""1.0""?>\n<Clock xmlns:dt=""urn:schemas-microsoft-com:datatypes""><Description dt:dt=""string"">E-Prime Primary Realtime Clock</Description><StartTime><Timestamp dt:dt=""int"">0</Timestamp><DateUtc dt:dt=""string"">2014-05-27T20:18:59Z</DateUtc></StartTime><FrequencyChanges><FrequencyChange><Frequency dt:dt=""r8"">2793030000</Frequency><Timestamp dt:dt=""r8"">7811181100042</Timestamp><Current dt:dt=""r8"">0</Current><DateUtc dt:dt=""string"">2014-05-27T20:18:59Z</DateUtc></FrequencyChange></FrequencyChanges></Clock>\n",60.034,1,-794392260,0,,-999999,2,20689,t,70326,91015,5/27/2014,13:18:59,8:18:59 PM,1,Session1,SessionsList,,,,,,,,,,1,1,1,4,,,,,,,,4,1,4,NonCued4,MiniBlocks2,,,,576779,7,1,b,-999999,9,684025,b,1280,685305,Red,Incongruent,b,White,0,,0,11,680027,,0,0,,,,,,,,,,,,,Pictures\white.bmp,3000,16000,Pictures\RedLeft.bmp,,,,,,,,,,7,1,7,StimulusPr,Pictures\black.bmp,NonCuedStim4,Left
POP_2,16048,1,"<?xml version=""1.0""?>\n<Clock xmlns:dt=""urn:schemas-microsoft-com:datatypes""><Description dt:dt=""string"">E-Prime Primary Realtime Clock</Description><StartTime><Timestamp dt:dt=""int"">0</Timestamp><DateUtc dt:dt=""string"">2014-05-27T20:18:59Z</DateUtc></StartTime><FrequencyChanges><FrequencyChange><Frequency dt:dt=""r8"">2793030000</Frequency><Timestamp dt:dt=""r8"">7811181100042</Timestamp><Current dt:dt=""r8"">0</Current><DateUtc dt:dt=""string"">2014-05-27T20:18:59Z</DateUtc></FrequencyChange></FrequencyChanges></Clock>\n",60.034,1,-794392260,0,,-999999,2,20689,t,70326,91015,5/27/2014,13:18:59,8:18:59 PM,1,Session1,SessionsList,,,,,,,,,,1,1,1,4,,,,,,,,4,1,4,NonCued4,MiniBlocks2,,,,576779,8,1,r,-999999,14,707030,r,959,707989,Green,Congruent,r,White,0,,0,16,703032,,0,0,,,,,,,,,,,,,Pictures\white.bmp,3000,2000,Pictures\GreenLeft.bmp,,,,,,,,,,8,1,8,StimulusPr,Pictures\black.bmp,NonCuedStim4,Left
POP_2,16048,1,"<?xml version=""1.0""?>\n<Clock xmlns:dt=""urn:schemas-microsoft-com:datatypes""><Description dt:dt=""string"">E-Prime Primary Realtime Clock</Description><StartTime><Timestamp dt:dt=""int"">0</Timestamp><DateUtc dt:dt=""string"">2014-05-27T20:18:59Z</DateUtc></StartTime><FrequencyChanges><FrequencyChange><Frequency dt:dt=""r8"">2793030000</Frequency><Timestamp dt:dt=""r8"">7811181100042</Timestamp><Current dt:dt=""r8"">0</Current><DateUtc dt:dt=""string"">2014-05-27T20:18:59Z</DateUtc></FrequencyChange></FrequencyChanges></Clock>\n",60.034,1,-794392260,0,,-999999,2,20689,t,70326,91015,5/27/2014,13:18:59,8:18:59 PM,1,Session1,SessionsList,,,,,,,,,,1,1,1,4,,,,,,,,4,1,4,NonCued4,MiniBlocks2,,,,576779,9,1,b,-999999,10,718025,b,808,718833,Green,Congruent,b,White,0,,0,8,711012,,0,0,,,,,,,,,,,,,Pictures\white.bmp,6000,2000,Pictures\black.bmp,,,,,,,,,,9,1,9,StimulusPr,Pictures\GreenRight.bmp,NonCuedStim4,Right
POP_2,16048,1,"<?xml version=""1.0""?>\n<Clock xmlns:dt=""urn:schemas-microsoft-com:datatypes""><Description dt:dt=""string"">E-Prime Primary Realtime Clock</Description><StartTime><Timestamp dt:dt=""int"">0</Timestamp><DateUtc dt:dt=""string"">2014-05-27T20:18:59Z</DateUtc></StartTime><FrequencyChanges><FrequencyChange><Frequency dt:dt=""r8"">2793030000</Frequency><Timestamp dt:dt=""r8"">7811181100042</Timestamp><Current dt:dt=""r8"">0</Current><DateUtc dt:dt=""string"">2014-05-27T20:18:59Z</DateUtc></FrequencyChange></FrequencyChanges></Clock>\n",60.034,1,-794392260,0,,-999999,2,20689,t,70326,91015,5/27/2014,13:18:59,8:18:59 PM,1,Session1,SessionsList,,,,,,,,,,1,1,1,4,,,,,,,,4,1,4,NonCued4,MiniBlocks2,,,,576779,10,1,b,-999999,5,727020,b,928,727948,Green,Congruent,b,White,0,,0,7,722023,,0,0,,,,,,,,,,,,,Pictures\white.bmp,4000,4000,Pictures\black.bmp,,,,,,,,,,10,1,10,StimulusPr,Pictures\GreenRight.bmp,NonCuedStim4,Right
POP_2,16048,1,"<?xml version=""1.0""?>\n<Clock xmlns:dt=""urn:schemas-microsoft-com:datatypes""><Description dt:dt=""string"">E-Prime Primary Realtime Clock</Description><StartTime><Timestamp dt:dt=""int"">0</Timestamp><DateUtc dt:dt=""string"">2014-05-27T20:18:59Z</DateUtc></StartTime><FrequencyChanges><FrequencyChange><Frequency dt:dt=""r8"">2793030000</Frequency><Timestamp dt:dt=""r8"">7811181100042</Timestamp><Current dt:dt=""r8"">0</Current><DateUtc dt:dt=""string"">2014-05-27T20:18:59Z</DateUtc></FrequencyChange></FrequencyChanges></Clock>\n",60.034,1,-794392260,0,,-999999,2,20689,t,70326,91015,5/27/2014,13:18:59,8:18:59 PM,2,Session2,SessionsList,0,,-999999,4,758438,t,59948,818386,731968,2,1,2,1,818392,,,,1,1,1,,,,Cued1,MiniBlocks1,,,,,1,1,r,-999999,15,832401,r,673,833074,White,Congruent,r,Green,0,,0,8,827387,,0,0,1,1,1,,,,,,,,,,Pictures\green.bmp,4000,4000,Pictures\left.bmp,,,,,,,,,,,,,StimulusPr,Pictures\black.bmp,CuedStim1,Left
POP_2,16048,1,"<?xml version=""1.0""?>\n<Clock xmlns:dt=""urn:schemas-microsoft-com:datatypes""><Description dt:dt=""string"">E-Prime Primary Realtime Clock</Description><StartTime><Timestamp dt:dt=""int"">0</Timestamp><DateUtc dt:dt=""string"">2014-05-27T20:18:59Z</DateUtc></StartTime><FrequencyChanges><FrequencyChange><Frequency dt:dt=""r8"">2793030000</Frequency><Timestamp dt:dt=""r8"">7811181100042</Timestamp><Current dt:dt=""r8"">0</Current><DateUtc dt:dt=""string"">2014-05-27T20:18:59Z</DateUtc></FrequencyChange></FrequencyChanges></Clock>\n",60.034,1,-794392260,0,,-999999,2,20689,t,70326,91015,5/27/2014,13:18:59,8:18:59 PM,2,Session2,SessionsList,0,,-999999,4,758438,t,59948,818386,731968,2,1,2,1,818392,,,,1,1,1,,,,Cued1,MiniBlocks1,,,,,2,1,b,-999999,9,845395,b,764,846159,White,Congruent,b,Green,0,,0,11,838398,,0,0,2,1,2,,,,,,,,,,Pictures\green.bmp,6000,2000,Pictures\black.bmp,,,,,,,,,,,,,StimulusPr,Pictures\right.bmp,CuedStim1,Right
POP_2,16048,1,"<?xml version=""1.0""?>\n<Clock xmlns:dt=""urn:schemas-microsoft-com:datatypes""><Description dt:dt=""string"">E-Prime Primary Realtime Clock</Description><StartTime><Timestamp dt:dt=""int"">0</Timestamp><DateUtc dt:dt=""string"">2014-05-27T20:18:59Z</DateUtc></StartTime><FrequencyChanges><FrequencyChange><Frequency dt:dt=""r8"">2793030000</Frequency><Timestamp dt:dt=""r8"">7811181100042</Timestamp><Current dt:dt=""r8"">0</Current><DateUtc dt:dt=""string"">2014-05-27T20:18:59Z</DateUtc></FrequencyChange></FrequencyChanges></Clock>\n",60.034,1,-794392260,0,,-999999,2,20689,t,70326,91015,5/27/2014,13:18:59,8:18:59 PM,2,Session2,SessionsList,0,,-999999,4,758438,t,59948,818386,731968,2,1,2,1,818392,,,,1,1,1,,,,Cued1,MiniBlocks1,,,,,3,1,b,-999999,5,853391,b,549,853940,White,Congruent,b,Green,0,,0,7,849393,,0,0,3,1,3,,,,,,,,,,Pictures\green.bmp,3000,2000,Pictures\black.bmp,,,,,,,,,,,,,StimulusPr,Pictures\right.bmp,CuedStim1,Right
POP_2,16048,1,"<?xml version=""1.0""?>\n<Clock xmlns:dt=""urn:schemas-microsoft-com:datatypes""><Description dt:dt=""string"">E-Prime Primary Realtime Clock</Description><StartTime><Timestamp dt:dt=""int"">0</Timestamp><DateUtc dt:dt=""string"">2014-05-27T20:18:59Z</DateUtc></StartTime><FrequencyChanges><FrequencyChange><Frequency dt:dt=""r8"">2793030000</Frequency><Timestamp dt:dt=""r8"">7811181100042</Timestamp><Current dt:dt=""r8"">0</Current><DateUtc dt:dt=""string"">2014-05-27T20:18:59Z</DateUtc></FrequencyChange></FrequencyChanges></Clock>\n",60.034,1,-794392260,0,,-999999,2,20689,t,70326,91015,5/27/2014,13:18:59,8:18:59 PM,2,Session2,SessionsList,0,,-999999,4,758438,t,59948,818386,731968,2,1,2,1,818392,,,,1,1,1,,,,Cued1,MiniBlocks1,,,,,4,1,b,-999999,18,861404,b,1123,862527,White,Incongruent,b,Red,0,,0,9,857389,,0,0,4,1,4,,,,,,,,,,Pictures\red.bmp,3000,16000,Pictures\left.bmp,,,,,,,,,,,,,StimulusPr,Pictures\black.bmp,CuedStim1,Left
POP_2,16048,1,"<?xml version=""1.0""?>\n<Clock xmlns:dt=""urn:schemas-microsoft-com:datatypes""><Description dt:dt=""string"">E-Prime Primary Realtime Clock</Description><StartTime><Timestamp dt:dt=""int"">0</Timestamp><DateUtc dt:dt=""string"">2014-05-27T20:18:59Z</DateUtc></StartTime><FrequencyChanges><FrequencyChange><Frequency dt:dt=""r8"">2793030000</Frequency><Timestamp dt:dt=""r8"">7811181100042</Timestamp><Current dt:dt=""r8"">0</Current><DateUtc dt:dt=""string"">2014-05-27T20:18:59Z</DateUtc></FrequencyChange></FrequencyChanges></Clock>\n",60.034,1,-794392260,0,,-999999,2,20689,t,70326,91015,5/27/2014,13:18:59,8:18:59 PM,2,Session2,SessionsList,0,,-999999,4,758438,t,59948,818386,731968,2,1,2,1,818392,,,,1,1,1,,,,Cued1,MiniBlocks1,,,,,5,1,r,-999999,6,884392,r,1143,885535,White,Congruent,r,Green,0,,0,8,880394,,0,0,5,1,5,,,,,,,,,,Pictures\green.bmp,3000,16000,Pictures\left.bmp,,,,,,,,,,,,,StimulusPr,Pictures\black.bmp,CuedStim1,Left
POP_2,16048,1,"<?xml version=""1.0""?>\n<Clock xmlns:dt=""urn:schemas-microsoft-com:datatypes""><Description dt:dt=""string"">E-Prime Primary Realtime Clock</Description><StartTime><Timestamp dt:dt=""int"">0</Timestamp><DateUtc dt:dt=""string"">2014-05-27T20:18:59Z</DateUtc></StartTime><FrequencyChanges><FrequencyChange><Frequency dt:dt=""r8"">2793030000</Frequency><Timestamp dt:dt=""r8"">7811181100042</Timestamp><Current dt:dt=""r8"">0</Current><DateUtc dt:dt=""string"">2014-05-27T20:18:59Z</DateUtc></FrequencyChange></FrequencyChanges></Clock>\n",60.034,1,-794392260,0,,-999999,2,20689,t,70326,91015,5/27/2014,13:18:59,8:18:59 PM,2,Session2,SessionsList,0,,-999999,4,758438,t,59948,818386,731968,2,1,2,1,818392,,,,1,1,1,,,,Cued1,MiniBlocks1,,,,,6,1,r,-999999,8,913394,r,930,914324,White,Congruent,r,Green,0,,0,12,903399,,0,0,6,1,6,,,,,,,,,,Pictures\green.bmp,9000,10000,Pictures\left.bmp,,,,,,,,,,,,,StimulusPr,Pictures\black.bmp,CuedStim1,Left
POP_2,16048,1,"<?xml version=""1.0""?>\n<Clock xmlns:dt=""urn:schemas-microsoft-com:datatypes""><Description dt:dt=""string"">E-Prime Primary Realtime Clock</Description><StartTime><Timestamp dt:dt=""int"">0</Timestamp><DateUtc dt:dt=""string"">2014-05-27T20:18:59Z</DateUtc></StartTime><FrequencyChanges><FrequencyChange><Frequency dt:dt=""r8"">2793030000</Frequency><Timestamp dt:dt=""r8"">7811181100042</Timestamp><Current dt:dt=""r8"">0</Current><DateUtc dt:dt=""string"">2014-05-27T20:18:59Z</DateUtc></FrequencyChange></FrequencyChanges></Clock>\n",60.034,1,-794392260,0,,-999999,2,20689,t,70326,91015,5/27/2014,13:18:59,8:18:59 PM,2,Session2,SessionsList,0,,-999999,4,758438,t,59948,818386,731968,2,1,2,1,818392,,,,1,1,1,,,,Cued1,MiniBlocks1,,,,,7,1,b,-999999,17,929403,b,985,930388,White,Congruent,b,Green,0,,0,2,925388,,0,0,7,1,7,,,,,,,,,,Pictures\green.bmp,3000,16000,Pictures\black.bmp,,,,,,,,,,,,,StimulusPr,Pictures\right.bmp,CuedStim1,Right
POP_2,16048,1,"<?xml version=""1.0""?>\n<Clock xmlns:dt=""urn:schemas-microsoft-com:datatypes""><Description dt:dt=""string"">E-Prime Primary Realtime Clock</Description><StartTime><Timestamp dt:dt=""int"">0</Timestamp><DateUtc dt:dt=""string"">2014-05-27T20:18:59Z</DateUtc></StartTime><FrequencyChanges><FrequencyChange><Frequency dt:dt=""r8"">2793030000</Frequency><Timestamp dt:dt=""r8"">7811181100042</Timestamp><Current dt:dt=""r8"">0</Current><DateUtc dt:dt=""string"">2014-05-27T20:18:59Z</DateUtc></FrequencyChange></FrequencyChanges></Clock>\n",60.034,1,-794392260,0,,-999999,2,20689,t,70326,91015,5/27/2014,13:18:59,8:18:59 PM,2,Session2,SessionsList,0,,-999999,4,758438,t,59948,818386,731968,2,1,2,1,818392,,,,1,1,1,,,,Cued1,MiniBlocks1,,,,,8,1,r,-999999,5,953391,r,799,954190,White,Incongruent,r,Red,0,,0,16,948394,,0,0,8,1,8,,,,,,,,,,Pictures\red.bmp,4000,2000,Pictures\black.bmp,,,,,,,,,,,,,StimulusPr,Pictures\right.bmp,CuedStim1,Right
POP_2,16048,1,"<?xml version=""1.0""?>\n<Clock xmlns:dt=""urn:schemas-microsoft-com:datatypes""><Description dt:dt=""string"">E-Prime Primary Realtime Clock</Description><StartTime><Timestamp dt:dt=""int"">0</Timestamp><DateUtc dt:dt=""string"">2014-05-27T20:18:59Z</DateUtc></StartTime><FrequencyChanges><FrequencyChange><Frequency dt:dt=""r8"">2793030000</Frequency><Timestamp dt:dt=""r8"">7811181100042</Timestamp><Current dt:dt=""r8"">0</Current><DateUtc dt:dt=""string"">2014-05-27T20:18:59Z</DateUtc></FrequencyChange></FrequencyChanges></Clock>\n",60.034,1,-794392260,0,,-999999,2,20689,t,70326,91015,5/27/2014,13:18:59,8:18:59 PM,2,Session2,SessionsList,0,,-999999,4,758438,t,59948,818386,731968,2,1,2,1,818392,,,,1,1,1,,,,Cued1,MiniBlocks1,,,,,9,1,b,-999999,16,962387,b,495,962882,White,Congruent,b,Green,0,,0,3,957389,,0,0,9,1,9,,,,,,,,,,Pictures\green.bmp,4000,2000,Pictures\black.bmp,,,,,,,,,,,,,StimulusPr,Pictures\right.bmp,CuedStim1,Right
POP_2,16048,1,"<?xml version=""1.0""?>\n<Clock xmlns:dt=""urn:schemas-microsoft-com:datatypes""><Description dt:dt=""string"">E-Prime Primary Realtime Clock</Description><StartTime><Timestamp dt:dt=""int"">0</Timestamp><DateUtc dt:dt=""string"">2014-05-27T20:18:59Z</DateUtc></StartTime><FrequencyChanges><FrequencyChange><Frequency dt:dt=""r8"">2793030000</Frequency><Timestamp dt:dt=""r8"">7811181100042</Timestamp><Current dt:dt=""r8"">0</Current><DateUtc dt:dt=""string"">2014-05-27T20:18:59Z</DateUtc></FrequencyChange></FrequencyChanges></Clock>\n",60.034,1,-794392260,0,,-999999,2,20689,t,70326,91015,5/27/2014,13:18:59,8:18:59 PM,2,Session2,SessionsList,0,,-999999,4,758438,t,59948,818386,731968,2,1,2,1,818392,,,,1,1,1,,,,Cued1,MiniBlocks1,,,,,10,1,r,-999999,13,970399,r,863,971262,White,Congruent,r,Green,0,,0,15,966401,,0,0,10,1,10,,,,,,,,,,Pictures\green.bmp,3000,2000,Pictures\left.bmp,,,,,,,,,,,,,StimulusPr,Pictures\black.bmp,CuedStim1,Left
POP_2,16048,1,"<?xml version=""1.0""?>\n<Clock xmlns:dt=""urn:schemas-microsoft-com:datatypes""><Description dt:dt=""string"">E-Prime Primary Realtime Clock</Description><StartTime><Timestamp dt:dt=""int"">0</Timestamp><DateUtc dt:dt=""string"">2014-05-27T20:18:59Z</DateUtc></StartTime><FrequencyChanges><FrequencyChange><Frequency dt:dt=""r8"">2793030000</Frequency><Timestamp dt:dt=""r8"">7811181100042</Timestamp><Current dt:dt=""r8"">0</Current><DateUtc dt:dt=""string"">2014-05-27T20:18:59Z</DateUtc></FrequencyChange></FrequencyChanges></Clock>\n",60.034,1,-794392260,0,,-999999,2,20689,t,70326,91015,5/27/2014,13:18:59,8:18:59 PM,2,Session2,SessionsList,0,,-999999,4,758438,t,59948,818386,731968,2,1,2,2,,,,,2,1,2,,,,NonCued1,MiniBlocks1,973281,,,,1,1,r,-999999,7,988390,r,1060,989450,Green,Congruent,r,White,0,,0,6,983393,,0,0,,,,,,,,,,,,,Pictures\white.bmp,4000,2000,Pictures\GreenLeft.bmp,1,1,1,,,,,,,,,,StimulusPr,Pictures\black.bmp,NonCuedStim1,Left
POP_2,16048,1,"<?xml version=""1.0""?>\n<Clock xmlns:dt=""urn:schemas-microsoft-com:datatypes""><Description dt:dt=""string"">E-Prime Primary Realtime Clock</Description><StartTime><Timestamp dt:dt=""int"">0</Timestamp><DateUtc dt:dt=""string"">2014-05-27T20:18:59Z</DateUtc></StartTime><FrequencyChanges><FrequencyChange><Frequency dt:dt=""r8"">2793030000</Frequency><Timestamp dt:dt=""r8"">7811181100042</Timestamp><Current dt:dt=""r8"">0</Current><DateUtc dt:dt=""string"">2014-05-27T20:18:59Z</DateUtc></FrequencyChange></FrequencyChanges></Clock>\n",60.034,1,-794392260,0,,-999999,2,20689,t,70326,91015,5/27/2014,13:18:59,8:18:59 PM,2,Session2,SessionsList,0,,-999999,4,758438,t,59948,818386,731968,2,1,2,2,,,,,2,1,2,,,,NonCued1,MiniBlocks1,973281,,,,2,1,b,-999999,15,1000401,b,614,1001015,Green,Congruent,b,White,0,,0,17,993404,,0,0,,,,,,,,,,,,,Pictures\white.bmp,6000,16000,Pictures\black.bmp,2,1,2,,,,,,,,,,StimulusPr,Pictures\GreenRight.bmp,NonCuedStim1,Right
POP_2,16048,1,"<?xml version=""1.0""?>\n<Clock xmlns:dt=""urn:schemas-microsoft-com:datatypes""><Description dt:dt=""string"">E-Prime Primary Realtime Clock</Description><StartTime><Timestamp dt:dt=""int"">0</Timestamp><DateUtc dt:dt=""string"">2014-05-27T20:18:59Z</DateUtc></StartTime><FrequencyChanges><FrequencyChange><Frequency dt:dt=""r8"">2793030000</Frequency><Timestamp dt:dt=""r8"">7811181100042</Timestamp><Current dt:dt=""r8"">0</Current><DateUtc dt:dt=""string"">2014-05-27T20:18:59Z</DateUtc></FrequencyChange></FrequencyChanges></Clock>\n",60.034,1,-794392260,0,,-999999,2,20689,t,70326,91015,5/27/2014,13:18:59,8:18:59 PM,2,Session2,SessionsList,0,,-999999,4,758438,t,59948,818386,731968,2,1,2,2,,,,,2,1,2,,,,NonCued1,MiniBlocks1,973281,,,,3,1,r,-999999,4,1025389,r,1015,1026404,Red,Incongruent,r,White,0,,0,4,1018375,,0,0,,,,,,,,,,,,,Pictures\white.bmp,6000,10000,Pictures\black.bmp,3,1,3,,,,,,,,,,StimulusPr,Pictures\RedRight.bmp,NonCuedStim1,Right
POP_2,16048,1,"<?xml version=""1.0""?>\n<Clock xmlns:dt=""urn:schemas-microsoft-com:datatypes""><Description dt:dt=""string"">E-Prime Primary Realtime Clock</Description><StartTime><Timestamp dt:dt=""int"">0</Timestamp><DateUtc dt:dt=""string"">2014-05-27T20:18:59Z</DateUtc></StartTime><FrequencyChanges><FrequencyChange><Frequency dt:dt=""r8"">2793030000</Frequency><Timestamp dt:dt=""r8"">7811181100042</Timestamp><Current dt:dt=""r8"">0</Current><DateUtc dt:dt=""string"">2014-05-27T20:18:59Z</DateUtc></FrequencyChange></FrequencyChanges></Clock>\n",60.034,1,-794392260,0,,-999999,2,20689,t,70326,91015,5/27/2014,13:18:59,8:18:59 PM,2,Session2,SessionsList,0,,-999999,4,758438,t,59948,818386,731968,2,1,2,2,,,,,2,1,2,,,,NonCued1,MiniBlocks1,973281,,,,4,1,r,-999999,8,1048394,r,1071,1049465,Green,Congruent,r,White,0,,0,13,1038399,,0,0,,,,,,,,,,,,,Pictures\white.bmp,9000,10000,Pictures\GreenLeft.bmp,4,1,4,,,,,,,,,,StimulusPr,Pictures\black.bmp,NonCuedStim1,Left
POP_2,16048,1,"<?xml version=""1.0""?>\n<Clock xmlns:dt=""urn:schemas-microsoft-com:datatypes""><Description dt:dt=""string"">E-Prime Primary Realtime Clock</Description><StartTime><Timestamp dt:dt=""int"">0</Timestamp><DateUtc dt:dt=""string"">2014-05-27T20:18:59Z</DateUtc></StartTime><FrequencyChanges><FrequencyChange><Frequency dt:dt=""r8"">2793030000</Frequency><Timestamp dt:dt=""r8"">7811181100042</Timestamp><Current dt:dt=""r8"">0</Current><DateUtc dt:dt=""string"">2014-05-27T20:18:59Z</DateUtc></FrequencyChange></FrequencyChanges></Clock>\n",60.034,1,-794392260,0,,-999999,2,20689,t,70326,91015,5/27/2014,13:18:59,8:18:59 PM,2,Session2,SessionsList,0,,-999999,4,758438,t,59948,818386,731968,2,1,2,2,,,,,2,1,2,,,,NonCued1,MiniBlocks1,973281,,,,5,1,b,-999999,6,1065385,b,913,1066298,Green,Congruent,b,White,0,,0,18,1061404,,0,0,,,,,,,,,,,,,Pictures\white.bmp,3000,2000,Pictures\black.bmp,5,1,5,,,,,,,,,,StimulusPr,Pictures\GreenRight.bmp,NonCuedStim1,Right
POP_2,16048,1,"<?xml version=""1.0""?>\n<Clock xmlns:dt=""urn:schemas-microsoft-com:datatypes""><Description dt:dt=""string"">E-Prime Primary Realtime Clock</Description><StartTime><Timestamp dt:dt=""int"">0</Timestamp><DateUtc dt:dt=""string"">2014-05-27T20:18:59Z</DateUtc></StartTime><FrequencyChanges><FrequencyChange><Frequency dt:dt=""r8"">2793030000</Frequency><Timestamp dt:dt=""r8"">7811181100042</Timestamp><Current dt:dt=""r8"">0</Current><DateUtc dt:dt=""string"">2014-05-27T20:18:59Z</DateUtc></FrequencyChange></FrequencyChanges></Clock>\n",60.034,1,-794392260,0,,-999999,2,20689,t,70326,91015,5/27/2014,13:18:59,8:18:59 PM,2,Session2,SessionsList,0,,-999999,4,758438,t,59948,818386,731968,2,1,2,2,,,,,2,1,2,,,,NonCued1,MiniBlocks1,973281,,,,6,1,b,-999999,17,1074397,b,843,1075240,Red,Incongruent,b,White,0,,0,13,1069400,,0,0,,,,,,,,,,,,,Pictures\white.bmp,4000,16000,Pictures\RedLeft.bmp,6,1,6,,,,,,,,,,StimulusPr,Pictures\black.bmp,NonCuedStim1,Left
POP_2,16048,1,"<?xml version=""1.0""?>\n<Clock xmlns:dt=""urn:schemas-microsoft-com:datatypes""><Description dt:dt=""string"">E-Prime Primary Realtime Clock</Description><StartTime><Timestamp dt:dt=""int"">0</Timestamp><DateUtc dt:dt=""string"">2014-05-27T20:18:59Z</DateUtc></StartTime><FrequencyChanges><FrequencyChange><Frequency dt:dt=""r8"">2793030000</Frequency><Timestamp dt:dt=""r8"">7811181100042</Timestamp><Current dt:dt=""r8"">0</Current><DateUtc dt:dt=""string"">2014-05-27T20:18:59Z</DateUtc></FrequencyChange></FrequencyChanges></Clock>\n",60.034,1,-794392260,0,,-999999,2,20689,t,70326,91015,5/27/2014,13:18:59,8:18:59 PM,2,Session2,SessionsList,0,,-999999,4,758438,t,59948,818386,731968,2,1,2,2,,,,,2,1,2,,,,NonCued1,MiniBlocks1,973281,,,,7,1,b,-999999,19,1096403,b,860,1097263,Green,Congruent,b,White,0,,0,3,1092389,,0,0,,,,,,,,,,,,,Pictures\white.bmp,3000,4000,Pictures\black.bmp,7,1,7,,,,,,,,,,StimulusPr,Pictures\GreenRight.bmp,NonCuedStim1,Right
POP_2,16048,1,"<?xml version=""1.0""?>\n<Clock xmlns:dt=""urn:schemas-microsoft-com:datatypes""><Description dt:dt=""string"">E-Prime Primary Realtime Clock</Description><StartTime><Timestamp dt:dt=""int"">0</Timestamp><DateUtc dt:dt=""string"">2014-05-27T20:18:59Z</DateUtc></StartTime><FrequencyChanges><FrequencyChange><Frequency dt:dt=""r8"">2793030000</Frequency><Timestamp dt:dt=""r8"">7811181100042</Timestamp><Current dt:dt=""r8"">0</Current><DateUtc dt:dt=""string"">2014-05-27T20:18:59Z</DateUtc></FrequencyChange></FrequencyChanges></Clock>\n",60.034,1,-794392260,0,,-999999,2,20689,t,70326,91015,5/27/2014,13:18:59,8:18:59 PM,2,Session2,SessionsList,0,,-999999,4,758438,t,59948,818386,731968,2,1,2,2,,,,,2,1,2,,,,NonCued1,MiniBlocks1,973281,,,,8,1,b,-999999,18,1106398,b,665,1107063,Green,Congruent,b,White,0,,0,14,1102400,,0,0,,,,,,,,,,,,,Pictures\white.bmp,3000,4000,Pictures\black.bmp,8,1,8,,,,,,,,,,StimulusPr,Pictures\GreenRight.bmp,NonCuedStim1,Right
POP_2,16048,1,"<?xml version=""1.0""?>\n<Clock xmlns:dt=""urn:schemas-microsoft-com:datatypes""><Description dt:dt=""string"">E-Prime Primary Realtime Clock</Description><StartTime><Timestamp dt:dt=""int"">0</Timestamp><DateUtc dt:dt=""string"">2014-05-27T20:18:59Z</DateUtc></StartTime><FrequencyChanges><FrequencyChange><Frequency dt:dt=""r8"">2793030000</Frequency><Timestamp dt:dt=""r8"">7811181100042</Timestamp><Current dt:dt=""r8"">0</Current><DateUtc dt:dt=""string"">2014-05-27T20:18:59Z</DateUtc></FrequencyChange></FrequencyChanges></Clock>\n",60.034,1,-794392260,0,,-999999,2,20689,t,70326,91015,5/27/2014,13:18:59,8:18:59 PM,2,Session2,SessionsList,0,,-999999,4,758438,t,59948,818386,731968,2,1,2,2,,,,,2,1,2,,,,NonCued1,MiniBlocks1,973281,,,,9,1,b,-999999,4,1122390,b,847,1123237,Red,Incongruent,b,White,0,,0,9,1112395,,0,0,,,,,,,,,,,,,Pictures\white.bmp,9000,2000,Pictures\RedLeft.bmp,9,1,9,,,,,,,,,,StimulusPr,Pictures\black.bmp,NonCuedStim1,Left
POP_2,16048,1,"<?xml version=""1.0""?>\n<Clock xmlns:dt=""urn:schemas-microsoft-com:datatypes""><Description dt:dt=""string"">E-Prime Primary Realtime Clock</Description><StartTime><Timestamp dt:dt=""int"">0</Timestamp><DateUtc dt:dt=""string"">2014-05-27T20:18:59Z</DateUtc></StartTime><FrequencyChanges><FrequencyChange><Frequency dt:dt=""r8"">2793030000</Frequency><Timestamp dt:dt=""r8"">7811181100042</Timestamp><Current dt:dt=""r8"">0</Current><DateUtc dt:dt=""string"">2014-05-27T20:18:59Z</DateUtc></FrequencyChange></FrequencyChanges></Clock>\n",60.034,1,-794392260,0,,-999999,2,20689,t,70326,91015,5/27/2014,13:18:59,8:18:59 PM,2,Session2,SessionsList,0,,-999999,4,758438,t,59948,818386,731968,2,1,2,2,,,,,2,1,2,,,,NonCued1,MiniBlocks1,973281,,,,10,1,r,-999999,14,1133385,r,1141,1134526,Green,Congruent,r,White,0,,0,5,1126372,,0,0,,,,,,,,,,,,,Pictures\white.bmp,6000,2000,Pictures\GreenLeft.bmp,10,1,10,,,,,,,,,,StimulusPr,Pictures\black.bmp,NonCuedStim1,Left
POP_2,16048,1,"<?xml version=""1.0""?>\n<Clock xmlns:dt=""urn:schemas-microsoft-com:datatypes""><Description dt:dt=""string"">E-Prime Primary Realtime Clock</Description><StartTime><Timestamp dt:dt=""int"">0</Timestamp><DateUtc dt:dt=""string"">2014-05-27T20:18:59Z</DateUtc></StartTime><FrequencyChanges><FrequencyChange><Frequency dt:dt=""r8"">2793030000</Frequency><Timestamp dt:dt=""r8"">7811181100042</Timestamp><Current dt:dt=""r8"">0</Current><DateUtc dt:dt=""string"">2014-05-27T20:18:59Z</DateUtc></FrequencyChange></FrequencyChanges></Clock>\n",60.034,1,-794392260,0,,-999999,2,20689,t,70326,91015,5/27/2014,13:18:59,8:18:59 PM,2,Session2,SessionsList,0,,-999999,4,758438,t,59948,818386,731968,2,1,2,3,,,,,3,1,3,,,,NonCued2,MiniBlocks1,,1136550,,,1,1,b,-999999,11,1156390,b,862,1157252,Green,Congruent,b,White,0,,0,7,1146378,,0,0,,,,,,,,,,,,,Pictures\white.bmp,9000,10000,Pictures\black.bmp,,,,1,1,1,,,,,,,StimulusPr,Pictures\GreenRight.bmp,NonCuedStim2,Right
POP_2,16048,1,"<?xml version=""1.0""?>\n<Clock xmlns:dt=""urn:schemas-microsoft-com:datatypes""><Description dt:dt=""string"">E-Prime Primary Realtime Clock</Description><StartTime><Timestamp dt:dt=""int"">0</Timestamp><DateUtc dt:dt=""string"">2014-05-27T20:18:59Z</DateUtc></StartTime><FrequencyChanges><FrequencyChange><Frequency dt:dt=""r8"">2793030000</Frequency><Timestamp dt:dt=""r8"">7811181100042</Timestamp><Current dt:dt=""r8"">0</Current><DateUtc dt:dt=""string"">2014-05-27T20:18:59Z</DateUtc></FrequencyChange></FrequencyChanges></Clock>\n",60.034,1,-794392260,0,,-999999,2,20689,t,70326,91015,5/27/2014,13:18:59,8:18:59 PM,2,Session2,SessionsList,0,,-999999,4,758438,t,59948,818386,731968,2,1,2,3,,,,,3,1,3,,,,NonCued2,MiniBlocks1,,1136550,,,2,1,r,-999999,12,1172399,r,1183,1173582,Green,Congruent,r,White,0,,0,17,1168384,,0,0,,,,,,,,,,,,,Pictures\white.bmp,3000,2000,Pictures\GreenLeft.bmp,,,,2,1,2,,,,,,,StimulusPr,Pictures\black.bmp,NonCuedStim2,Left
POP_2,16048,1,"<?xml version=""1.0""?>\n<Clock xmlns:dt=""urn:schemas-microsoft-com:datatypes""><Description dt:dt=""string"">E-Prime Primary Realtime Clock</Description><StartTime><Timestamp dt:dt=""int"">0</Timestamp><DateUtc dt:dt=""string"">2014-05-27T20:18:59Z</DateUtc></StartTime><FrequencyChanges><FrequencyChange><Frequency dt:dt=""r8"">2793030000</Frequency><Timestamp dt:dt=""r8"">7811181100042</Timestamp><Current dt:dt=""r8"">0</Current><DateUtc dt:dt=""string"">2014-05-27T20:18:59Z</DateUtc></FrequencyChange></FrequencyChanges></Clock>\n",60.034,1,-794392260,0,,-999999,2,20689,t,70326,91015,5/27/2014,13:18:59,8:18:59 PM,2,Session2,SessionsList,0,,-999999,4,758438,t,59948,818386,731968,2,1,2,3,,,,,3,1,3,,,,NonCued2,MiniBlocks1,,1136550,,,3,1,r,-999999,8,1181394,r,986,1182380,Red,Incongruent,r,White,0,,0,9,1177396,,0,0,,,,,,,,,,,,,Pictures\white.bmp,3000,2000,Pictures\black.bmp,,,,3,1,3,,,,,,,StimulusPr,Pictures\RedRight.bmp,NonCuedStim2,Right
POP_2,16048,1,"<?xml version=""1.0""?>\n<Clock xmlns:dt=""urn:schemas-microsoft-com:datatypes""><Description dt:dt=""string"">E-Prime Primary Realtime Clock</Description><StartTime><Timestamp dt:dt=""int"">0</Timestamp><DateUtc dt:dt=""string"">2014-05-27T20:18:59Z</DateUtc></StartTime><FrequencyChanges><FrequencyChange><Frequency dt:dt=""r8"">2793030000</Frequency><Timestamp dt:dt=""r8"">7811181100042</Timestamp><Current dt:dt=""r8"">0</Current><DateUtc dt:dt=""string"">2014-05-27T20:18:59Z</DateUtc></FrequencyChange></FrequencyChanges></Clock>\n",60.034,1,-794392260,0,,-999999,2,20689,t,70326,91015,5/27/2014,13:18:59,8:18:59 PM,2,Session2,SessionsList,0,,-999999,4,758438,t,59948,818386,731968,2,1,2,3,,,,,3,1,3,,,,NonCued2,MiniBlocks1,,1136550,,,4,1,r,-999999,13,1191389,r,1091,1192480,Green,Congruent,r,White,0,,0,6,1186392,,0,0,,,,,,,,,,,,,Pictures\white.bmp,4000,16000,Pictures\GreenLeft.bmp,,,,4,1,4,,,,,,,StimulusPr,Pictures\black.bmp,NonCuedStim2,Left
POP_2,16048,1,"<?xml version=""1.0""?>\n<Clock xmlns:dt=""urn:schemas-microsoft-com:datatypes""><Description dt:dt=""string"">E-Prime Primary Realtime Clock</Description><StartTime><Timestamp dt:dt=""int"">0</Timestamp><DateUtc dt:dt=""string"">2014-05-27T20:18:59Z</DateUtc></StartTime><FrequencyChanges><FrequencyChange><Frequency dt:dt=""r8"">2793030000</Frequency><Timestamp dt:dt=""r8"">7811181100042</Timestamp><Current dt:dt=""r8"">0</Current><DateUtc dt:dt=""string"">2014-05-27T20:18:59Z</DateUtc></FrequencyChange></FrequencyChanges></Clock>\n",60.034,1,-794392260,0,,-999999,2,20689,t,70326,91015,5/27/2014,13:18:59,8:18:59 PM,2,Session2,SessionsList,0,,-999999,4,758438,t,59948,818386,731968,2,1,2,3,,,,,3,1,3,,,,NonCued2,MiniBlocks1,,1136550,,,5,1,r,-999999,7,1217393,r,876,1218269,Green,Congruent,r,White,0,,0,10,1210396,,0,0,,,,,,,,,,,,,Pictures\white.bmp,6000,4000,Pictures\GreenLeft.bmp,,,,5,1,5,,,,,,,StimulusPr,Pictures\black.bmp,NonCuedStim2,Left
POP_2,16048,1,"<?xml version=""1.0""?>\n<Clock xmlns:dt=""urn:schemas-microsoft-com:datatypes""><Description dt:dt=""string"">E-Prime Primary Realtime Clock</Description><StartTime><Timestamp dt:dt=""int"">0</Timestamp><DateUtc dt:dt=""string"">2014-05-27T20:18:59Z</DateUtc></StartTime><FrequencyChanges><FrequencyChange><Frequency dt:dt=""r8"">2793030000</Frequency><Timestamp dt:dt=""r8"">7811181100042</Timestamp><Current dt:dt=""r8"">0</Current><DateUtc dt:dt=""string"">2014-05-27T20:18:59Z</DateUtc></FrequencyChange></FrequencyChanges></Clock>\n",60.034,1,-794392260,0,,-999999,2,20689,t,70326,91015,5/27/2014,13:18:59,8:18:59 PM,2,Session2,SessionsList,0,,-999999,4,758438,t,59948,818386,731968,2,1,2,3,,,,,3,1,3,,,,NonCued2,MiniBlocks1,,1136550,,,6,1,b,-999999,18,1227405,b,983,1228388,Red,Incongruent,b,White,0,,0,2,1223373,,0,0,,,,,,,,,,,,,Pictures\white.bmp,3000,4000,Pictures\RedLeft.bmp,,,,6,1,6,,,,,,,StimulusPr,Pictures\black.bmp,NonCuedStim2,Left
POP_2,16048,1,"<?xml version=""1.0""?>\n<Clock xmlns:dt=""urn:schemas-microsoft-com:datatypes""><Description dt:dt=""string"">E-Prime Primary Realtime Clock</Description><StartTime><Timestamp dt:dt=""int"">0</Timestamp><DateUtc dt:dt=""string"">2014-05-27T20:18:59Z</DateUtc></StartTime><FrequencyChanges><FrequencyChange><Frequency dt:dt=""r8"">2793030000</Frequency><Timestamp dt:dt=""r8"">7811181100042</Timestamp><Current dt:dt=""r8"">0</Current><DateUtc dt:dt=""string"">2014-05-27T20:18:59Z</DateUtc></FrequencyChange></FrequencyChanges></Clock>\n",60.034,1,-794392260,0,,-999999,2,20689,t,70326,91015,5/27/2014,13:18:59,8:18:59 PM,2,Session2,SessionsList,0,,-999999,4,758438,t,59948,818386,731968,2,1,2,3,,,,,3,1,3,,,,NonCued2,MiniBlocks1,,1136550,,,7,1,b,-999999,12,1239399,b,1502,1240901,Green,Congruent,b,White,0,,0,15,1234401,,0,0,,,,,,,,,,,,,Pictures\white.bmp,4000,16000,Pictures\black.bmp,,,,7,1,7,,,,,,,StimulusPr,Pictures\GreenRight.bmp,NonCuedStim2,Right
POP_2,16048,1,"<?xml version=""1.0""?>\n<Clock xmlns:dt=""urn:schemas-microsoft-com:datatypes""><Description dt:dt=""string"">E-Prime Primary Realtime Clock</Description><StartTime><Timestamp dt:dt=""int"">0</Timestamp><DateUtc dt:dt=""string"">2014-05-27T20:18:59Z</DateUtc></StartTime><FrequencyChanges><FrequencyChange><Frequency dt:dt=""r8"">2793030000</Frequency><Timestamp dt:dt=""r8"">7811181100042</Timestamp><Current dt:dt=""r8"">0</Current><DateUtc dt:dt=""string"">2014-05-27T20:18:59Z</DateUtc></FrequencyChange></FrequencyChanges></Clock>\n",60.034,1,-794392260,0,,-999999,2,20689,t,70326,91015,5/27/2014,13:18:59,8:18:59 PM,2,Session2,SessionsList,0,,-999999,4,758438,t,59948,818386,731968,2,1,2,3,,,,,3,1,3,,,,NonCued2,MiniBlocks1,,1136550,,,8,1,r,-999999,5,1268384,r,905,1269289,Green,Congruent,r,White,0,,0,2,1258389,,0,0,,,,,,,,,,,,,Pictures\white.bmp,9000,2000,Pictures\GreenLeft.bmp,,,,8,1,8,,,,,,,StimulusPr,Pictures\black.bmp,NonCuedStim2,Left
POP_2,16048,1,"<?xml version=""1.0""?>\n<Clock xmlns:dt=""urn:schemas-microsoft-com:datatypes""><Description dt:dt=""string"">E-Prime Primary Realtime Clock</Description><StartTime><Timestamp dt:dt=""int"">0</Timestamp><DateUtc dt:dt=""string"">2014-05-27T20:18:59Z</DateUtc></StartTime><FrequencyChanges><FrequencyChange><Frequency dt:dt=""r8"">2793030000</Frequency><Timestamp dt:dt=""r8"">7811181100042</Timestamp><Current dt:dt=""r8"">0</Current><DateUtc dt:dt=""string"">2014-05-27T20:18:59Z</DateUtc></FrequencyChange></FrequencyChanges></Clock>\n",60.034,1,-794392260,0,,-999999,2,20689,t,70326,91015,5/27/2014,13:18:59,8:18:59 PM,2,Session2,SessionsList,0,,-999999,4,758438,t,59948,818386,731968,2,1,2,3,,,,,3,1,3,,,,NonCued2,MiniBlocks1,,1136550,,,9,1,b,-999999,11,1276397,b,747,1277144,Green,Congruent,b,White,0,,0,13,1272399,,0,0,,,,,,,,,,,,,Pictures\white.bmp,3000,10000,Pictures\black.bmp,,,,9,1,9,,,,,,,StimulusPr,Pictures\GreenRight.bmp,NonCuedStim2,Right
POP_2,16048,1,"<?xml version=""1.0""?>\n<Clock xmlns:dt=""urn:schemas-microsoft-com:datatypes""><Description dt:dt=""string"">E-Prime Primary Realtime Clock</Description><StartTime><Timestamp dt:dt=""int"">0</Timestamp><DateUtc dt:dt=""string"">2014-05-27T20:18:59Z</DateUtc></StartTime><FrequencyChanges><FrequencyChange><Frequency dt:dt=""r8"">2793030000</Frequency><Timestamp dt:dt=""r8"">7811181100042</Timestamp><Current dt:dt=""r8"">0</Current><DateUtc dt:dt=""string"">2014-05-27T20:18:59Z</DateUtc></FrequencyChange></FrequencyChanges></Clock>\n",60.034,1,-794392260,0,,-999999,2,20689,t,70326,91015,5/27/2014,13:18:59,8:18:59 PM,2,Session2,SessionsList,0,,-999999,4,758438,t,59948,818386,731968,2,1,2,3,,,,,3,1,3,,,,NonCued2,MiniBlocks1,,1136550,,,10,1,b,-999999,9,1292389,b,1129,1293518,Green,Congruent,b,White,0,,0,5,1288391,,0,0,,,,,,,,,,,,,Pictures\white.bmp,3000,2000,Pictures\black.bmp,,,,10,1,10,,,,,,,StimulusPr,Pictures\GreenRight.bmp,NonCuedStim2,Right
POP_2,16048,1,"<?xml version=""1.0""?>\n<Clock xmlns:dt=""urn:schemas-microsoft-com:datatypes""><Description dt:dt=""string"">E-Prime Primary Realtime Clock</Description><StartTime><Timestamp dt:dt=""int"">0</Timestamp><DateUtc dt:dt=""string"">2014-05-27T20:18:59Z</DateUtc></StartTime><FrequencyChanges><FrequencyChange><Frequency dt:dt=""r8"">2793030000</Frequency><Timestamp dt:dt=""r8"">7811181100042</Timestamp><Current dt:dt=""r8"">0</Current><DateUtc dt:dt=""string"">2014-05-27T20:18:59Z</DateUtc></FrequencyChange></FrequencyChanges></Clock>\n",60.034,1,-794392260,0,,-999999,2,20689,t,70326,91015,5/27/2014,13:18:59,8:18:59 PM,2,Session2,SessionsList,0,,-999999,4,758438,t,59948,818386,731968,2,1,2,4,,1295537,,,4,1,4,,,,Cued2,MiniBlocks1,,,,,1,1,b,-999999,10,1312396,b,639,1313035,White,Congruent,b,Green,0,,0,12,1305399,,0,0,,,,1,1,1,,,,,,,Pictures\green.bmp,6000,4000,Pictures\black.bmp,,,,,,,,,,,,,StimulusPr,Pictures\right.bmp,CuedStim2,Right
POP_2,16048,1,"<?xml version=""1.0""?>\n<Clock xmlns:dt=""urn:schemas-microsoft-com:datatypes""><Description dt:dt=""string"">E-Prime Primary Realtime Clock</Description><StartTime><Timestamp dt:dt=""int"">0</Timestamp><DateUtc dt:dt=""string"">2014-05-27T20:18:59Z</DateUtc></StartTime><FrequencyChanges><FrequencyChange><Frequency dt:dt=""r8"">2793030000</Frequency><Timestamp dt:dt=""r8"">7811181100042</Timestamp><Current dt:dt=""r8"">0</Current><DateUtc dt:dt=""string"">2014-05-27T20:18:59Z</DateUtc></FrequencyChange></FrequencyChanges></Clock>\n",60.034,1,-794392260,0,,-999999,2,20689,t,70326,91015,5/27/2014,13:18:59,8:18:59 PM,2,Session2,SessionsList,0,,-999999,4,758438,t,59948,818386,731968,2,1,2,4,,1295537,,,4,1,4,,,,Cued2,MiniBlocks1,,,,,2,1,b,-999999,18,1328404,b,450,1328854,White,Congruent,b,Green,0,,0,6,1318376,,0,0,,,,2,1,2,,,,,,,Pictures\green.bmp,9000,10000,Pictures\black.bmp,,,,,,,,,,,,,StimulusPr,Pictures\right.bmp,CuedStim2,Right
POP_2,16048,1,"<?xml version=""1.0""?>\n<Clock xmlns:dt=""urn:schemas-microsoft-com:datatypes""><Description dt:dt=""string"">E-Prime Primary Realtime Clock</Description><StartTime><Timestamp dt:dt=""int"">0</Timestamp><DateUtc dt:dt=""string"">2014-05-27T20:18:59Z</DateUtc></StartTime><FrequencyChanges><FrequencyChange><Frequency dt:dt=""r8"">2793030000</Frequency><Timestamp dt:dt=""r8"">7811181100042</Timestamp><Current dt:dt=""r8"">0</Current><DateUtc dt:dt=""string"">2014-05-27T20:18:59Z</DateUtc></FrequencyChange></FrequencyChanges></Clock>\n",60.034,1,-794392260,0,,-999999,2,20689,t,70326,91015,5/27/2014,13:18:59,8:18:59 PM,2,Session2,SessionsList,0,,-999999,4,758438,t,59948,818386,731968,2,1,2,4,,1295537,,,4,1,4,,,,Cued2,MiniBlocks1,,,,,3,1,r,-999999,9,1344396,r,698,1345094,White,Incongruent,r,Red,0,,0,11,1340398,,0,0,,,,3,1,3,,,,,,,Pictures\red.bmp,3000,2000,Pictures\black.bmp,,,,,,,,,,,,,StimulusPr,Pictures\right.bmp,CuedStim2,Right
POP_2,16048,1,"<?xml version=""1.0""?>\n<Clock xmlns:dt=""urn:schemas-microsoft-com:datatypes""><Description dt:dt=""string"">E-Prime Primary Realtime Clock</Description><StartTime><Timestamp dt:dt=""int"">0</Timestamp><DateUtc dt:dt=""string"">2014-05-27T20:18:59Z</DateUtc></StartTime><FrequencyChanges><FrequencyChange><Frequency dt:dt=""r8"">2793030000</Frequency><Timestamp dt:dt=""r8"">7811181100042</Timestamp><Current dt:dt=""r8"">0</Current><DateUtc dt:dt=""string"">2014-05-27T20:18:59Z</DateUtc></FrequencyChange></FrequencyChanges></Clock>\n",60.034,1,-794392260,0,,-999999,2,20689,t,70326,91015,5/27/2014,13:18:59,8:18:59 PM,2,Session2,SessionsList,0,,-999999,4,758438,t,59948,818386,731968,2,1,2,4,,1295537,,,4,1,4,,,,Cued2,MiniBlocks1,,,,,4,0,r,-999999,19,1355391,b,919,1356310,White,Congruent,r,Green,0,,0,7,1348394,,0,0,,,,4,1,4,,,,,,,Pictures\green.bmp,6000,16000,Pictures\left.bmp,,,,,,,,,,,,,StimulusPr,Pictures\black.bmp,CuedStim2,Left
POP_2,16048,1,"<?xml version=""1.0""?>\n<Clock xmlns:dt=""urn:schemas-microsoft-com:datatypes""><Description dt:dt=""string"">E-Prime Primary Realtime Clock</Description><StartTime><Timestamp dt:dt=""int"">0</Timestamp><DateUtc dt:dt=""string"">2014-05-27T20:18:59Z</DateUtc></StartTime><FrequencyChanges><FrequencyChange><Frequency dt:dt=""r8"">2793030000</Frequency><Timestamp dt:dt=""r8"">7811181100042</Timestamp><Current dt:dt=""r8"">0</Current><DateUtc dt:dt=""string"">2014-05-27T20:18:59Z</DateUtc></FrequencyChange></FrequencyChanges></Clock>\n",60.034,1,-794392260,0,,-999999,2,20689,t,70326,91015,5/27/2014,13:18:59,8:18:59 PM,2,Session2,SessionsList,0,,-999999,4,758438,t,59948,818386,731968,2,1,2,4,,1295537,,,4,1,4,,,,Cued2,MiniBlocks1,,,,,5,1,b,-999999,9,1377396,b,948,1378344,White,Congruent,b,Green,0,,0,15,1373382,,0,0,,,,5,1,5,,,,,,,Pictures\green.bmp,3000,2000,Pictures\black.bmp,,,,,,,,,,,,,StimulusPr,Pictures\right.bmp,CuedStim2,Right
POP_2,16048,1,"<?xml version=""1.0""?>\n<Clock xmlns:dt=""urn:schemas-microsoft-com:datatypes""><Description dt:dt=""string"">E-Prime Primary Realtime Clock</Description><StartTime><Timestamp dt:dt=""int"">0</Timestamp><DateUtc dt:dt=""string"">2014-05-27T20:18:59Z</DateUtc></StartTime><FrequencyChanges><FrequencyChange><Frequency dt:dt=""r8"">2793030000</Frequency><Timestamp dt:dt=""r8"">7811181100042</Timestamp><Current dt:dt=""r8"">0</Current><DateUtc dt:dt=""string"">2014-05-27T20:18:59Z</DateUtc></FrequencyChange></FrequencyChanges></Clock>\n",60.034,1,-794392260,0,,-999999,2,20689,t,70326,91015,5/27/2014,13:18:59,8:18:59 PM,2,Session2,SessionsList,0,,-999999,4,758438,t,59948,818386,731968,2,1,2,4,,1295537,,,4,1,4,,,,Cued2,MiniBlocks1,,,,,6,0,r,-999999,7,1385376,b,823,1386199,White,Congruent,r,Green,0,,0,15,1381394,,0,0,,,,6,1,6,,,,,,,Pictures\green.bmp,3000,2000,Pictures\left.bmp,,,,,,,,,,,,,StimulusPr,Pictures\black.bmp,CuedStim2,Left
POP_2,16048,1,"<?xml version=""1.0""?>\n<Clock xmlns:dt=""urn:schemas-microsoft-com:datatypes""><Description dt:dt=""string"">E-Prime Primary Realtime Clock</Description><StartTime><Timestamp dt:dt=""int"">0</Timestamp><DateUtc dt:dt=""string"">2014-05-27T20:18:59Z</DateUtc></StartTime><FrequencyChanges><FrequencyChange><Frequency dt:dt=""r8"">2793030000</Frequency><Timestamp dt:dt=""r8"">7811181100042</Timestamp><Current dt:dt=""r8"">0</Current><DateUtc dt:dt=""string"">2014-05-27T20:18:59Z</DateUtc></FrequencyChange></FrequencyChanges></Clock>\n",60.034,1,-794392260,0,,-999999,2,20689,t,70326,91015,5/27/2014,13:18:59,8:18:59 PM,2,Session2,SessionsList,0,,-999999,4,758438,t,59948,818386,731968,2,1,2,4,,1295537,,,4,1,4,,,,Cued2,MiniBlocks1,,,,,7,1,b,-999999,18,1396404,b,1563,1397967,White,Incongruent,b,Red,0,,0,3,1389390,,0,0,,,,7,1,7,,,,,,,Pictures\red.bmp,6000,4000,Pictures\left.bmp,,,,,,,,,,,,,StimulusPr,Pictures\black.bmp,CuedStim2,Left
POP_2,16048,1,"<?xml version=""1.0""?>\n<Clock xmlns:dt=""urn:schemas-microsoft-com:datatypes""><Description dt:dt=""string"">E-Prime Primary Realtime Clock</Description><StartTime><Timestamp dt:dt=""int"">0</Timestamp><DateUtc dt:dt=""string"">2014-05-27T20:18:59Z</DateUtc></StartTime><FrequencyChanges><FrequencyChange><Frequency dt:dt=""r8"">2793030000</Frequency><Timestamp dt:dt=""r8"">7811181100042</Timestamp><Current dt:dt=""r8"">0</Current><DateUtc dt:dt=""string"">2014-05-27T20:18:59Z</DateUtc></FrequencyChange></FrequencyChanges></Clock>\n",60.034,1,-794392260,0,,-999999,2,20689,t,70326,91015,5/27/2014,13:18:59,8:18:59 PM,2,Session2,SessionsList,0,,-999999,4,758438,t,59948,818386,731968,2,1,2,4,,1295537,,,4,1,4,,,,Cued2,MiniBlocks1,,,,,8,1,b,-999999,11,1408381,b,756,1409137,White,Congruent,b,Green,0,,0,14,1403400,,0,0,,,,8,1,8,,,,,,,Pictures\green.bmp,4000,4000,Pictures\black.bmp,,,,,,,,,,,,,StimulusPr,Pictures\right.bmp,CuedStim2,Right
POP_2,16048,1,"<?xml version=""1.0""?>\n<Clock xmlns:dt=""urn:schemas-microsoft-com:datatypes""><Description dt:dt=""string"">E-Prime Primary Realtime Clock</Description><StartTime><Timestamp dt:dt=""int"">0</Timestamp><DateUtc dt:dt=""string"">2014-05-27T20:18:59Z</DateUtc></StartTime><FrequencyChanges><FrequencyChange><Frequency dt:dt=""r8"">2793030000</Frequency><Timestamp dt:dt=""r8"">7811181100042</Timestamp><Current dt:dt=""r8"">0</Current><DateUtc dt:dt=""string"">2014-05-27T20:18:59Z</DateUtc></FrequencyChange></FrequencyChanges></Clock>\n",60.034,1,-794392260,0,,-999999,2,20689,t,70326,91015,5/27/2014,13:18:59,8:18:59 PM,2,Session2,SessionsList,0,,-999999,4,758438,t,59948,818386,731968,2,1,2,4,,1295537,,,4,1,4,,,,Cued2,MiniBlocks1,,,,,9,1,b,-999999,3,1424390,b,1106,1425496,White,Incongruent,b,Red,0,,0,15,1414395,,0,0,,,,9,1,9,,,,,,,Pictures\red.bmp,9000,10000,Pictures\left.bmp,,,,,,,,,,,,,StimulusPr,Pictures\black.bmp,CuedStim2,Left
POP_2,16048,1,"<?xml version=""1.0""?>\n<Clock xmlns:dt=""urn:schemas-microsoft-com:datatypes""><Description dt:dt=""string"">E-Prime Primary Realtime Clock</Description><StartTime><Timestamp dt:dt=""int"">0</Timestamp><DateUtc dt:dt=""string"">2014-05-27T20:18:59Z</DateUtc></StartTime><FrequencyChanges><FrequencyChange><Frequency dt:dt=""r8"">2793030000</Frequency><Timestamp dt:dt=""r8"">7811181100042</Timestamp><Current dt:dt=""r8"">0</Current><DateUtc dt:dt=""string"">2014-05-27T20:18:59Z</DateUtc></FrequencyChange></FrequencyChanges></Clock>\n",60.034,1,-794392260,0,,-999999,2,20689,t,70326,91015,5/27/2014,13:18:59,8:18:59 PM,2,Session2,SessionsList,0,,-999999,4,758438,t,59948,818386,731968,2,1,2,4,,1295537,,,4,1,4,,,,Cued2,MiniBlocks1,,,,,10,1,r,-999999,15,1447395,r,781,1448176,White,Congruent,r,Green,0,,0,15,1437383,,0,0,,,,10,1,10,,,,,,,Pictures\green.bmp,9000,10000,Pictures\left.bmp,,,,,,,,,,,,,StimulusPr,Pictures\black.bmp,CuedStim2,Left
