ExperimentName,Subject,Session,Clock.Information,Display.RefreshRate,Group,RandomSeed,Session1Onset.ACC,Session1Onset.CRESP,Session1Onset.DurationError,Session1Onset.OnsetDelay,Session1Onset.OnsetTime,Session1Onset.RESP,Session1Onset.RT,Session1Onset.RTTime,SessionDate,SessionTime,SessionTimeUtc,Block,Procedure[Block],Running[Block],Session2Onset.ACC,Session2Onset.CRESP,Session2Onset.DurationError,Session2Onset.OnsetDelay,Session2Onset.OnsetTime,Session2Onset.RESP,Session2Onset.RT,Session2Onset.RTTime,SessionBreak.OnsetTime,SessionsList,SessionsList.Cycle,SessionsList.Sample,Trial,CuedPrompt1.OnsetTime,CuedPrompt2.OnsetTime,CuedPrompt3.OnsetTime,CuedPrompt4.OnsetTime,MiniBlocks1,MiniBlocks1.Cycle,MiniBlocks1.Sample,MiniBlocks2,MiniBlocks2.Cycle,MiniBlocks2.Sample,Procedure[Trial],Running[Trial],UncuedPrompt1.OnsetTime,UncuedPrompt2.OnsetTime,UncuedPrompt3.OnsetTime,UncuedPrompt4.OnsetTime,SubTrial,Arrow1.ACC,Arrow1.CRESP,Arrow1.DurationError,Arrow1.OnsetDelay,Arrow1.OnsetTime,Arrow1.RESP,Arrow1.RT,Arrow1.RTTime,ArrowColor,Congruence,CorrectResp,Cue,Cue.ACC,Cue.CRESP,Cue.DurationError,Cue.OnsetDelay,Cue.OnsetTime,Cue.RESP,Cue.RT,Cue.RTTime,CuedStim1,CuedStim1.Cycle,CuedStim1.Sample,CuedStim2,CuedStim2.Cycle,CuedStim2.Sample,CuedStim3,CuedStim3.Cycle,CuedStim3.Sample,CuedStim4,CuedStim4.Cycle,CuedStim4.Sample,CueImage,JitterCue,JitterTrial,LeftImage,NonCuedStim1,NonCuedStim1.Cycle,NonCuedStim1.Sample,NonCuedStim2,NonCuedStim2.Cycle,NonCuedStim2.Sample,NonCuedStim3,NonCuedStim3.Cycle,NonCuedStim3.Sample,NonCuedStim4,NonCuedStim4.Cycle,NonCuedStim4.Sample,Procedure[SubTrial],RightImage,Running[SubTrial],Stimulus
POP_2,27037,1,"<?xml version=""1.0""?>\n<Clock xmlns:dt=""urn:schemas-microsoft-com:datatypes""><Description dt:dt=""string"">E-Prime Primary Realtime Clock</Description><StartTime><Timestamp dt:dt=""int"">0</Timestamp><DateUtc dt:dt=""string"">2014-06-04T22:38:42Z</DateUtc></StartTime><FrequencyChanges><FrequencyChange><Frequency dt:dt=""r8"">2793040000</Frequency><Timestamp dt:dt=""r8"">332655052347417</Timestamp><Current dt:dt=""r8"">0</Current><DateUtc dt:dt=""string"">2014-06-04T22:38:42Z</DateUtc></FrequencyChange></FrequencyChanges></Clock>\n",60.03,1,1806072101,0,,-999999,8,101408,t,54601,156009,6/4/2014,15:38:42,,1,Session1,SessionsList,,,,,,,,,,1,1,1,1,,,,,,,,1,1,1,NonCued3,MiniBlocks2,,,156014,,1,1,b,-999999,9,176021,b,495,176516,Green,Congruent,b,White,0,,0,14,166026,,0,0,,,,,,,,,,,,,Pictures\white.bmp,9000,10000,Pictures\black.bmp,,,,,,,1,1,1,,,,StimulusPr,Pictures\GreenRight.bmp,NonCuedStim3,Right
POP_2,27037,1,"<?xml version=""1.0""?>\n<Clock xmlns:dt=""urn:schemas-microsoft-com:datatypes""><Description dt:dt=""string"">E-Prime Primary Realtime Clock</Description><StartTime><Timestamp dt:dt=""int"">0</Timestamp><DateUtc dt:dt=""string"">2014-06-04T22:38:42Z</DateUtc></StartTime><FrequencyChanges><FrequencyChange><Frequency dt:dt=""r8"">2793040000</Frequency><Timestamp dt:dt=""r8"">332655052347417</Timestamp><Current dt:dt=""r8"">0</Current><DateUtc dt:dt=""string"">2014-06-04T22:38:42Z</DateUtc></FrequencyChange></FrequencyChanges></Clock>\n",60.03,1,1806072101,0,,-999999,8,101408,t,54601,156009,6/4/2014,15:38:42,,1,Session1,SessionsList,,,,,,,,,,1,1,1,1,,,,,,,,1,1,1,NonCued3,MiniBlocks2,,,156014,,2,1,r,-999999,14,198026,r,573,198599,Red,Incongruent,r,White,0,,0,3,188015,,0,0,,,,,,,,,,,,,Pictures\white.bmp,9000,10000,Pictures\black.bmp,,,,,,,2,1,2,,,,StimulusPr,Pictures\RedRight.bmp,NonCuedStim3,Right
POP_2,27037,1,"<?xml version=""1.0""?>\n<Clock xmlns:dt=""urn:schemas-microsoft-com:datatypes""><Description dt:dt=""string"">E-Prime Primary Realtime Clock</Description><StartTime><Timestamp dt:dt=""int"">0</Timestamp><DateUtc dt:dt=""string"">2014-06-04T22:38:42Z</DateUtc></StartTime><FrequencyChanges><FrequencyChange><Frequency dt:dt=""r8"">2793040000</Frequency><Timestamp dt:dt=""r8"">332655052347417</Timestamp><Current dt:dt=""r8"">0</Current><DateUtc dt:dt=""string"">2014-06-04T22:38:42Z</DateUtc></FrequencyChange></FrequencyChanges></Clock>\n",60.03,1,1806072101,0,,-999999,8,101408,t,54601,156009,6/4/2014,15:38:42,,1,Session1,SessionsList,,,,,,,,,,1,1,1,1,,,,,,,,1,1,1,NonCued3,MiniBlocks2,,,156014,,3,1,r,-999999,6,215018,r,533,215551,Green,Congruent,r,White,0,,0,8,210020,,0,0,,,,,,,,,,,,,Pictures\white.bmp,4000,4000,Pictures\GreenLeft.bmp,,,,,,,3,1,3,,,,StimulusPr,Pictures\black.bmp,NonCuedStim3,Left
POP_2,27037,1,"<?xml version=""1.0""?>\n<Clock xmlns:dt=""urn:schemas-microsoft-com:datatypes""><Description dt:dt=""string"">E-Prime Primary Realtime Clock</Description><StartTime><Timestamp dt:dt=""int"">0</Timestamp><DateUtc dt:dt=""string"">2014-06-04T22:38:42Z</DateUtc></StartTime><FrequencyChanges><FrequencyChange><Frequency dt:dt=""r8"">2793040000</Frequency><Timestamp dt:dt=""r8"">332655052347417</Timestamp><Current dt:dt=""r8"">0</Current><DateUtc dt:dt=""string"">2014-06-04T22:38:42Z</DateUtc></FrequencyChange></FrequencyChanges></Clock>\n",60.03,1,1806072101,0,,-999999,8,101408,t,54601,156009,6/4/2014,15:38:42,,1,Session1,SessionsList,,,,,,,,,,1,1,1,1,,,,,,,,1,1,1,NonCued3,MiniBlocks2,,,156014,,4,1,b,-999999,16,228028,b,512,228540,Red,Incongruent,b,White,0,,0,3,221015,,0,0,,,,,,,,,,,,,Pictures\white.bmp,6000,4000,Pictures\RedLeft.bmp,,,,,,,4,1,4,,,,StimulusPr,Pictures\black.bmp,NonCuedStim3,Left
POP_2,27037,1,"<?xml version=""1.0""?>\n<Clock xmlns:dt=""urn:schemas-microsoft-com:datatypes""><Description dt:dt=""string"">E-Prime Primary Realtime Clock</Description><StartTime><Timestamp dt:dt=""int"">0</Timestamp><DateUtc dt:dt=""string"">2014-06-04T22:38:42Z</DateUtc></StartTime><FrequencyChanges><FrequencyChange><Frequency dt:dt=""r8"">2793040000</Frequency><Timestamp dt:dt=""r8"">332655052347417</Timestamp><Current dt:dt=""r8"">0</Current><DateUtc dt:dt=""string"">2014-06-04T22:38:42Z</DateUtc></FrequencyChange></FrequencyChanges></Clock>\n",60.03,1,1806072101,0,,-999999,8,101408,t,54601,156009,6/4/2014,15:38:42,,1,Session1,SessionsList,,,,,,,,,,1,1,1,1,,,,,,,,1,1,1,NonCued3,MiniBlocks2,,,156014,,5,1,b,-999999,11,238023,b,400,238423,Green,Congruent,b,White,0,,0,14,234025,,0,0,,,,,,,,,,,,,Pictures\white.bmp,3000,2000,Pictures\black.bmp,,,,,,,5,1,5,,,,StimulusPr,Pictures\GreenRight.bmp,NonCuedStim3,Right
POP_2,27037,1,"<?xml version=""1.0""?>\n<Clock xmlns:dt=""urn:schemas-microsoft-com:datatypes""><Description dt:dt=""string"">E-Prime Primary Realtime Clock</Description><StartTime><Timestamp dt:dt=""int"">0</Timestamp><DateUtc dt:dt=""string"">2014-06-04T22:38:42Z</DateUtc></StartTime><FrequencyChanges><FrequencyChange><Frequency dt:dt=""r8"">2793040000</Frequency><Timestamp dt:dt=""r8"">332655052347417</Timestamp><Current dt:dt=""r8"">0</Current><DateUtc dt:dt=""string"">2014-06-04T22:38:42Z</DateUtc></FrequencyChange></FrequencyChanges></Clock>\n",60.03,1,1806072101,0,,-999999,8,101408,t,54601,156009,6/4/2014,15:38:42,,1,Session1,SessionsList,,,,,,,,,,1,1,1,1,,,,,,,,1,1,1,NonCued3,MiniBlocks2,,,156014,,6,1,r,-999999,7,246019,r,458,246477,Green,Congruent,r,White,0,,0,13,242021,,0,0,,,,,,,,,,,,,Pictures\white.bmp,3000,2000,Pictures\GreenLeft.bmp,,,,,,,6,1,6,,,,StimulusPr,Pictures\black.bmp,NonCuedStim3,Left
POP_2,27037,1,"<?xml version=""1.0""?>\n<Clock xmlns:dt=""urn:schemas-microsoft-com:datatypes""><Description dt:dt=""string"">E-Prime Primary Realtime Clock</Description><StartTime><Timestamp dt:dt=""int"">0</Timestamp><DateUtc dt:dt=""string"">2014-06-04T22:38:42Z</DateUtc></StartTime><FrequencyChanges><FrequencyChange><Frequency dt:dt=""r8"">2793040000</Frequency><Timestamp dt:dt=""r8"">332655052347417</Timestamp><Current dt:dt=""r8"">0</Current><DateUtc dt:dt=""string"">2014-06-04T22:38:42Z</DateUtc></FrequencyChange></FrequencyChanges></Clock>\n",60.03,1,1806072101,0,,-999999,8,101408,t,54601,156009,6/4/2014,15:38:42,,1,Session1,SessionsList,,,,,,,,,,1,1,1,1,,,,,,,,1,1,1,NonCued3,MiniBlocks2,,,156014,,7,0,b,-999999,18,257030,r,459,257489,Green,Congruent,b,White,0,,0,5,250017,,0,0,,,,,,,,,,,,,Pictures\white.bmp,6000,16000,Pictures\black.bmp,,,,,,,7,1,7,,,,StimulusPr,Pictures\GreenRight.bmp,NonCuedStim3,Right
POP_2,27037,1,"<?xml version=""1.0""?>\n<Clock xmlns:dt=""urn:schemas-microsoft-com:datatypes""><Description dt:dt=""string"">E-Prime Primary Realtime Clock</Description><StartTime><Timestamp dt:dt=""int"">0</Timestamp><DateUtc dt:dt=""string"">2014-06-04T22:38:42Z</DateUtc></StartTime><FrequencyChanges><FrequencyChange><Frequency dt:dt=""r8"">2793040000</Frequency><Timestamp dt:dt=""r8"">332655052347417</Timestamp><Current dt:dt=""r8"">0</Current><DateUtc dt:dt=""string"">2014-06-04T22:38:42Z</DateUtc></FrequencyChange></FrequencyChanges></Clock>\n",60.03,1,1806072101,0,,-999999,8,101408,t,54601,156009,6/4/2014,15:38:42,,1,Session1,SessionsList,,,,,,,,,,1,1,1,1,,,,,,,,1,1,1,NonCued3,MiniBlocks2,,,156014,,8,1,r,-999999,7,279019,r,603,279622,Red,Incongruent,r,White,0,,0,9,275021,,0,0,,,,,,,,,,,,,Pictures\white.bmp,3000,2000,Pictures\black.bmp,,,,,,,8,1,8,,,,StimulusPr,Pictures\RedRight.bmp,NonCuedStim3,Right
POP_2,27037,1,"<?xml version=""1.0""?>\n<Clock xmlns:dt=""urn:schemas-microsoft-com:datatypes""><Description dt:dt=""string"">E-Prime Primary Realtime Clock</Description><StartTime><Timestamp dt:dt=""int"">0</Timestamp><DateUtc dt:dt=""string"">2014-06-04T22:38:42Z</DateUtc></StartTime><FrequencyChanges><FrequencyChange><Frequency dt:dt=""r8"">2793040000</Frequency><Timestamp dt:dt=""r8"">332655052347417</Timestamp><Current dt:dt=""r8"">0</Current><DateUtc dt:dt=""string"">2014-06-04T22:38:42Z</DateUtc></FrequencyChange></FrequencyChanges></Clock>\n",60.03,1,1806072101,0,,-999999,8,101408,t,54601,156009,6/4/2014,15:38:42,,1,Session1,SessionsList,,,,,,,,,,1,1,1,1,,,,,,,,1,1,1,NonCued3,MiniBlocks2,,,156014,,9,1,r,-999999,16,293028,r,414,293442,Green,Congruent,r,White,0,,0,5,283017,,0,0,,,,,,,,,,,,,Pictures\white.bmp,9000,10000,Pictures\GreenLeft.bmp,,,,,,,9,1,9,,,,StimulusPr,Pictures\black.bmp,NonCuedStim3,Left
POP_2,27037,1,"<?xml version=""1.0""?>\n<Clock xmlns:dt=""urn:schemas-microsoft-com:datatypes""><Description dt:dt=""string"">E-Prime Primary Realtime Clock</Description><StartTime><Timestamp dt:dt=""int"">0</Timestamp><DateUtc dt:dt=""string"">2014-06-04T22:38:42Z</DateUtc></StartTime><FrequencyChanges><FrequencyChange><Frequency dt:dt=""r8"">2793040000</Frequency><Timestamp dt:dt=""r8"">332655052347417</Timestamp><Current dt:dt=""r8"">0</Current><DateUtc dt:dt=""string"">2014-06-04T22:38:42Z</DateUtc></FrequencyChange></FrequencyChanges></Clock>\n",60.03,1,1806072101,0,,-999999,8,101408,t,54601,156009,6/4/2014,15:38:42,,1,Session1,SessionsList,,,,,,,,,,1,1,1,1,,,,,,,,1,1,1,NonCued3,MiniBlocks2,,,156014,,10,1,r,-999999,7,312019,r,383,312402,Green,Congruent,r,White,0,,0,10,305022,,0,0,,,,,,,,,,,,,Pictures\white.bmp,6000,4000,Pictures\GreenLeft.bmp,,,,,,,10,1,10,,,,StimulusPr,Pictures\black.bmp,NonCuedStim3,Left
POP_2,27037,1,"<?xml version=""1.0""?>\n<Clock xmlns:dt=""urn:schemas-microsoft-com:datatypes""><Description dt:dt=""string"">E-Prime Primary Realtime Clock</Description><StartTime><Timestamp dt:dt=""int"">0</Timestamp><DateUtc dt:dt=""string"">2014-06-04T22:38:42Z</DateUtc></StartTime><FrequencyChanges><FrequencyChange><Frequency dt:dt=""r8"">2793040000</Frequency><Timestamp dt:dt=""r8"">332655052347417</Timestamp><Current dt:dt=""r8"">0</Current><DateUtc dt:dt=""string"">2014-06-04T22:38:42Z</DateUtc></FrequencyChange></FrequencyChanges></Clock>\n",60.03,1,1806072101,0,,-999999,8,101408,t,54601,156009,6/4/2014,15:38:42,,1,Session1,SessionsList,,,,,,,,,,1,1,1,2,,,316433,,,,,2,1,2,Cued3,MiniBlocks2,,,,,1,1,b,-999999,16,330027,b,395,330422,White,Congruent,b,Green,0,,0,8,326012,,0,0,,,,,,,1,1,1,,,,Pictures\green.bmp,3000,2000,Pictures\black.bmp,,,,,,,,,,,,,StimulusPr,Pictures\right.bmp,CuedStim3,Right
POP_2,27037,1,"<?xml version=""1.0""?>\n<Clock xmlns:dt=""urn:schemas-microsoft-com:datatypes""><Description dt:dt=""string"">E-Prime Primary Realtime Clock</Description><StartTime><Timestamp dt:dt=""int"">0</Timestamp><DateUtc dt:dt=""string"">2014-06-04T22:38:42Z</DateUtc></StartTime><FrequencyChanges><FrequencyChange><Frequency dt:dt=""r8"">2793040000</Frequency><Timestamp dt:dt=""r8"">332655052347417</Timestamp><Current dt:dt=""r8"">0</Current><DateUtc dt:dt=""string"">2014-06-04T22:38:42Z</DateUtc></FrequencyChange></FrequencyChanges></Clock>\n",60.03,1,1806072101,0,,-999999,8,101408,t,54601,156009,6/4/2014,15:38:42,,1,Session1,SessionsList,,,,,,,,,,1,1,1,2,,,316433,,,,,2,1,2,Cued3,MiniBlocks2,,,,,2,1,b,-999999,5,338006,b,302,338308,White,Congruent,b,Green,0,,0,7,334008,,0,0,,,,,,,2,1,2,,,,Pictures\green.bmp,3000,10000,Pictures\black.bmp,,,,,,,,,,,,,StimulusPr,Pictures\right.bmp,CuedStim3,Right
POP_2,27037,1,"<?xml version=""1.0""?>\n<Clock xmlns:dt=""urn:schemas-microsoft-com:datatypes""><Description dt:dt=""string"">E-Prime Primary Realtime Clock</Description><StartTime><Timestamp dt:dt=""int"">0</Timestamp><DateUtc dt:dt=""string"">2014-06-04T22:38:42Z</DateUtc></StartTime><FrequencyChanges><FrequencyChange><Frequency dt:dt=""r8"">2793040000</Frequency><Timestamp dt:dt=""r8"">332655052347417</Timestamp><Current dt:dt=""r8"">0</Current><DateUtc dt:dt=""string"">2014-06-04T22:38:42Z</DateUtc></FrequencyChange></FrequencyChanges></Clock>\n",60.03,1,1806072101,0,,-999999,8,101408,t,54601,156009,6/4/2014,15:38:42,,1,Session1,SessionsList,,,,,,,,,,1,1,1,2,,,316433,,,,,2,1,2,Cued3,MiniBlocks2,,,,,3,1,r,-999999,17,360028,r,318,360346,White,Congruent,r,Green,0,,0,6,350017,,0,0,,,,,,,3,1,3,,,,Pictures\green.bmp,9000,2000,Pictures\left.bmp,,,,,,,,,,,,,StimulusPr,Pictures\black.bmp,CuedStim3,Left
POP_2,27037,1,"<?xml version=""1.0""?>\n<Clock xmlns:dt=""urn:schemas-microsoft-com:datatypes""><Description dt:dt=""string"">E-Prime Primary Realtime Clock</Description><StartTime><Timestamp dt:dt=""int"">0</Timestamp><DateUtc dt:dt=""string"">2014-06-04T22:38:42Z</DateUtc></StartTime><FrequencyChanges><FrequencyChange><Frequency dt:dt=""r8"">2793040000</Frequency><Timestamp dt:dt=""r8"">332655052347417</Timestamp><Current dt:dt=""r8"">0</Current><DateUtc dt:dt=""string"">2014-06-04T22:38:42Z</DateUtc></FrequencyChange></FrequencyChanges></Clock>\n",60.03,1,1806072101,0,,-999999,8,101408,t,54601,156009,6/4/2014,15:38:42,,1,Session1,SessionsList,,,,,,,,,,1,1,1,2,,,316433,,,,,2,1,2,Cued3,MiniBlocks2,,,,,4,1,r,-999999,11,369007,r,316,369323,White,Congruent,r,Green,0,,0,4,364009,,0,0,,,,,,,4,1,4,,,,Pictures\green.bmp,4000,16000,Pictures\left.bmp,,,,,,,,,,,,,StimulusPr,Pictures\black.bmp,CuedStim3,Left
POP_2,27037,1,"<?xml version=""1.0""?>\n<Clock xmlns:dt=""urn:schemas-microsoft-com:datatypes""><Description dt:dt=""string"">E-Prime Primary Realtime Clock</Description><StartTime><Timestamp dt:dt=""int"">0</Timestamp><DateUtc dt:dt=""string"">2014-06-04T22:38:42Z</DateUtc></StartTime><FrequencyChanges><FrequencyChange><Frequency dt:dt=""r8"">2793040000</Frequency><Timestamp dt:dt=""r8"">332655052347417</Timestamp><Current dt:dt=""r8"">0</Current><DateUtc dt:dt=""string"">2014-06-04T22:38:42Z</DateUtc></FrequencyChange></FrequencyChanges></Clock>\n",60.03,1,1806072101,0,,-999999,8,101408,t,54601,156009,6/4/2014,15:38:42,,1,Session1,SessionsList,,,,,,,,,,1,1,1,2,,,316433,,,,,2,1,2,Cued3,MiniBlocks2,,,,,5,1,r,-999999,13,391013,r,366,391379,White,Incongruent,r,Red,0,,0,4,387015,,0,0,,,,,,,5,1,5,,,,Pictures\red.bmp,3000,4000,Pictures\black.bmp,,,,,,,,,,,,,StimulusPr,Pictures\right.bmp,CuedStim3,Right
POP_2,27037,1,"<?xml version=""1.0""?>\n<Clock xmlns:dt=""urn:schemas-microsoft-com:datatypes""><Description dt:dt=""string"">E-Prime Primary Realtime Clock</Description><StartTime><Timestamp dt:dt=""int"">0</Timestamp><DateUtc dt:dt=""string"">2014-06-04T22:38:42Z</DateUtc></StartTime><FrequencyChanges><FrequencyChange><Frequency dt:dt=""r8"">2793040000</Frequency><Timestamp dt:dt=""r8"">332655052347417</Timestamp><Current dt:dt=""r8"">0</Current><DateUtc dt:dt=""string"">2014-06-04T22:38:42Z</DateUtc></FrequencyChange></FrequencyChanges></Clock>\n",60.03,1,1806072101,0,,-999999,8,101408,t,54601,156009,6/4/2014,15:38:42,,1,Session1,SessionsList,,,,,,,,,,1,1,1,2,,,316433,,,,,2,1,2,Cued3,MiniBlocks2,,,,,6,1,b,-999999,12,404023,b,321,404344,White,Congruent,b,Green,0,,0,15,397026,,0,0,,,,,,,6,1,6,,,,Pictures\green.bmp,6000,4000,Pictures\black.bmp,,,,,,,,,,,,,StimulusPr,Pictures\right.bmp,CuedStim3,Right
POP_2,27037,1,"<?xml version=""1.0""?>\n<Clock xmlns:dt=""urn:schemas-microsoft-com:datatypes""><Description dt:dt=""string"">E-Prime Primary Realtime Clock</Description><StartTime><Timestamp dt:dt=""int"">0</Timestamp><DateUtc dt:dt=""string"">2014-06-04T22:38:42Z</DateUtc></StartTime><FrequencyChanges><FrequencyChange><Frequency dt:dt=""r8"">2793040000</Frequency><Timestamp dt:dt=""r8"">332655052347417</Timestamp><Current dt:dt=""r8"">0</Current><DateUtc dt:dt=""string"">2014-06-04T22:38:42Z</DateUtc></FrequencyChange></FrequencyChanges></Clock>\n",60.03,1,1806072101,0,,-999999,8,101408,t,54601,156009,6/4/2014,15:38:42,,1,Session1,SessionsList,,,,,,,,,,1,1,1,2,,,316433,,,,,2,1,2,Cued3,MiniBlocks2,,,,,7,1,r,-999999,6,415017,r,256,415273,White,Congruent,r,Green,0,,0,9,410020,,0,0,,,,,,,7,1,7,,,,Pictures\green.bmp,4000,16000,Pictures\left.bmp,,,,,,,,,,,,,StimulusPr,Pictures\black.bmp,CuedStim3,Left
POP_2,27037,1,"<?xml version=""1.0""?>\n<Clock xmlns:dt=""urn:schemas-microsoft-com:datatypes""><Description dt:dt=""string"">E-Prime Primary Realtime Clock</Description><StartTime><Timestamp dt:dt=""int"">0</Timestamp><DateUtc dt:dt=""string"">2014-06-04T22:38:42Z</DateUtc></StartTime><FrequencyChanges><FrequencyChange><Frequency dt:dt=""r8"">2793040000</Frequency><Timestamp dt:dt=""r8"">332655052347417</Timestamp><Current dt:dt=""r8"">0</Current><DateUtc dt:dt=""string"">2014-06-04T22:38:42Z</DateUtc></FrequencyChange></FrequencyChanges></Clock>\n",60.03,1,1806072101,0,,-999999,8,101408,t,54601,156009,6/4/2014,15:38:42,,1,Session1,SessionsList,,,,,,,,,,1,1,1,2,,,316433,,,,,2,1,2,Cued3,MiniBlocks2,,,,,8,0,b,-999999,12,437023,r,353,437376,White,Incongruent,b,Red,0,,0,13,433008,,0,0,,,,,,,8,1,8,,,,Pictures\red.bmp,3000,2000,Pictures\left.bmp,,,,,,,,,,,,,StimulusPr,Pictures\black.bmp,CuedStim3,Left
POP_2,27037,1,"<?xml version=""1.0""?>\n<Clock xmlns:dt=""urn:schemas-microsoft-com:datatypes""><Description dt:dt=""string"">E-Prime Primary Realtime Clock</Description><StartTime><Timestamp dt:dt=""int"">0</Timestamp><DateUtc dt:dt=""string"">2014-06-04T22:38:42Z</DateUtc></StartTime><FrequencyChanges><FrequencyChange><Frequency dt:dt=""r8"">2793040000</Frequency><Timestamp dt:dt=""r8"">332655052347417</Timestamp><Current dt:dt=""r8"">0</Current><DateUtc dt:dt=""string"">2014-06-04T22:38:42Z</DateUtc></FrequencyChange></FrequencyChanges></Clock>\n",60.03,1,1806072101,0,,-999999,8,101408,t,54601,156009,6/4/2014,15:38:42,,1,Session1,SessionsList,,,,,,,,,,1,1,1,2,,,316433,,,,,2,1,2,Cued3,MiniBlocks2,,,,,9,1,r,-999999,14,445019,r,355,445374,White,Congruent,r,Green,0,,0,14,441021,,0,0,,,,,,,9,1,9,,,,Pictures\green.bmp,3000,2000,Pictures\left.bmp,,,,,,,,,,,,,StimulusPr,Pictures\black.bmp,CuedStim3,Left
POP_2,27037,1,"<?xml version=""1.0""?>\n<Clock xmlns:dt=""urn:schemas-microsoft-com:datatypes""><Description dt:dt=""string"">E-Prime Primary Realtime Clock</Description><StartTime><Timestamp dt:dt=""int"">0</Timestamp><DateUtc dt:dt=""string"">2014-06-04T22:38:42Z</DateUtc></StartTime><FrequencyChanges><FrequencyChange><Frequency dt:dt=""r8"">2793040000</Frequency><Timestamp dt:dt=""r8"">332655052347417</Timestamp><Current dt:dt=""r8"">0</Current><DateUtc dt:dt=""string"">2014-06-04T22:38:42Z</DateUtc></FrequencyChange></FrequencyChanges></Clock>\n",60.03,1,1806072101,0,,-999999,8,101408,t,54601,156009,6/4/2014,15:38:42,,1,Session1,SessionsList,,,,,,,,,,1,1,1,2,,,316433,,,,,2,1,2,Cued3,MiniBlocks2,,,,,10,1,b,-999999,17,459028,b,332,459360,White,Congruent,b,Green,0,,0,6,449017,,0,0,,,,,,,10,1,10,,,,Pictures\green.bmp,9000,10000,Pictures\black.bmp,,,,,,,,,,,,,StimulusPr,Pictures\right.bmp,CuedStim3,Right
POP_2,27037,1,"<?xml version=""1.0""?>\n<Clock xmlns:dt=""urn:schemas-microsoft-com:datatypes""><Description dt:dt=""string"">E-Prime Primary Realtime Clock</Description><StartTime><Timestamp dt:dt=""int"">0</Timestamp><DateUtc dt:dt=""string"">2014-06-04T22:38:42Z</DateUtc></StartTime><FrequencyChanges><FrequencyChange><Frequency dt:dt=""r8"">2793040000</Frequency><Timestamp dt:dt=""r8"">332655052347417</Timestamp><Current dt:dt=""r8"">0</Current><DateUtc dt:dt=""string"">2014-06-04T22:38:42Z</DateUtc></FrequencyChange></FrequencyChanges></Clock>\n",60.03,1,1806072101,0,,-999999,8,101408,t,54601,156009,6/4/2014,15:38:42,,1,Session1,SessionsList,,,,,,,,,,1,1,1,3,,,,469373,,,,3,1,3,Cued4,MiniBlocks2,,,,,1,1,b,-999999,4,486015,b,322,486337,White,Congruent,b,Green,0,,0,7,479018,,0,0,,,,,,,,,,1,1,1,Pictures\green.bmp,6000,2000,Pictures\black.bmp,,,,,,,,,,,,,StimulusPr,Pictures\right.bmp,CuedStim4,Right
POP_2,27037,1,"<?xml version=""1.0""?>\n<Clock xmlns:dt=""urn:schemas-microsoft-com:datatypes""><Description dt:dt=""string"">E-Prime Primary Realtime Clock</Description><StartTime><Timestamp dt:dt=""int"">0</Timestamp><DateUtc dt:dt=""string"">2014-06-04T22:38:42Z</DateUtc></StartTime><FrequencyChanges><FrequencyChange><Frequency dt:dt=""r8"">2793040000</Frequency><Timestamp dt:dt=""r8"">332655052347417</Timestamp><Current dt:dt=""r8"">0</Current><DateUtc dt:dt=""string"">2014-06-04T22:38:42Z</DateUtc></FrequencyChange></FrequencyChanges></Clock>\n",60.03,1,1806072101,0,,-999999,8,101408,t,54601,156009,6/4/2014,15:38:42,,1,Session1,SessionsList,,,,,,,,,,1,1,1,3,,,,469373,,,,3,1,3,Cued4,MiniBlocks2,,,,,2,1,r,-999999,13,500024,r,396,500420,White,Incongruent,r,Red,0,,0,2,490013,,0,0,,,,,,,,,,2,1,2,Pictures\red.bmp,9000,2000,Pictures\black.bmp,,,,,,,,,,,,,StimulusPr,Pictures\right.bmp,CuedStim4,Right
POP_2,27037,1,"<?xml version=""1.0""?>\n<Clock xmlns:dt=""urn:schemas-microsoft-com:datatypes""><Description dt:dt=""string"">E-Prime Primary Realtime Clock</Description><StartTime><Timestamp dt:dt=""int"">0</Timestamp><DateUtc dt:dt=""string"">2014-06-04T22:38:42Z</DateUtc></StartTime><FrequencyChanges><FrequencyChange><Frequency dt:dt=""r8"">2793040000</Frequency><Timestamp dt:dt=""r8"">332655052347417</Timestamp><Current dt:dt=""r8"">0</Current><DateUtc dt:dt=""string"">2014-06-04T22:38:42Z</DateUtc></FrequencyChange></FrequencyChanges></Clock>\n",60.03,1,1806072101,0,,-999999,8,101408,t,54601,156009,6/4/2014,15:38:42,,1,Session1,SessionsList,,,,,,,,,,1,1,1,3,,,,469373,,,,3,1,3,Cued4,MiniBlocks2,,,,,3,1,b,-999999,9,508020,b,295,508315,White,Congruent,b,Green,0,,0,5,504006,,0,0,,,,,,,,,,3,1,3,Pictures\green.bmp,3000,4000,Pictures\black.bmp,,,,,,,,,,,,,StimulusPr,Pictures\right.bmp,CuedStim4,Right
POP_2,27037,1,"<?xml version=""1.0""?>\n<Clock xmlns:dt=""urn:schemas-microsoft-com:datatypes""><Description dt:dt=""string"">E-Prime Primary Realtime Clock</Description><StartTime><Timestamp dt:dt=""int"">0</Timestamp><DateUtc dt:dt=""string"">2014-06-04T22:38:42Z</DateUtc></StartTime><FrequencyChanges><FrequencyChange><Frequency dt:dt=""r8"">2793040000</Frequency><Timestamp dt:dt=""r8"">332655052347417</Timestamp><Current dt:dt=""r8"">0</Current><DateUtc dt:dt=""string"">2014-06-04T22:38:42Z</DateUtc></FrequencyChange></FrequencyChanges></Clock>\n",60.03,1,1806072101,0,,-999999,8,101408,t,54601,156009,6/4/2014,15:38:42,,1,Session1,SessionsList,,,,,,,,,,1,1,1,3,,,,469373,,,,3,1,3,Cued4,MiniBlocks2,,,,,4,1,r,-999999,4,518015,r,291,518306,White,Congruent,r,Green,0,,0,6,514017,,0,0,,,,,,,,,,4,1,4,Pictures\green.bmp,3000,4000,Pictures\left.bmp,,,,,,,,,,,,,StimulusPr,Pictures\black.bmp,CuedStim4,Left
POP_2,27037,1,"<?xml version=""1.0""?>\n<Clock xmlns:dt=""urn:schemas-microsoft-com:datatypes""><Description dt:dt=""string"">E-Prime Primary Realtime Clock</Description><StartTime><Timestamp dt:dt=""int"">0</Timestamp><DateUtc dt:dt=""string"">2014-06-04T22:38:42Z</DateUtc></StartTime><FrequencyChanges><FrequencyChange><Frequency dt:dt=""r8"">2793040000</Frequency><Timestamp dt:dt=""r8"">332655052347417</Timestamp><Current dt:dt=""r8"">0</Current><DateUtc dt:dt=""string"">2014-06-04T22:38:42Z</DateUtc></FrequencyChange></FrequencyChanges></Clock>\n",60.03,1,1806072101,0,,-999999,8,101408,t,54601,156009,6/4/2014,15:38:42,,1,Session1,SessionsList,,,,,,,,,,1,1,1,3,,,,469373,,,,3,1,3,Cued4,MiniBlocks2,,,,,5,1,b,-999999,16,529027,b,330,529357,White,Incongruent,b,Red,0,,0,2,524013,,0,0,,,,,,,,,,5,1,5,Pictures\red.bmp,4000,16000,Pictures\left.bmp,,,,,,,,,,,,,StimulusPr,Pictures\black.bmp,CuedStim4,Left
POP_2,27037,1,"<?xml version=""1.0""?>\n<Clock xmlns:dt=""urn:schemas-microsoft-com:datatypes""><Description dt:dt=""string"">E-Prime Primary Realtime Clock</Description><StartTime><Timestamp dt:dt=""int"">0</Timestamp><DateUtc dt:dt=""string"">2014-06-04T22:38:42Z</DateUtc></StartTime><FrequencyChanges><FrequencyChange><Frequency dt:dt=""r8"">2793040000</Frequency><Timestamp dt:dt=""r8"">332655052347417</Timestamp><Current dt:dt=""r8"">0</Current><DateUtc dt:dt=""string"">2014-06-04T22:38:42Z</DateUtc></FrequencyChange></FrequencyChanges></Clock>\n",60.03,1,1806072101,0,,-999999,8,101408,t,54601,156009,6/4/2014,15:38:42,,1,Session1,SessionsList,,,,,,,,,,1,1,1,3,,,,469373,,,,3,1,3,Cued4,MiniBlocks2,,,,,6,1,b,-999999,4,551015,b,335,551350,White,Congruent,b,Green,0,,0,7,547018,,0,0,,,,,,,,,,6,1,6,Pictures\green.bmp,3000,2000,Pictures\black.bmp,,,,,,,,,,,,,StimulusPr,Pictures\right.bmp,CuedStim4,Right
POP_2,27037,1,"<?xml version=""1.0""?>\n<Clock xmlns:dt=""urn:schemas-microsoft-com:datatypes""><Description dt:dt=""string"">E-Prime Primary Realtime Clock</Description><StartTime><Timestamp dt:dt=""int"">0</Timestamp><DateUtc dt:dt=""string"">2014-06-04T22:38:42Z</DateUtc></StartTime><FrequencyChanges><FrequencyChange><Frequency dt:dt=""r8"">2793040000</Frequency><Timestamp dt:dt=""r8"">332655052347417</Timestamp><Current dt:dt=""r8"">0</Current><DateUtc dt:dt=""string"">2014-06-04T22:38:42Z</DateUtc></FrequencyChange></FrequencyChanges></Clock>\n",60.03,1,1806072101,0,,-999999,8,101408,t,54601,156009,6/4/2014,15:38:42,,1,Session1,SessionsList,,,,,,,,,,1,1,1,3,,,,469373,,,,3,1,3,Cued4,MiniBlocks2,,,,,7,1,b,-999999,15,565025,b,314,565339,White,Congruent,b,Green,0,,0,2,555013,,0,0,,,,,,,,,,7,1,7,Pictures\green.bmp,9000,10000,Pictures\black.bmp,,,,,,,,,,,,,StimulusPr,Pictures\right.bmp,CuedStim4,Right
POP_2,27037,1,"<?xml version=""1.0""?>\n<Clock xmlns:dt=""urn:schemas-microsoft-com:datatypes""><Description dt:dt=""string"">E-Prime Primary Realtime Clock</Description><StartTime><Timestamp dt:dt=""int"">0</Timestamp><DateUtc dt:dt=""string"">2014-06-04T22:38:42Z</DateUtc></StartTime><FrequencyChanges><FrequencyChange><Frequency dt:dt=""r8"">2793040000</Frequency><Timestamp dt:dt=""r8"">332655052347417</Timestamp><Current dt:dt=""r8"">0</Current><DateUtc dt:dt=""string"">2014-06-04T22:38:42Z</DateUtc></FrequencyChange></FrequencyChanges></Clock>\n",60.03,1,1806072101,0,,-999999,8,101408,t,54601,156009,6/4/2014,15:38:42,,1,Session1,SessionsList,,,,,,,,,,1,1,1,3,,,,469373,,,,3,1,3,Cued4,MiniBlocks2,,,,,8,1,b,-999999,6,584016,b,535,584551,White,Incongruent,b,Red,0,,0,9,577019,,0,0,,,,,,,,,,8,1,8,Pictures\red.bmp,6000,10000,Pictures\left.bmp,,,,,,,,,,,,,StimulusPr,Pictures\black.bmp,CuedStim4,Left
POP_2,27037,1,"<?xml version=""1.0""?>\n<Clock xmlns:dt=""urn:schemas-microsoft-com:datatypes""><Description dt:dt=""string"">E-Prime Primary Realtime Clock</Description><StartTime><Timestamp dt:dt=""int"">0</Timestamp><DateUtc dt:dt=""string"">2014-06-04T22:38:42Z</DateUtc></StartTime><FrequencyChanges><FrequencyChange><Frequency dt:dt=""r8"">2793040000</Frequency><Timestamp dt:dt=""r8"">332655052347417</Timestamp><Current dt:dt=""r8"">0</Current><DateUtc dt:dt=""string"">2014-06-04T22:38:42Z</DateUtc></FrequencyChange></FrequencyChanges></Clock>\n",60.03,1,1806072101,0,,-999999,8,101408,t,54601,156009,6/4/2014,15:38:42,,1,Session1,SessionsList,,,,,,,,,,1,1,1,3,,,,469373,,,,3,1,3,Cued4,MiniBlocks2,,,,,9,1,r,-999999,14,603023,r,359,603382,White,Congruent,r,Green,0,,0,16,596026,,0,0,,,,,,,,,,9,1,9,Pictures\green.bmp,6000,16000,Pictures\left.bmp,,,,,,,,,,,,,StimulusPr,Pictures\black.bmp,CuedStim4,Left
POP_2,27037,1,"<?xml version=""1.0""?>\n<Clock xmlns:dt=""urn:schemas-microsoft-com:datatypes""><Description dt:dt=""string"">E-Prime Primary Realtime Clock</Description><StartTime><Timestamp dt:dt=""int"">0</Timestamp><DateUtc dt:dt=""string"">2014-06-04T22:38:42Z</DateUtc></StartTime><FrequencyChanges><FrequencyChange><Frequency dt:dt=""r8"">2793040000</Frequency><Timestamp dt:dt=""r8"">332655052347417</Timestamp><Current dt:dt=""r8"">0</Current><DateUtc dt:dt=""string"">2014-06-04T22:38:42Z</DateUtc></FrequencyChange></FrequencyChanges></Clock>\n",60.03,1,1806072101,0,,-999999,8,101408,t,54601,156009,6/4/2014,15:38:42,,1,Session1,SessionsList,,,,,,,,,,1,1,1,3,,,,469373,,,,3,1,3,Cued4,MiniBlocks2,,,,,10,1,r,-999999,18,626028,r,545,626573,White,Congruent,r,Green,0,,0,4,621014,,0,0,,,,,,,,,,10,1,10,Pictures\green.bmp,4000,2000,Pictures\left.bmp,,,,,,,,,,,,,StimulusPr,Pictures\black.bmp,CuedStim4,Left
POP_2,27037,1,"<?xml version=""1.0""?>\n<Clock xmlns:dt=""urn:schemas-microsoft-com:datatypes""><Description dt:dt=""string"">E-Prime Primary Realtime Clock</Description><StartTime><Timestamp dt:dt=""int"">0</Timestamp><DateUtc dt:dt=""string"">2014-06-04T22:38:42Z</DateUtc></StartTime><FrequencyChanges><FrequencyChange><Frequency dt:dt=""r8"">2793040000</Frequency><Timestamp dt:dt=""r8"">332655052347417</Timestamp><Current dt:dt=""r8"">0</Current><DateUtc dt:dt=""string"">2014-06-04T22:38:42Z</DateUtc></FrequencyChange></FrequencyChanges></Clock>\n",60.03,1,1806072101,0,,-999999,8,101408,t,54601,156009,6/4/2014,15:38:42,,1,Session1,SessionsList,,,,,,,,,,1,1,1,4,,,,,,,,4,1,4,NonCued4,MiniBlocks2,,,,628593,1,1,r,-999999,13,643019,r,332,643351,Green,Congruent,r,White,0,,0,14,639021,,0,0,,,,,,,,,,,,,Pictures\white.bmp,3000,2000,Pictures\GreenLeft.bmp,,,,,,,,,,1,1,1,StimulusPr,Pictures\black.bmp,NonCuedStim4,Left
POP_2,27037,1,"<?xml version=""1.0""?>\n<Clock xmlns:dt=""urn:schemas-microsoft-com:datatypes""><Description dt:dt=""string"">E-Prime Primary Realtime Clock</Description><StartTime><Timestamp dt:dt=""int"">0</Timestamp><DateUtc dt:dt=""string"">2014-06-04T22:38:42Z</DateUtc></StartTime><FrequencyChanges><FrequencyChange><Frequency dt:dt=""r8"">2793040000</Frequency><Timestamp dt:dt=""r8"">332655052347417</Timestamp><Current dt:dt=""r8"">0</Current><DateUtc dt:dt=""string"">2014-06-04T22:38:42Z</DateUtc></FrequencyChange></FrequencyChanges></Clock>\n",60.03,1,1806072101,0,,-999999,8,101408,t,54601,156009,6/4/2014,15:38:42,,1,Session1,SessionsList,,,,,,,,,,1,1,1,4,,,,,,,,4,1,4,NonCued4,MiniBlocks2,,,,628593,2,1,r,-999999,15,652015,r,390,652405,Green,Congruent,r,White,0,,0,7,647017,,0,0,,,,,,,,,,,,,Pictures\white.bmp,4000,2000,Pictures\GreenLeft.bmp,,,,,,,,,,2,1,2,StimulusPr,Pictures\black.bmp,NonCuedStim4,Left
POP_2,27037,1,"<?xml version=""1.0""?>\n<Clock xmlns:dt=""urn:schemas-microsoft-com:datatypes""><Description dt:dt=""string"">E-Prime Primary Realtime Clock</Description><StartTime><Timestamp dt:dt=""int"">0</Timestamp><DateUtc dt:dt=""string"">2014-06-04T22:38:42Z</DateUtc></StartTime><FrequencyChanges><FrequencyChange><Frequency dt:dt=""r8"">2793040000</Frequency><Timestamp dt:dt=""r8"">332655052347417</Timestamp><Current dt:dt=""r8"">0</Current><DateUtc dt:dt=""string"">2014-06-04T22:38:42Z</DateUtc></FrequencyChange></FrequencyChanges></Clock>\n",60.03,1,1806072101,0,,-999999,8,101408,t,54601,156009,6/4/2014,15:38:42,,1,Session1,SessionsList,,,,,,,,,,1,1,1,4,,,,,,,,4,1,4,NonCued4,MiniBlocks2,,,,628593,3,1,r,-999999,7,661010,r,460,661470,Red,Incongruent,r,White,0,,0,16,656013,,0,0,,,,,,,,,,,,,Pictures\white.bmp,4000,2000,Pictures\black.bmp,,,,,,,,,,3,1,3,StimulusPr,Pictures\RedRight.bmp,NonCuedStim4,Right
POP_2,27037,1,"<?xml version=""1.0""?>\n<Clock xmlns:dt=""urn:schemas-microsoft-com:datatypes""><Description dt:dt=""string"">E-Prime Primary Realtime Clock</Description><StartTime><Timestamp dt:dt=""int"">0</Timestamp><DateUtc dt:dt=""string"">2014-06-04T22:38:42Z</DateUtc></StartTime><FrequencyChanges><FrequencyChange><Frequency dt:dt=""r8"">2793040000</Frequency><Timestamp dt:dt=""r8"">332655052347417</Timestamp><Current dt:dt=""r8"">0</Current><DateUtc dt:dt=""string"">2014-06-04T22:38:42Z</DateUtc></FrequencyChange></FrequencyChanges></Clock>\n",60.03,1,1806072101,0,,-999999,8,101408,t,54601,156009,6/4/2014,15:38:42,,1,Session1,SessionsList,,,,,,,,,,1,1,1,4,,,,,,,,4,1,4,NonCued4,MiniBlocks2,,,,628593,4,1,b,-999999,3,669006,b,403,669409,Green,Congruent,b,White,0,,0,5,665008,,0,0,,,,,,,,,,,,,Pictures\white.bmp,3000,16000,Pictures\black.bmp,,,,,,,,,,4,1,4,StimulusPr,Pictures\GreenRight.bmp,NonCuedStim4,Right
POP_2,27037,1,"<?xml version=""1.0""?>\n<Clock xmlns:dt=""urn:schemas-microsoft-com:datatypes""><Description dt:dt=""string"">E-Prime Primary Realtime Clock</Description><StartTime><Timestamp dt:dt=""int"">0</Timestamp><DateUtc dt:dt=""string"">2014-06-04T22:38:42Z</DateUtc></StartTime><FrequencyChanges><FrequencyChange><Frequency dt:dt=""r8"">2793040000</Frequency><Timestamp dt:dt=""r8"">332655052347417</Timestamp><Current dt:dt=""r8"">0</Current><DateUtc dt:dt=""string"">2014-06-04T22:38:42Z</DateUtc></FrequencyChange></FrequencyChanges></Clock>\n",60.03,1,1806072101,0,,-999999,8,101408,t,54601,156009,6/4/2014,15:38:42,,1,Session1,SessionsList,,,,,,,,,,1,1,1,4,,,,,,,,4,1,4,NonCued4,MiniBlocks2,,,,628593,5,1,r,-999999,15,697025,r,346,697371,Green,Congruent,r,White,0,,0,4,687014,,0,0,,,,,,,,,,,,,Pictures\white.bmp,9000,10000,Pictures\GreenLeft.bmp,,,,,,,,,,5,1,5,StimulusPr,Pictures\black.bmp,NonCuedStim4,Left
POP_2,27037,1,"<?xml version=""1.0""?>\n<Clock xmlns:dt=""urn:schemas-microsoft-com:datatypes""><Description dt:dt=""string"">E-Prime Primary Realtime Clock</Description><StartTime><Timestamp dt:dt=""int"">0</Timestamp><DateUtc dt:dt=""string"">2014-06-04T22:38:42Z</DateUtc></StartTime><FrequencyChanges><FrequencyChange><Frequency dt:dt=""r8"">2793040000</Frequency><Timestamp dt:dt=""r8"">332655052347417</Timestamp><Current dt:dt=""r8"">0</Current><DateUtc dt:dt=""string"">2014-06-04T22:38:42Z</DateUtc></FrequencyChange></FrequencyChanges></Clock>\n",60.03,1,1806072101,0,,-999999,8,101408,t,54601,156009,6/4/2014,15:38:42,,1,Session1,SessionsList,,,,,,,,,,1,1,1,4,,,,,,,,4,1,4,NonCued4,MiniBlocks2,,,,628593,6,1,b,-999999,9,713017,b,375,713392,Green,Congruent,b,White,0,,0,4,709003,,0,0,,,,,,,,,,,,,Pictures\white.bmp,3000,16000,Pictures\black.bmp,,,,,,,,,,6,1,6,StimulusPr,Pictures\GreenRight.bmp,NonCuedStim4,Right
POP_2,27037,1,"<?xml version=""1.0""?>\n<Clock xmlns:dt=""urn:schemas-microsoft-com:datatypes""><Description dt:dt=""string"">E-Prime Primary Realtime Clock</Description><StartTime><Timestamp dt:dt=""int"">0</Timestamp><DateUtc dt:dt=""string"">2014-06-04T22:38:42Z</DateUtc></StartTime><FrequencyChanges><FrequencyChange><Frequency dt:dt=""r8"">2793040000</Frequency><Timestamp dt:dt=""r8"">332655052347417</Timestamp><Current dt:dt=""r8"">0</Current><DateUtc dt:dt=""string"">2014-06-04T22:38:42Z</DateUtc></FrequencyChange></FrequencyChanges></Clock>\n",60.03,1,1806072101,0,,-999999,8,101408,t,54601,156009,6/4/2014,15:38:42,,1,Session1,SessionsList,,,,,,,,,,1,1,1,4,,,,,,,,4,1,4,NonCued4,MiniBlocks2,,,,628593,7,1,b,-999999,13,735023,b,611,735634,Red,Incongruent,b,White,0,,0,15,731025,,0,0,,,,,,,,,,,,,Pictures\white.bmp,3000,16000,Pictures\RedLeft.bmp,,,,,,,,,,7,1,7,StimulusPr,Pictures\black.bmp,NonCuedStim4,Left
POP_2,27037,1,"<?xml version=""1.0""?>\n<Clock xmlns:dt=""urn:schemas-microsoft-com:datatypes""><Description dt:dt=""string"">E-Prime Primary Realtime Clock</Description><StartTime><Timestamp dt:dt=""int"">0</Timestamp><DateUtc dt:dt=""string"">2014-06-04T22:38:42Z</DateUtc></StartTime><FrequencyChanges><FrequencyChange><Frequency dt:dt=""r8"">2793040000</Frequency><Timestamp dt:dt=""r8"">332655052347417</Timestamp><Current dt:dt=""r8"">0</Current><DateUtc dt:dt=""string"">2014-06-04T22:38:42Z</DateUtc></FrequencyChange></FrequencyChanges></Clock>\n",60.03,1,1806072101,0,,-999999,8,101408,t,54601,156009,6/4/2014,15:38:42,,1,Session1,SessionsList,,,,,,,,,,1,1,1,4,,,,,,,,4,1,4,NonCued4,MiniBlocks2,,,,628593,8,1,r,-999999,19,757029,r,470,757499,Green,Congruent,r,White,0,,0,4,753014,,0,0,,,,,,,,,,,,,Pictures\white.bmp,3000,2000,Pictures\GreenLeft.bmp,,,,,,,,,,8,1,8,StimulusPr,Pictures\black.bmp,NonCuedStim4,Left
POP_2,27037,1,"<?xml version=""1.0""?>\n<Clock xmlns:dt=""urn:schemas-microsoft-com:datatypes""><Description dt:dt=""string"">E-Prime Primary Realtime Clock</Description><StartTime><Timestamp dt:dt=""int"">0</Timestamp><DateUtc dt:dt=""string"">2014-06-04T22:38:42Z</DateUtc></StartTime><FrequencyChanges><FrequencyChange><Frequency dt:dt=""r8"">2793040000</Frequency><Timestamp dt:dt=""r8"">332655052347417</Timestamp><Current dt:dt=""r8"">0</Current><DateUtc dt:dt=""string"">2014-06-04T22:38:42Z</DateUtc></FrequencyChange></FrequencyChanges></Clock>\n",60.03,1,1806072101,0,,-999999,8,101408,t,54601,156009,6/4/2014,15:38:42,,1,Session1,SessionsList,,,,,,,,,,1,1,1,4,,,,,,,,4,1,4,NonCued4,MiniBlocks2,,,,628593,9,1,b,-999999,14,768023,b,321,768344,Green,Congruent,b,White,0,,0,10,761010,,0,0,,,,,,,,,,,,,Pictures\white.bmp,6000,2000,Pictures\black.bmp,,,,,,,,,,9,1,9,StimulusPr,Pictures\GreenRight.bmp,NonCuedStim4,Right
POP_2,27037,1,"<?xml version=""1.0""?>\n<Clock xmlns:dt=""urn:schemas-microsoft-com:datatypes""><Description dt:dt=""string"">E-Prime Primary Realtime Clock</Description><StartTime><Timestamp dt:dt=""int"">0</Timestamp><DateUtc dt:dt=""string"">2014-06-04T22:38:42Z</DateUtc></StartTime><FrequencyChanges><FrequencyChange><Frequency dt:dt=""r8"">2793040000</Frequency><Timestamp dt:dt=""r8"">332655052347417</Timestamp><Current dt:dt=""r8"">0</Current><DateUtc dt:dt=""string"">2014-06-04T22:38:42Z</DateUtc></FrequencyChange></FrequencyChanges></Clock>\n",60.03,1,1806072101,0,,-999999,8,101408,t,54601,156009,6/4/2014,15:38:42,,1,Session1,SessionsList,,,,,,,,,,1,1,1,4,,,,,,,,4,1,4,NonCued4,MiniBlocks2,,,,628593,10,1,b,-999999,9,777019,b,369,777388,Green,Congruent,b,White,0,,0,11,772021,,0,0,,,,,,,,,,,,,Pictures\white.bmp,4000,4000,Pictures\black.bmp,,,,,,,,,,10,1,10,StimulusPr,Pictures\GreenRight.bmp,NonCuedStim4,Right
POP_2,27037,1,"<?xml version=""1.0""?>\n<Clock xmlns:dt=""urn:schemas-microsoft-com:datatypes""><Description dt:dt=""string"">E-Prime Primary Realtime Clock</Description><StartTime><Timestamp dt:dt=""int"">0</Timestamp><DateUtc dt:dt=""string"">2014-06-04T22:38:42Z</DateUtc></StartTime><FrequencyChanges><FrequencyChange><Frequency dt:dt=""r8"">2793040000</Frequency><Timestamp dt:dt=""r8"">332655052347417</Timestamp><Current dt:dt=""r8"">0</Current><DateUtc dt:dt=""string"">2014-06-04T22:38:42Z</DateUtc></FrequencyChange></FrequencyChanges></Clock>\n",60.03,1,1806072101,0,,-999999,8,101408,t,54601,156009,6/4/2014,15:38:42,,2,Session2,SessionsList,0,,-999999,3,796325,t,36215,832540,781416,2,1,2,1,832541,,,,1,1,1,,,,Cued1,MiniBlocks1,,,,,1,1,r,-999999,10,846550,r,290,846840,White,Congruent,r,Green,0,,0,11,841536,,0,0,1,1,1,,,,,,,,,,Pictures\green.bmp,4000,4000,Pictures\left.bmp,,,,,,,,,,,,,StimulusPr,Pictures\black.bmp,CuedStim1,Left
POP_2,27037,1,"<?xml version=""1.0""?>\n<Clock xmlns:dt=""urn:schemas-microsoft-com:datatypes""><Description dt:dt=""string"">E-Prime Primary Realtime Clock</Description><StartTime><Timestamp dt:dt=""int"">0</Timestamp><DateUtc dt:dt=""string"">2014-06-04T22:38:42Z</DateUtc></StartTime><FrequencyChanges><FrequencyChange><Frequency dt:dt=""r8"">2793040000</Frequency><Timestamp dt:dt=""r8"">332655052347417</Timestamp><Current dt:dt=""r8"">0</Current><DateUtc dt:dt=""string"">2014-06-04T22:38:42Z</DateUtc></FrequencyChange></FrequencyChanges></Clock>\n",60.03,1,1806072101,0,,-999999,8,101408,t,54601,156009,6/4/2014,15:38:42,,2,Session2,SessionsList,0,,-999999,3,796325,t,36215,832540,781416,2,1,2,1,832541,,,,1,1,1,,,,Cued1,MiniBlocks1,,,,,2,1,b,-999999,16,859544,b,286,859830,White,Congruent,b,Green,0,,0,7,852547,,0,0,2,1,2,,,,,,,,,,Pictures\green.bmp,6000,2000,Pictures\black.bmp,,,,,,,,,,,,,StimulusPr,Pictures\right.bmp,CuedStim1,Right
POP_2,27037,1,"<?xml version=""1.0""?>\n<Clock xmlns:dt=""urn:schemas-microsoft-com:datatypes""><Description dt:dt=""string"">E-Prime Primary Realtime Clock</Description><StartTime><Timestamp dt:dt=""int"">0</Timestamp><DateUtc dt:dt=""string"">2014-06-04T22:38:42Z</DateUtc></StartTime><FrequencyChanges><FrequencyChange><Frequency dt:dt=""r8"">2793040000</Frequency><Timestamp dt:dt=""r8"">332655052347417</Timestamp><Current dt:dt=""r8"">0</Current><DateUtc dt:dt=""string"">2014-06-04T22:38:42Z</DateUtc></FrequencyChange></FrequencyChanges></Clock>\n",60.03,1,1806072101,0,,-999999,8,101408,t,54601,156009,6/4/2014,15:38:42,,2,Session2,SessionsList,0,,-999999,3,796325,t,36215,832540,781416,2,1,2,1,832541,,,,1,1,1,,,,Cued1,MiniBlocks1,,,,,3,1,b,-999999,17,867556,b,321,867877,White,Congruent,b,Green,0,,0,3,863542,,0,0,3,1,3,,,,,,,,,,Pictures\green.bmp,3000,2000,Pictures\black.bmp,,,,,,,,,,,,,StimulusPr,Pictures\right.bmp,CuedStim1,Right
POP_2,27037,1,"<?xml version=""1.0""?>\n<Clock xmlns:dt=""urn:schemas-microsoft-com:datatypes""><Description dt:dt=""string"">E-Prime Primary Realtime Clock</Description><StartTime><Timestamp dt:dt=""int"">0</Timestamp><DateUtc dt:dt=""string"">2014-06-04T22:38:42Z</DateUtc></StartTime><FrequencyChanges><FrequencyChange><Frequency dt:dt=""r8"">2793040000</Frequency><Timestamp dt:dt=""r8"">332655052347417</Timestamp><Current dt:dt=""r8"">0</Current><DateUtc dt:dt=""string"">2014-06-04T22:38:42Z</DateUtc></FrequencyChange></FrequencyChanges></Clock>\n",60.03,1,1806072101,0,,-999999,8,101408,t,54601,156009,6/4/2014,15:38:42,,2,Session2,SessionsList,0,,-999999,3,796325,t,36215,832540,781416,2,1,2,1,832541,,,,1,1,1,,,,Cued1,MiniBlocks1,,,,,4,1,b,-999999,9,875536,b,345,875881,White,Incongruent,b,Red,0,,0,13,871538,,0,0,4,1,4,,,,,,,,,,Pictures\red.bmp,3000,16000,Pictures\left.bmp,,,,,,,,,,,,,StimulusPr,Pictures\black.bmp,CuedStim1,Left
POP_2,27037,1,"<?xml version=""1.0""?>\n<Clock xmlns:dt=""urn:schemas-microsoft-com:datatypes""><Description dt:dt=""string"">E-Prime Primary Realtime Clock</Description><StartTime><Timestamp dt:dt=""int"">0</Timestamp><DateUtc dt:dt=""string"">2014-06-04T22:38:42Z</DateUtc></StartTime><FrequencyChanges><FrequencyChange><Frequency dt:dt=""r8"">2793040000</Frequency><Timestamp dt:dt=""r8"">332655052347417</Timestamp><Current dt:dt=""r8"">0</Current><DateUtc dt:dt=""string"">2014-06-04T22:38:42Z</DateUtc></FrequencyChange></FrequencyChanges></Clock>\n",60.03,1,1806072101,0,,-999999,8,101408,t,54601,156009,6/4/2014,15:38:42,,2,Session2,SessionsList,0,,-999999,3,796325,t,36215,832540,781416,2,1,2,1,832541,,,,1,1,1,,,,Cued1,MiniBlocks1,,,,,5,1,r,-999999,18,897558,r,341,897899,White,Congruent,r,Green,0,,0,3,893543,,0,0,5,1,5,,,,,,,,,,Pictures\green.bmp,3000,16000,Pictures\left.bmp,,,,,,,,,,,,,StimulusPr,Pictures\black.bmp,CuedStim1,Left
POP_2,27037,1,"<?xml version=""1.0""?>\n<Clock xmlns:dt=""urn:schemas-microsoft-com:datatypes""><Description dt:dt=""string"">E-Prime Primary Realtime Clock</Description><StartTime><Timestamp dt:dt=""int"">0</Timestamp><DateUtc dt:dt=""string"">2014-06-04T22:38:42Z</DateUtc></StartTime><FrequencyChanges><FrequencyChange><Frequency dt:dt=""r8"">2793040000</Frequency><Timestamp dt:dt=""r8"">332655052347417</Timestamp><Current dt:dt=""r8"">0</Current><DateUtc dt:dt=""string"">2014-06-04T22:38:42Z</DateUtc></FrequencyChange></FrequencyChanges></Clock>\n",60.03,1,1806072101,0,,-999999,8,101408,t,54601,156009,6/4/2014,15:38:42,,2,Session2,SessionsList,0,,-999999,3,796325,t,36215,832540,781416,2,1,2,1,832541,,,,1,1,1,,,,Cued1,MiniBlocks1,,,,,6,1,r,-999999,4,925544,r,309,925853,White,Congruent,r,Green,0,,0,9,915549,,0,0,6,1,6,,,,,,,,,,Pictures\green.bmp,9000,10000,Pictures\left.bmp,,,,,,,,,,,,,StimulusPr,Pictures\black.bmp,CuedStim1,Left
POP_2,27037,1,"<?xml version=""1.0""?>\n<Clock xmlns:dt=""urn:schemas-microsoft-com:datatypes""><Description dt:dt=""string"">E-Prime Primary Realtime Clock</Description><StartTime><Timestamp dt:dt=""int"">0</Timestamp><DateUtc dt:dt=""string"">2014-06-04T22:38:42Z</DateUtc></StartTime><FrequencyChanges><FrequencyChange><Frequency dt:dt=""r8"">2793040000</Frequency><Timestamp dt:dt=""r8"">332655052347417</Timestamp><Current dt:dt=""r8"">0</Current><DateUtc dt:dt=""string"">2014-06-04T22:38:42Z</DateUtc></FrequencyChange></FrequencyChanges></Clock>\n",60.03,1,1806072101,0,,-999999,8,101408,t,54601,156009,6/4/2014,15:38:42,,2,Session2,SessionsList,0,,-999999,3,796325,t,36215,832540,781416,2,1,2,1,832541,,,,1,1,1,,,,Cued1,MiniBlocks1,,,,,7,1,b,-999999,12,941536,b,321,941857,White,Congruent,b,Green,0,,0,15,937555,,0,0,7,1,7,,,,,,,,,,Pictures\green.bmp,3000,16000,Pictures\black.bmp,,,,,,,,,,,,,StimulusPr,Pictures\right.bmp,CuedStim1,Right
POP_2,27037,1,"<?xml version=""1.0""?>\n<Clock xmlns:dt=""urn:schemas-microsoft-com:datatypes""><Description dt:dt=""string"">E-Prime Primary Realtime Clock</Description><StartTime><Timestamp dt:dt=""int"">0</Timestamp><DateUtc dt:dt=""string"">2014-06-04T22:38:42Z</DateUtc></StartTime><FrequencyChanges><FrequencyChange><Frequency dt:dt=""r8"">2793040000</Frequency><Timestamp dt:dt=""r8"">332655052347417</Timestamp><Current dt:dt=""r8"">0</Current><DateUtc dt:dt=""string"">2014-06-04T22:38:42Z</DateUtc></FrequencyChange></FrequencyChanges></Clock>\n",60.03,1,1806072101,0,,-999999,8,101408,t,54601,156009,6/4/2014,15:38:42,,2,Session2,SessionsList,0,,-999999,3,796325,t,36215,832540,781416,2,1,2,1,832541,,,,1,1,1,,,,Cued1,MiniBlocks1,,,,,8,1,r,-999999,17,964541,r,378,964919,White,Incongruent,r,Red,0,,0,4,959543,,0,0,8,1,8,,,,,,,,,,Pictures\red.bmp,4000,2000,Pictures\black.bmp,,,,,,,,,,,,,StimulusPr,Pictures\right.bmp,CuedStim1,Right
POP_2,27037,1,"<?xml version=""1.0""?>\n<Clock xmlns:dt=""urn:schemas-microsoft-com:datatypes""><Description dt:dt=""string"">E-Prime Primary Realtime Clock</Description><StartTime><Timestamp dt:dt=""int"">0</Timestamp><DateUtc dt:dt=""string"">2014-06-04T22:38:42Z</DateUtc></StartTime><FrequencyChanges><FrequencyChange><Frequency dt:dt=""r8"">2793040000</Frequency><Timestamp dt:dt=""r8"">332655052347417</Timestamp><Current dt:dt=""r8"">0</Current><DateUtc dt:dt=""string"">2014-06-04T22:38:42Z</DateUtc></FrequencyChange></FrequencyChanges></Clock>\n",60.03,1,1806072101,0,,-999999,8,101408,t,54601,156009,6/4/2014,15:38:42,,2,Session2,SessionsList,0,,-999999,3,796325,t,36215,832540,781416,2,1,2,1,832541,,,,1,1,1,,,,Cued1,MiniBlocks1,,,,,9,1,b,-999999,14,973553,b,378,973931,White,Congruent,b,Green,0,,0,12,968539,,0,0,9,1,9,,,,,,,,,,Pictures\green.bmp,4000,2000,Pictures\black.bmp,,,,,,,,,,,,,StimulusPr,Pictures\right.bmp,CuedStim1,Right
POP_2,27037,1,"<?xml version=""1.0""?>\n<Clock xmlns:dt=""urn:schemas-microsoft-com:datatypes""><Description dt:dt=""string"">E-Prime Primary Realtime Clock</Description><StartTime><Timestamp dt:dt=""int"">0</Timestamp><DateUtc dt:dt=""string"">2014-06-04T22:38:42Z</DateUtc></StartTime><FrequencyChanges><FrequencyChange><Frequency dt:dt=""r8"">2793040000</Frequency><Timestamp dt:dt=""r8"">332655052347417</Timestamp><Current dt:dt=""r8"">0</Current><DateUtc dt:dt=""string"">2014-06-04T22:38:42Z</DateUtc></FrequencyChange></FrequencyChanges></Clock>\n",60.03,1,1806072101,0,,-999999,8,101408,t,54601,156009,6/4/2014,15:38:42,,2,Session2,SessionsList,0,,-999999,3,796325,t,36215,832540,781416,2,1,2,1,832541,,,,1,1,1,,,,Cued1,MiniBlocks1,,,,,10,1,r,-999999,9,981549,r,600,982149,White,Congruent,r,Green,0,,0,6,977534,,0,0,10,1,10,,,,,,,,,,Pictures\green.bmp,3000,2000,Pictures\left.bmp,,,,,,,,,,,,,StimulusPr,Pictures\black.bmp,CuedStim1,Left
POP_2,27037,1,"<?xml version=""1.0""?>\n<Clock xmlns:dt=""urn:schemas-microsoft-com:datatypes""><Description dt:dt=""string"">E-Prime Primary Realtime Clock</Description><StartTime><Timestamp dt:dt=""int"">0</Timestamp><DateUtc dt:dt=""string"">2014-06-04T22:38:42Z</DateUtc></StartTime><FrequencyChanges><FrequencyChange><Frequency dt:dt=""r8"">2793040000</Frequency><Timestamp dt:dt=""r8"">332655052347417</Timestamp><Current dt:dt=""r8"">0</Current><DateUtc dt:dt=""string"">2014-06-04T22:38:42Z</DateUtc></FrequencyChange></FrequencyChanges></Clock>\n",60.03,1,1806072101,0,,-999999,8,101408,t,54601,156009,6/4/2014,15:38:42,,2,Session2,SessionsList,0,,-999999,3,796325,t,36215,832540,781416,2,1,2,2,,,,,2,1,2,,,,NonCued1,MiniBlocks1,984181,,,,1,1,r,-999999,18,999557,r,1087,1000644,Green,Congruent,r,White,0,,0,2,994526,,0,0,,,,,,,,,,,,,Pictures\white.bmp,4000,2000,Pictures\GreenLeft.bmp,1,1,1,,,,,,,,,,StimulusPr,Pictures\black.bmp,NonCuedStim1,Left
POP_2,27037,1,"<?xml version=""1.0""?>\n<Clock xmlns:dt=""urn:schemas-microsoft-com:datatypes""><Description dt:dt=""string"">E-Prime Primary Realtime Clock</Description><StartTime><Timestamp dt:dt=""int"">0</Timestamp><DateUtc dt:dt=""string"">2014-06-04T22:38:42Z</DateUtc></StartTime><FrequencyChanges><FrequencyChange><Frequency dt:dt=""r8"">2793040000</Frequency><Timestamp dt:dt=""r8"">332655052347417</Timestamp><Current dt:dt=""r8"">0</Current><DateUtc dt:dt=""string"">2014-06-04T22:38:42Z</DateUtc></FrequencyChange></FrequencyChanges></Clock>\n",60.03,1,1806072101,0,,-999999,8,101408,t,54601,156009,6/4/2014,15:38:42,,2,Session2,SessionsList,0,,-999999,3,796325,t,36215,832540,781416,2,1,2,2,,,,,2,1,2,,,,NonCued1,MiniBlocks1,984181,,,,2,1,b,-999999,11,1011551,b,369,1011920,Green,Congruent,b,White,0,,0,14,1004554,,0,0,,,,,,,,,,,,,Pictures\white.bmp,6000,16000,Pictures\black.bmp,2,1,2,,,,,,,,,,StimulusPr,Pictures\GreenRight.bmp,NonCuedStim1,Right
POP_2,27037,1,"<?xml version=""1.0""?>\n<Clock xmlns:dt=""urn:schemas-microsoft-com:datatypes""><Description dt:dt=""string"">E-Prime Primary Realtime Clock</Description><StartTime><Timestamp dt:dt=""int"">0</Timestamp><DateUtc dt:dt=""string"">2014-06-04T22:38:42Z</DateUtc></StartTime><FrequencyChanges><FrequencyChange><Frequency dt:dt=""r8"">2793040000</Frequency><Timestamp dt:dt=""r8"">332655052347417</Timestamp><Current dt:dt=""r8"">0</Current><DateUtc dt:dt=""string"">2014-06-04T22:38:42Z</DateUtc></FrequencyChange></FrequencyChanges></Clock>\n",60.03,1,1806072101,0,,-999999,8,101408,t,54601,156009,6/4/2014,15:38:42,,2,Session2,SessionsList,0,,-999999,3,796325,t,36215,832540,781416,2,1,2,2,,,,,2,1,2,,,,NonCued1,MiniBlocks1,984181,,,,3,1,r,-999999,16,1036555,r,563,1037118,Red,Incongruent,r,White,0,,0,3,1029542,,0,0,,,,,,,,,,,,,Pictures\white.bmp,6000,10000,Pictures\black.bmp,3,1,3,,,,,,,,,,StimulusPr,Pictures\RedRight.bmp,NonCuedStim1,Right
POP_2,27037,1,"<?xml version=""1.0""?>\n<Clock xmlns:dt=""urn:schemas-microsoft-com:datatypes""><Description dt:dt=""string"">E-Prime Primary Realtime Clock</Description><StartTime><Timestamp dt:dt=""int"">0</Timestamp><DateUtc dt:dt=""string"">2014-06-04T22:38:42Z</DateUtc></StartTime><FrequencyChanges><FrequencyChange><Frequency dt:dt=""r8"">2793040000</Frequency><Timestamp dt:dt=""r8"">332655052347417</Timestamp><Current dt:dt=""r8"">0</Current><DateUtc dt:dt=""string"">2014-06-04T22:38:42Z</DateUtc></FrequencyChange></FrequencyChanges></Clock>\n",60.03,1,1806072101,0,,-999999,8,101408,t,54601,156009,6/4/2014,15:38:42,,2,Session2,SessionsList,0,,-999999,3,796325,t,36215,832540,781416,2,1,2,2,,,,,2,1,2,,,,NonCued1,MiniBlocks1,984181,,,,4,1,r,-999999,3,1058527,r,399,1058926,Green,Congruent,r,White,0,,0,10,1048549,,0,0,,,,,,,,,,,,,Pictures\white.bmp,9000,10000,Pictures\GreenLeft.bmp,4,1,4,,,,,,,,,,StimulusPr,Pictures\black.bmp,NonCuedStim1,Left
POP_2,27037,1,"<?xml version=""1.0""?>\n<Clock xmlns:dt=""urn:schemas-microsoft-com:datatypes""><Description dt:dt=""string"">E-Prime Primary Realtime Clock</Description><StartTime><Timestamp dt:dt=""int"">0</Timestamp><DateUtc dt:dt=""string"">2014-06-04T22:38:42Z</DateUtc></StartTime><FrequencyChanges><FrequencyChange><Frequency dt:dt=""r8"">2793040000</Frequency><Timestamp dt:dt=""r8"">332655052347417</Timestamp><Current dt:dt=""r8"">0</Current><DateUtc dt:dt=""string"">2014-06-04T22:38:42Z</DateUtc></FrequencyChange></FrequencyChanges></Clock>\n",60.03,1,1806072101,0,,-999999,8,101408,t,54601,156009,6/4/2014,15:38:42,,2,Session2,SessionsList,0,,-999999,3,796325,t,36215,832540,781416,2,1,2,2,,,,,2,1,2,,,,NonCued1,MiniBlocks1,984181,,,,5,1,b,-999999,12,1074536,b,338,1074874,Green,Congruent,b,White,0,,0,14,1070538,,0,0,,,,,,,,,,,,,Pictures\white.bmp,3000,2000,Pictures\black.bmp,5,1,5,,,,,,,,,,StimulusPr,Pictures\GreenRight.bmp,NonCuedStim1,Right
POP_2,27037,1,"<?xml version=""1.0""?>\n<Clock xmlns:dt=""urn:schemas-microsoft-com:datatypes""><Description dt:dt=""string"">E-Prime Primary Realtime Clock</Description><StartTime><Timestamp dt:dt=""int"">0</Timestamp><DateUtc dt:dt=""string"">2014-06-04T22:38:42Z</DateUtc></StartTime><FrequencyChanges><FrequencyChange><Frequency dt:dt=""r8"">2793040000</Frequency><Timestamp dt:dt=""r8"">332655052347417</Timestamp><Current dt:dt=""r8"">0</Current><DateUtc dt:dt=""string"">2014-06-04T22:38:42Z</DateUtc></FrequencyChange></FrequencyChanges></Clock>\n",60.03,1,1806072101,0,,-999999,8,101408,t,54601,156009,6/4/2014,15:38:42,,2,Session2,SessionsList,0,,-999999,3,796325,t,36215,832540,781416,2,1,2,2,,,,,2,1,2,,,,NonCued1,MiniBlocks1,984181,,,,6,1,b,-999999,8,1083548,b,458,1084006,Red,Incongruent,b,White,0,,0,11,1078550,,0,0,,,,,,,,,,,,,Pictures\white.bmp,4000,16000,Pictures\RedLeft.bmp,6,1,6,,,,,,,,,,StimulusPr,Pictures\black.bmp,NonCuedStim1,Left
POP_2,27037,1,"<?xml version=""1.0""?>\n<Clock xmlns:dt=""urn:schemas-microsoft-com:datatypes""><Description dt:dt=""string"">E-Prime Primary Realtime Clock</Description><StartTime><Timestamp dt:dt=""int"">0</Timestamp><DateUtc dt:dt=""string"">2014-06-04T22:38:42Z</DateUtc></StartTime><FrequencyChanges><FrequencyChange><Frequency dt:dt=""r8"">2793040000</Frequency><Timestamp dt:dt=""r8"">332655052347417</Timestamp><Current dt:dt=""r8"">0</Current><DateUtc dt:dt=""string"">2014-06-04T22:38:42Z</DateUtc></FrequencyChange></FrequencyChanges></Clock>\n",60.03,1,1806072101,0,,-999999,8,101408,t,54601,156009,6/4/2014,15:38:42,,2,Session2,SessionsList,0,,-999999,3,796325,t,36215,832540,781416,2,1,2,2,,,,,2,1,2,,,,NonCued1,MiniBlocks1,984181,,,,7,1,b,-999999,11,1105537,b,868,1106405,Green,Congruent,b,White,0,,0,8,1101539,,0,0,,,,,,,,,,,,,Pictures\white.bmp,3000,4000,Pictures\black.bmp,7,1,7,,,,,,,,,,StimulusPr,Pictures\GreenRight.bmp,NonCuedStim1,Right
POP_2,27037,1,"<?xml version=""1.0""?>\n<Clock xmlns:dt=""urn:schemas-microsoft-com:datatypes""><Description dt:dt=""string"">E-Prime Primary Realtime Clock</Description><StartTime><Timestamp dt:dt=""int"">0</Timestamp><DateUtc dt:dt=""string"">2014-06-04T22:38:42Z</DateUtc></StartTime><FrequencyChanges><FrequencyChange><Frequency dt:dt=""r8"">2793040000</Frequency><Timestamp dt:dt=""r8"">332655052347417</Timestamp><Current dt:dt=""r8"">0</Current><DateUtc dt:dt=""string"">2014-06-04T22:38:42Z</DateUtc></FrequencyChange></FrequencyChanges></Clock>\n",60.03,1,1806072101,0,,-999999,8,101408,t,54601,156009,6/4/2014,15:38:42,,2,Session2,SessionsList,0,,-999999,3,796325,t,36215,832540,781416,2,1,2,2,,,,,2,1,2,,,,NonCued1,MiniBlocks1,984181,,,,8,1,b,-999999,9,1115548,b,324,1115872,Green,Congruent,b,White,0,,0,11,1111550,,0,0,,,,,,,,,,,,,Pictures\white.bmp,3000,4000,Pictures\black.bmp,8,1,8,,,,,,,,,,StimulusPr,Pictures\GreenRight.bmp,NonCuedStim1,Right
POP_2,27037,1,"<?xml version=""1.0""?>\n<Clock xmlns:dt=""urn:schemas-microsoft-com:datatypes""><Description dt:dt=""string"">E-Prime Primary Realtime Clock</Description><StartTime><Timestamp dt:dt=""int"">0</Timestamp><DateUtc dt:dt=""string"">2014-06-04T22:38:42Z</DateUtc></StartTime><FrequencyChanges><FrequencyChange><Frequency dt:dt=""r8"">2793040000</Frequency><Timestamp dt:dt=""r8"">332655052347417</Timestamp><Current dt:dt=""r8"">0</Current><DateUtc dt:dt=""string"">2014-06-04T22:38:42Z</DateUtc></FrequencyChange></FrequencyChanges></Clock>\n",60.03,1,1806072101,0,,-999999,8,101408,t,54601,156009,6/4/2014,15:38:42,,2,Session2,SessionsList,0,,-999999,3,796325,t,36215,832540,781416,2,1,2,2,,,,,2,1,2,,,,NonCued1,MiniBlocks1,984181,,,,9,0,b,-999999,18,1131557,r,436,1131993,Red,Incongruent,b,White,0,,0,6,1121545,,0,0,,,,,,,,,,,,,Pictures\white.bmp,9000,2000,Pictures\RedLeft.bmp,9,1,9,,,,,,,,,,StimulusPr,Pictures\black.bmp,NonCuedStim1,Left
POP_2,27037,1,"<?xml version=""1.0""?>\n<Clock xmlns:dt=""urn:schemas-microsoft-com:datatypes""><Description dt:dt=""string"">E-Prime Primary Realtime Clock</Description><StartTime><Timestamp dt:dt=""int"">0</Timestamp><DateUtc dt:dt=""string"">2014-06-04T22:38:42Z</DateUtc></StartTime><FrequencyChanges><FrequencyChange><Frequency dt:dt=""r8"">2793040000</Frequency><Timestamp dt:dt=""r8"">332655052347417</Timestamp><Current dt:dt=""r8"">0</Current><DateUtc dt:dt=""string"">2014-06-04T22:38:42Z</DateUtc></FrequencyChange></FrequencyChanges></Clock>\n",60.03,1,1806072101,0,,-999999,8,101408,t,54601,156009,6/4/2014,15:38:42,,2,Session2,SessionsList,0,,-999999,3,796325,t,36215,832540,781416,2,1,2,2,,,,,2,1,2,,,,NonCued1,MiniBlocks1,984181,,,,10,1,r,-999999,12,1142551,r,603,1143154,Green,Congruent,r,White,0,,0,16,1135555,,0,0,,,,,,,,,,,,,Pictures\white.bmp,6000,2000,Pictures\GreenLeft.bmp,10,1,10,,,,,,,,,,StimulusPr,Pictures\black.bmp,NonCuedStim1,Left
POP_2,27037,1,"<?xml version=""1.0""?>\n<Clock xmlns:dt=""urn:schemas-microsoft-com:datatypes""><Description dt:dt=""string"">E-Prime Primary Realtime Clock</Description><StartTime><Timestamp dt:dt=""int"">0</Timestamp><DateUtc dt:dt=""string"">2014-06-04T22:38:42Z</DateUtc></StartTime><FrequencyChanges><FrequencyChange><Frequency dt:dt=""r8"">2793040000</Frequency><Timestamp dt:dt=""r8"">332655052347417</Timestamp><Current dt:dt=""r8"">0</Current><DateUtc dt:dt=""string"">2014-06-04T22:38:42Z</DateUtc></FrequencyChange></FrequencyChanges></Clock>\n",60.03,1,1806072101,0,,-999999,8,101408,t,54601,156009,6/4/2014,15:38:42,,2,Session2,SessionsList,0,,-999999,3,796325,t,36215,832540,781416,2,1,2,3,,,,,3,1,3,,,,NonCued2,MiniBlocks1,,1145183,,,1,1,b,-999999,18,1165557,b,373,1165930,Green,Congruent,b,White,0,,0,5,1155545,,0,0,,,,,,,,,,,,,Pictures\white.bmp,9000,10000,Pictures\black.bmp,,,,1,1,1,,,,,,,StimulusPr,Pictures\GreenRight.bmp,NonCuedStim2,Right
POP_2,27037,1,"<?xml version=""1.0""?>\n<Clock xmlns:dt=""urn:schemas-microsoft-com:datatypes""><Description dt:dt=""string"">E-Prime Primary Realtime Clock</Description><StartTime><Timestamp dt:dt=""int"">0</Timestamp><DateUtc dt:dt=""string"">2014-06-04T22:38:42Z</DateUtc></StartTime><FrequencyChanges><FrequencyChange><Frequency dt:dt=""r8"">2793040000</Frequency><Timestamp dt:dt=""r8"">332655052347417</Timestamp><Current dt:dt=""r8"">0</Current><DateUtc dt:dt=""string"">2014-06-04T22:38:42Z</DateUtc></FrequencyChange></FrequencyChanges></Clock>\n",60.03,1,1806072101,0,,-999999,8,101408,t,54601,156009,6/4/2014,15:38:42,,2,Session2,SessionsList,0,,-999999,3,796325,t,36215,832540,781416,2,1,2,3,,,,,3,1,3,,,,NonCued2,MiniBlocks1,,1145183,,,2,1,r,-999999,9,1181532,r,459,1181991,Green,Congruent,r,White,0,,0,8,1177534,,0,0,,,,,,,,,,,,,Pictures\white.bmp,3000,2000,Pictures\GreenLeft.bmp,,,,2,1,2,,,,,,,StimulusPr,Pictures\black.bmp,NonCuedStim2,Left
POP_2,27037,1,"<?xml version=""1.0""?>\n<Clock xmlns:dt=""urn:schemas-microsoft-com:datatypes""><Description dt:dt=""string"">E-Prime Primary Realtime Clock</Description><StartTime><Timestamp dt:dt=""int"">0</Timestamp><DateUtc dt:dt=""string"">2014-06-04T22:38:42Z</DateUtc></StartTime><FrequencyChanges><FrequencyChange><Frequency dt:dt=""r8"">2793040000</Frequency><Timestamp dt:dt=""r8"">332655052347417</Timestamp><Current dt:dt=""r8"">0</Current><DateUtc dt:dt=""string"">2014-06-04T22:38:42Z</DateUtc></FrequencyChange></FrequencyChanges></Clock>\n",60.03,1,1806072101,0,,-999999,8,101408,t,54601,156009,6/4/2014,15:38:42,,2,Session2,SessionsList,0,,-999999,3,796325,t,36215,832540,781416,2,1,2,3,,,,,3,1,3,,,,NonCued2,MiniBlocks1,,1145183,,,3,1,r,-999999,15,1189545,r,607,1190152,Red,Incongruent,r,White,0,,0,8,1185547,,0,0,,,,,,,,,,,,,Pictures\white.bmp,3000,2000,Pictures\black.bmp,,,,3,1,3,,,,,,,StimulusPr,Pictures\RedRight.bmp,NonCuedStim2,Right
POP_2,27037,1,"<?xml version=""1.0""?>\n<Clock xmlns:dt=""urn:schemas-microsoft-com:datatypes""><Description dt:dt=""string"">E-Prime Primary Realtime Clock</Description><StartTime><Timestamp dt:dt=""int"">0</Timestamp><DateUtc dt:dt=""string"">2014-06-04T22:38:42Z</DateUtc></StartTime><FrequencyChanges><FrequencyChange><Frequency dt:dt=""r8"">2793040000</Frequency><Timestamp dt:dt=""r8"">332655052347417</Timestamp><Current dt:dt=""r8"">0</Current><DateUtc dt:dt=""string"">2014-06-04T22:38:42Z</DateUtc></FrequencyChange></FrequencyChanges></Clock>\n",60.03,1,1806072101,0,,-999999,8,101408,t,54601,156009,6/4/2014,15:38:42,,2,Session2,SessionsList,0,,-999999,3,796325,t,36215,832540,781416,2,1,2,3,,,,,3,1,3,,,,NonCued2,MiniBlocks1,,1145183,,,4,1,r,-999999,18,1198557,r,432,1198989,Green,Congruent,r,White,0,,0,15,1193543,,0,0,,,,,,,,,,,,,Pictures\white.bmp,4000,16000,Pictures\GreenLeft.bmp,,,,4,1,4,,,,,,,StimulusPr,Pictures\black.bmp,NonCuedStim2,Left
POP_2,27037,1,"<?xml version=""1.0""?>\n<Clock xmlns:dt=""urn:schemas-microsoft-com:datatypes""><Description dt:dt=""string"">E-Prime Primary Realtime Clock</Description><StartTime><Timestamp dt:dt=""int"">0</Timestamp><DateUtc dt:dt=""string"">2014-06-04T22:38:42Z</DateUtc></StartTime><FrequencyChanges><FrequencyChange><Frequency dt:dt=""r8"">2793040000</Frequency><Timestamp dt:dt=""r8"">332655052347417</Timestamp><Current dt:dt=""r8"">0</Current><DateUtc dt:dt=""string"">2014-06-04T22:38:42Z</DateUtc></FrequencyChange></FrequencyChanges></Clock>\n",60.03,1,1806072101,0,,-999999,8,101408,t,54601,156009,6/4/2014,15:38:42,,2,Session2,SessionsList,0,,-999999,3,796325,t,36215,832540,781416,2,1,2,3,,,,,3,1,3,,,,NonCued2,MiniBlocks1,,1145183,,,5,1,r,-999999,5,1223544,r,405,1223949,Green,Congruent,r,White,0,,0,8,1216531,,0,0,,,,,,,,,,,,,Pictures\white.bmp,6000,4000,Pictures\GreenLeft.bmp,,,,5,1,5,,,,,,,StimulusPr,Pictures\black.bmp,NonCuedStim2,Left
POP_2,27037,1,"<?xml version=""1.0""?>\n<Clock xmlns:dt=""urn:schemas-microsoft-com:datatypes""><Description dt:dt=""string"">E-Prime Primary Realtime Clock</Description><StartTime><Timestamp dt:dt=""int"">0</Timestamp><DateUtc dt:dt=""string"">2014-06-04T22:38:42Z</DateUtc></StartTime><FrequencyChanges><FrequencyChange><Frequency dt:dt=""r8"">2793040000</Frequency><Timestamp dt:dt=""r8"">332655052347417</Timestamp><Current dt:dt=""r8"">0</Current><DateUtc dt:dt=""string"">2014-06-04T22:38:42Z</DateUtc></FrequencyChange></FrequencyChanges></Clock>\n",60.03,1,1806072101,0,,-999999,8,101408,t,54601,156009,6/4/2014,15:38:42,,2,Session2,SessionsList,0,,-999999,3,796325,t,36215,832540,781416,2,1,2,3,,,,,3,1,3,,,,NonCued2,MiniBlocks1,,1145183,,,6,1,b,-999999,16,1233539,b,523,1234062,Red,Incongruent,b,White,0,,0,3,1229541,,0,0,,,,,,,,,,,,,Pictures\white.bmp,3000,4000,Pictures\RedLeft.bmp,,,,6,1,6,,,,,,,StimulusPr,Pictures\black.bmp,NonCuedStim2,Left
POP_2,27037,1,"<?xml version=""1.0""?>\n<Clock xmlns:dt=""urn:schemas-microsoft-com:datatypes""><Description dt:dt=""string"">E-Prime Primary Realtime Clock</Description><StartTime><Timestamp dt:dt=""int"">0</Timestamp><DateUtc dt:dt=""string"">2014-06-04T22:38:42Z</DateUtc></StartTime><FrequencyChanges><FrequencyChange><Frequency dt:dt=""r8"">2793040000</Frequency><Timestamp dt:dt=""r8"">332655052347417</Timestamp><Current dt:dt=""r8"">0</Current><DateUtc dt:dt=""string"">2014-06-04T22:38:42Z</DateUtc></FrequencyChange></FrequencyChanges></Clock>\n",60.03,1,1806072101,0,,-999999,8,101408,t,54601,156009,6/4/2014,15:38:42,,2,Session2,SessionsList,0,,-999999,3,796325,t,36215,832540,781416,2,1,2,3,,,,,3,1,3,,,,NonCued2,MiniBlocks1,,1145183,,,7,1,b,-999999,14,1244534,b,366,1244900,Green,Congruent,b,White,0,,0,14,1239536,,0,0,,,,,,,,,,,,,Pictures\white.bmp,4000,16000,Pictures\black.bmp,,,,7,1,7,,,,,,,StimulusPr,Pictures\GreenRight.bmp,NonCuedStim2,Right
POP_2,27037,1,"<?xml version=""1.0""?>\n<Clock xmlns:dt=""urn:schemas-microsoft-com:datatypes""><Description dt:dt=""string"">E-Prime Primary Realtime Clock</Description><StartTime><Timestamp dt:dt=""int"">0</Timestamp><DateUtc dt:dt=""string"">2014-06-04T22:38:42Z</DateUtc></StartTime><FrequencyChanges><FrequencyChange><Frequency dt:dt=""r8"">2793040000</Frequency><Timestamp dt:dt=""r8"">332655052347417</Timestamp><Current dt:dt=""r8"">0</Current><DateUtc dt:dt=""string"">2014-06-04T22:38:42Z</DateUtc></FrequencyChange></FrequencyChanges></Clock>\n",60.03,1,1806072101,0,,-999999,8,101408,t,54601,156009,6/4/2014,15:38:42,,2,Session2,SessionsList,0,,-999999,3,796325,t,36215,832540,781416,2,1,2,3,,,,,3,1,3,,,,NonCued2,MiniBlocks1,,1145183,,,8,1,r,-999999,15,1272553,r,358,1272911,Green,Congruent,r,White,0,,0,3,1262525,,0,0,,,,,,,,,,,,,Pictures\white.bmp,9000,2000,Pictures\GreenLeft.bmp,,,,8,1,8,,,,,,,StimulusPr,Pictures\black.bmp,NonCuedStim2,Left
POP_2,27037,1,"<?xml version=""1.0""?>\n<Clock xmlns:dt=""urn:schemas-microsoft-com:datatypes""><Description dt:dt=""string"">E-Prime Primary Realtime Clock</Description><StartTime><Timestamp dt:dt=""int"">0</Timestamp><DateUtc dt:dt=""string"">2014-06-04T22:38:42Z</DateUtc></StartTime><FrequencyChanges><FrequencyChange><Frequency dt:dt=""r8"">2793040000</Frequency><Timestamp dt:dt=""r8"">332655052347417</Timestamp><Current dt:dt=""r8"">0</Current><DateUtc dt:dt=""string"">2014-06-04T22:38:42Z</DateUtc></FrequencyChange></FrequencyChanges></Clock>\n",60.03,1,1806072101,0,,-999999,8,101408,t,54601,156009,6/4/2014,15:38:42,,2,Session2,SessionsList,0,,-999999,3,796325,t,36215,832540,781416,2,1,2,3,,,,,3,1,3,,,,NonCued2,MiniBlocks1,,1145183,,,9,1,b,-999999,10,1280549,b,407,1280956,Green,Congruent,b,White,0,,0,2,1276534,,0,0,,,,,,,,,,,,,Pictures\white.bmp,3000,10000,Pictures\black.bmp,,,,9,1,9,,,,,,,StimulusPr,Pictures\GreenRight.bmp,NonCuedStim2,Right
POP_2,27037,1,"<?xml version=""1.0""?>\n<Clock xmlns:dt=""urn:schemas-microsoft-com:datatypes""><Description dt:dt=""string"">E-Prime Primary Realtime Clock</Description><StartTime><Timestamp dt:dt=""int"">0</Timestamp><DateUtc dt:dt=""string"">2014-06-04T22:38:42Z</DateUtc></StartTime><FrequencyChanges><FrequencyChange><Frequency dt:dt=""r8"">2793040000</Frequency><Timestamp dt:dt=""r8"">332655052347417</Timestamp><Current dt:dt=""r8"">0</Current><DateUtc dt:dt=""string"">2014-06-04T22:38:42Z</DateUtc></FrequencyChange></FrequencyChanges></Clock>\n",60.03,1,1806072101,0,,-999999,8,101408,t,54601,156009,6/4/2014,15:38:42,,2,Session2,SessionsList,0,,-999999,3,796325,t,36215,832540,781416,2,1,2,3,,,,,3,1,3,,,,NonCued2,MiniBlocks1,,1145183,,,10,1,b,-999999,3,1296541,b,327,1296868,Green,Congruent,b,White,0,,0,5,1292543,,0,0,,,,,,,,,,,,,Pictures\white.bmp,3000,2000,Pictures\black.bmp,,,,10,1,10,,,,,,,StimulusPr,Pictures\GreenRight.bmp,NonCuedStim2,Right
POP_2,27037,1,"<?xml version=""1.0""?>\n<Clock xmlns:dt=""urn:schemas-microsoft-com:datatypes""><Description dt:dt=""string"">E-Prime Primary Realtime Clock</Description><StartTime><Timestamp dt:dt=""int"">0</Timestamp><DateUtc dt:dt=""string"">2014-06-04T22:38:42Z</DateUtc></StartTime><FrequencyChanges><FrequencyChange><Frequency dt:dt=""r8"">2793040000</Frequency><Timestamp dt:dt=""r8"">332655052347417</Timestamp><Current dt:dt=""r8"">0</Current><DateUtc dt:dt=""string"">2014-06-04T22:38:42Z</DateUtc></FrequencyChange></FrequencyChanges></Clock>\n",60.03,1,1806072101,0,,-999999,8,101408,t,54601,156009,6/4/2014,15:38:42,,2,Session2,SessionsList,0,,-999999,3,796325,t,36215,832540,781416,2,1,2,4,,1298890,,,4,1,4,,,,Cued2,MiniBlocks1,,,,,1,1,b,-999999,9,1315531,b,296,1315827,White,Congruent,b,Green,0,,0,13,1308535,,0,0,,,,1,1,1,,,,,,,Pictures\green.bmp,6000,4000,Pictures\black.bmp,,,,,,,,,,,,,StimulusPr,Pictures\right.bmp,CuedStim2,Right
POP_2,27037,1,"<?xml version=""1.0""?>\n<Clock xmlns:dt=""urn:schemas-microsoft-com:datatypes""><Description dt:dt=""string"">E-Prime Primary Realtime Clock</Description><StartTime><Timestamp dt:dt=""int"">0</Timestamp><DateUtc dt:dt=""string"">2014-06-04T22:38:42Z</DateUtc></StartTime><FrequencyChanges><FrequencyChange><Frequency dt:dt=""r8"">2793040000</Frequency><Timestamp dt:dt=""r8"">332655052347417</Timestamp><Current dt:dt=""r8"">0</Current><DateUtc dt:dt=""string"">2014-06-04T22:38:42Z</DateUtc></FrequencyChange></FrequencyChanges></Clock>\n",60.03,1,1806072101,0,,-999999,8,101408,t,54601,156009,6/4/2014,15:38:42,,2,Session2,SessionsList,0,,-999999,3,796325,t,36215,832540,781416,2,1,2,4,,1298890,,,4,1,4,,,,Cued2,MiniBlocks1,,,,,2,1,b,-999999,19,1331557,b,1188,1332745,White,Congruent,b,Green,0,,0,6,1321528,,0,0,,,,2,1,2,,,,,,,Pictures\green.bmp,9000,10000,Pictures\black.bmp,,,,,,,,,,,,,StimulusPr,Pictures\right.bmp,CuedStim2,Right
POP_2,27037,1,"<?xml version=""1.0""?>\n<Clock xmlns:dt=""urn:schemas-microsoft-com:datatypes""><Description dt:dt=""string"">E-Prime Primary Realtime Clock</Description><StartTime><Timestamp dt:dt=""int"">0</Timestamp><DateUtc dt:dt=""string"">2014-06-04T22:38:42Z</DateUtc></StartTime><FrequencyChanges><FrequencyChange><Frequency dt:dt=""r8"">2793040000</Frequency><Timestamp dt:dt=""r8"">332655052347417</Timestamp><Current dt:dt=""r8"">0</Current><DateUtc dt:dt=""string"">2014-06-04T22:38:42Z</DateUtc></FrequencyChange></FrequencyChanges></Clock>\n",60.03,1,1806072101,0,,-999999,8,101408,t,54601,156009,6/4/2014,15:38:42,,2,Session2,SessionsList,0,,-999999,3,796325,t,36215,832540,781416,2,1,2,4,,1298890,,,4,1,4,,,,Cued2,MiniBlocks1,,,,,3,1,r,-999999,10,1348548,r,368,1348916,White,Incongruent,r,Red,0,,0,11,1344550,,0,0,,,,3,1,3,,,,,,,Pictures\red.bmp,3000,2000,Pictures\black.bmp,,,,,,,,,,,,,StimulusPr,Pictures\right.bmp,CuedStim2,Right
POP_2,27037,1,"<?xml version=""1.0""?>\n<Clock xmlns:dt=""urn:schemas-microsoft-com:datatypes""><Description dt:dt=""string"">E-Prime Primary Realtime Clock</Description><StartTime><Timestamp dt:dt=""int"">0</Timestamp><DateUtc dt:dt=""string"">2014-06-04T22:38:42Z</DateUtc></StartTime><FrequencyChanges><FrequencyChange><Frequency dt:dt=""r8"">2793040000</Frequency><Timestamp dt:dt=""r8"">332655052347417</Timestamp><Current dt:dt=""r8"">0</Current><DateUtc dt:dt=""string"">2014-06-04T22:38:42Z</DateUtc></FrequencyChange></FrequencyChanges></Clock>\n",60.03,1,1806072101,0,,-999999,8,101408,t,54601,156009,6/4/2014,15:38:42,,2,Session2,SessionsList,0,,-999999,3,796325,t,36215,832540,781416,2,1,2,4,,1298890,,,4,1,4,,,,Cued2,MiniBlocks1,,,,,4,1,r,-999999,17,1359542,r,300,1359842,White,Congruent,r,Green,0,,0,7,1352529,,0,0,,,,4,1,4,,,,,,,Pictures\green.bmp,6000,16000,Pictures\left.bmp,,,,,,,,,,,,,StimulusPr,Pictures\black.bmp,CuedStim2,Left
POP_2,27037,1,"<?xml version=""1.0""?>\n<Clock xmlns:dt=""urn:schemas-microsoft-com:datatypes""><Description dt:dt=""string"">E-Prime Primary Realtime Clock</Description><StartTime><Timestamp dt:dt=""int"">0</Timestamp><DateUtc dt:dt=""string"">2014-06-04T22:38:42Z</DateUtc></StartTime><FrequencyChanges><FrequencyChange><Frequency dt:dt=""r8"">2793040000</Frequency><Timestamp dt:dt=""r8"">332655052347417</Timestamp><Current dt:dt=""r8"">0</Current><DateUtc dt:dt=""string"">2014-06-04T22:38:42Z</DateUtc></FrequencyChange></FrequencyChanges></Clock>\n",60.03,1,1806072101,0,,-999999,8,101408,t,54601,156009,6/4/2014,15:38:42,,2,Session2,SessionsList,0,,-999999,3,796325,t,36215,832540,781416,2,1,2,4,,1298890,,,4,1,4,,,,Cued2,MiniBlocks1,,,,,5,1,b,-999999,9,1381531,b,303,1381834,White,Congruent,b,Green,0,,0,12,1377550,,0,0,,,,5,1,5,,,,,,,Pictures\green.bmp,3000,2000,Pictures\black.bmp,,,,,,,,,,,,,StimulusPr,Pictures\right.bmp,CuedStim2,Right
POP_2,27037,1,"<?xml version=""1.0""?>\n<Clock xmlns:dt=""urn:schemas-microsoft-com:datatypes""><Description dt:dt=""string"">E-Prime Primary Realtime Clock</Description><StartTime><Timestamp dt:dt=""int"">0</Timestamp><DateUtc dt:dt=""string"">2014-06-04T22:38:42Z</DateUtc></StartTime><FrequencyChanges><FrequencyChange><Frequency dt:dt=""r8"">2793040000</Frequency><Timestamp dt:dt=""r8"">332655052347417</Timestamp><Current dt:dt=""r8"">0</Current><DateUtc dt:dt=""string"">2014-06-04T22:38:42Z</DateUtc></FrequencyChange></FrequencyChanges></Clock>\n",60.03,1,1806072101,0,,-999999,8,101408,t,54601,156009,6/4/2014,15:38:42,,2,Session2,SessionsList,0,,-999999,3,796325,t,36215,832540,781416,2,1,2,4,,1298890,,,4,1,4,,,,Cued2,MiniBlocks1,,,,,6,1,r,-999999,6,1389544,r,623,1390167,White,Congruent,r,Green,0,,0,7,1385529,,0,0,,,,6,1,6,,,,,,,Pictures\green.bmp,3000,2000,Pictures\left.bmp,,,,,,,,,,,,,StimulusPr,Pictures\black.bmp,CuedStim2,Left
POP_2,27037,1,"<?xml version=""1.0""?>\n<Clock xmlns:dt=""urn:schemas-microsoft-com:datatypes""><Description dt:dt=""string"">E-Prime Primary Realtime Clock</Description><StartTime><Timestamp dt:dt=""int"">0</Timestamp><DateUtc dt:dt=""string"">2014-06-04T22:38:42Z</DateUtc></StartTime><FrequencyChanges><FrequencyChange><Frequency dt:dt=""r8"">2793040000</Frequency><Timestamp dt:dt=""r8"">332655052347417</Timestamp><Current dt:dt=""r8"">0</Current><DateUtc dt:dt=""string"">2014-06-04T22:38:42Z</DateUtc></FrequencyChange></FrequencyChanges></Clock>\n",60.03,1,1806072101,0,,-999999,8,101408,t,54601,156009,6/4/2014,15:38:42,,2,Session2,SessionsList,0,,-999999,3,796325,t,36215,832540,781416,2,1,2,4,,1298890,,,4,1,4,,,,Cued2,MiniBlocks1,,,,,7,0,b,-999999,17,1400555,r,727,1401282,White,Incongruent,b,Red,0,,0,4,1393542,,0,0,,,,7,1,7,,,,,,,Pictures\red.bmp,6000,4000,Pictures\left.bmp,,,,,,,,,,,,,StimulusPr,Pictures\black.bmp,CuedStim2,Left
POP_2,27037,1,"<?xml version=""1.0""?>\n<Clock xmlns:dt=""urn:schemas-microsoft-com:datatypes""><Description dt:dt=""string"">E-Prime Primary Realtime Clock</Description><StartTime><Timestamp dt:dt=""int"">0</Timestamp><DateUtc dt:dt=""string"">2014-06-04T22:38:42Z</DateUtc></StartTime><FrequencyChanges><FrequencyChange><Frequency dt:dt=""r8"">2793040000</Frequency><Timestamp dt:dt=""r8"">332655052347417</Timestamp><Current dt:dt=""r8"">0</Current><DateUtc dt:dt=""string"">2014-06-04T22:38:42Z</DateUtc></FrequencyChange></FrequencyChanges></Clock>\n",60.03,1,1806072101,0,,-999999,8,101408,t,54601,156009,6/4/2014,15:38:42,,2,Session2,SessionsList,0,,-999999,3,796325,t,36215,832540,781416,2,1,2,4,,1298890,,,4,1,4,,,,Cued2,MiniBlocks1,,,,,8,1,b,-999999,12,1411550,b,317,1411867,White,Congruent,b,Green,0,,0,14,1406552,,0,0,,,,8,1,8,,,,,,,Pictures\green.bmp,4000,4000,Pictures\black.bmp,,,,,,,,,,,,,StimulusPr,Pictures\right.bmp,CuedStim2,Right
POP_2,27037,1,"<?xml version=""1.0""?>\n<Clock xmlns:dt=""urn:schemas-microsoft-com:datatypes""><Description dt:dt=""string"">E-Prime Primary Realtime Clock</Description><StartTime><Timestamp dt:dt=""int"">0</Timestamp><DateUtc dt:dt=""string"">2014-06-04T22:38:42Z</DateUtc></StartTime><FrequencyChanges><FrequencyChange><Frequency dt:dt=""r8"">2793040000</Frequency><Timestamp dt:dt=""r8"">332655052347417</Timestamp><Current dt:dt=""r8"">0</Current><DateUtc dt:dt=""string"">2014-06-04T22:38:42Z</DateUtc></FrequencyChange></FrequencyChanges></Clock>\n",60.03,1,1806072101,0,,-999999,8,101408,t,54601,156009,6/4/2014,15:38:42,,2,Session2,SessionsList,0,,-999999,3,796325,t,36215,832540,781416,2,1,2,4,,1298890,,,4,1,4,,,,Cued2,MiniBlocks1,,,,,9,1,b,-999999,4,1427542,b,484,1428026,White,Incongruent,b,Red,0,,0,9,1417547,,0,0,,,,9,1,9,,,,,,,Pictures\red.bmp,9000,10000,Pictures\left.bmp,,,,,,,,,,,,,StimulusPr,Pictures\black.bmp,CuedStim2,Left
POP_2,27037,1,"<?xml version=""1.0""?>\n<Clock xmlns:dt=""urn:schemas-microsoft-com:datatypes""><Description dt:dt=""string"">E-Prime Primary Realtime Clock</Description><StartTime><Timestamp dt:dt=""int"">0</Timestamp><DateUtc dt:dt=""string"">2014-06-04T22:38:42Z</DateUtc></StartTime><FrequencyChanges><FrequencyChange><Frequency dt:dt=""r8"">2793040000</Frequency><Timestamp dt:dt=""r8"">332655052347417</Timestamp><Current dt:dt=""r8"">0</Current><DateUtc dt:dt=""string"">2014-06-04T22:38:42Z</DateUtc></FrequencyChange></FrequencyChanges></Clock>\n",60.03,1,1806072101,0,,-999999,8,101408,t,54601,156009,6/4/2014,15:38:42,,2,Session2,SessionsList,0,,-999999,3,796325,t,36215,832540,781416,2,1,2,4,,1298890,,,4,1,4,,,,Cued2,MiniBlocks1,,,,,10,1,r,-999999,5,1449531,r,340,1449871,White,Congruent,r,Green,0,,0,14,1439552,,0,0,,,,10,1,10,,,,,,,Pictures\green.bmp,9000,10000,Pictures\left.bmp,,,,,,,,,,,,,StimulusPr,Pictures\black.bmp,CuedStim2,Left
